frame,date,time,quaternion_x,quaternion_y,quaternion_z,quaternion_w,accel_x,accel_y,accel_z,gyro_x,gyro_y,gyro_z,HS,TO
22123,2024 8 08,15:43:13.755,-0.26904,-0.618414,0.32756,-0.661729,-0.982568,-0.08607,-0.013499,2.603129,-4.429358,-1.04029,0,0
22124,2024 8 08,15:43:13.763,-0.268972,-0.618209,0.327364,-0.662046,-0.983178,-0.084594,-0.006701,2.748051,-4.447932,-0.951869,0,0
22125,2024 8 08,15:43:13.772,-0.268904,-0.617993,0.327159,-0.662376,-0.982327,-0.084168,-0.009876,2.704242,-4.453283,-0.926397,0,0
22126,2024 8 08,15:43:13.780,-0.268834,-0.617781,0.326942,-0.662709,-0.982075,-0.080996,-0.0142,2.818221,-4.412553,-0.834235,0,0
22127,2024 8 08,15:43:13.788,-0.268767,-0.617567,0.326736,-0.663037,-0.983338,-0.080703,-0.014508,2.727235,-4.358337,-0.889984,0,0
22128,2024 8 08,15:43:13.797,-0.268747,-0.617501,0.326672,-0.663139,-0.983731,-0.080612,-0.014604,2.698951,-4.341483,-0.907315,0,0
22129,2024 8 08,15:43:13.805,-0.268687,-0.617341,0.326515,-0.66339,-0.983856,-0.105088,0.050786,2.689953,-4.213201,-0.953802,0,0
22130,2024 8 08,15:43:13.813,-0.268622,-0.617144,0.326329,-0.66369,-0.982274,-0.119806,0.007138,2.524843,-4.252567,-0.928376,0,0
22131,2024 8 08,15:43:13.822,-0.268535,-0.616857,0.326088,-0.664111,-0.981486,-0.085378,-0.01063,2.182019,-4.220107,-1.071979,0,0
22132,2024 8 08,15:43:13.830,-0.268484,-0.616638,0.325928,-0.664413,-0.978192,-0.088733,-0.015408,2.137517,-4.160371,-0.995286,0,0
22133,2024 8 08,15:43:13.838,-0.268448,-0.616427,0.325765,-0.664704,-0.983659,-0.086502,-0.018168,1.883651,-4.049763,-0.825782,0,0
22134,2024 8 08,15:43:13.847,-0.268442,-0.616391,0.325737,-0.664753,-0.984823,-0.085972,-0.018533,1.834049,-4.029541,-0.795297,0,0
22135,2024 8 08,15:43:13.855,-0.268413,-0.616222,0.3256,-0.664989,-0.979002,-0.088689,-0.022085,1.978418,-3.930306,-0.744537,0,0
22136,2024 8 08,15:43:13.863,-0.268374,-0.578981,0.417769,-0.646703,-0.98001,-0.151852,-0.00585,1.817778,-3.76324,-0.685096,0,0
22137,2024 8 08,15:43:13.872,-0.26834,-0.615851,0.325282,-0.665517,-0.981214,-0.089532,-0.01999,1.822314,-3.679379,-0.529744,0,0
22138,2024 8 08,15:43:13.880,-0.268311,-0.615668,0.325122,-0.665776,-0.982574,-0.082728,-0.023659,1.830096,-3.664004,-0.633804,0,0
22139,2024 8 08,15:43:13.888,-0.268306,-0.615473,0.324982,-0.666027,-0.982154,-0.082686,-0.023639,1.321171,-3.662341,-0.574116,0,0
22140,2024 8 08,15:43:13.897,-0.268306,-0.615473,0.324982,-0.666027,-0.981989,-0.082967,-0.023465,1.181304,-3.66214,-0.552639,0,0
22141,2024 8 08,15:43:13.905,-0.268309,-0.615275,0.324864,-0.666266,-0.981606,-0.088055,-0.02236,0.93733,-3.526821,-0.639995,0,0
22142,2024 8 08,15:43:13.913,-0.268311,-0.615668,0.325122,-0.665776,-0.983276,-0.087785,-0.024526,1.000991,-3.397508,-0.577461,0,0
22143,2024 8 08,15:43:13.922,-0.268324,-0.614907,0.324649,-0.666704,-0.98135,-0.087469,-0.024192,1.03145,-3.407666,-0.510126,0,0
22144,2024 8 08,15:43:13.930,-0.268327,-0.614722,0.324525,-0.666934,-0.982385,-0.087763,-0.022934,1.036499,-3.502829,-0.492185,0,0
22145,2024 8 08,15:43:13.938,-0.268325,-0.614539,0.324392,-0.667169,-0.978042,-0.086842,-0.021181,1.336977,-3.533,-0.48902,0,0
22146,2024 8 08,15:43:13.947,-0.268324,-0.614907,0.324649,-0.666704,-0.97649,-0.086511,-0.020643,1.439351,-3.538636,-0.488428,0,0
22147,2024 8 08,15:43:13.955,-0.268337,-0.614345,0.324257,-0.667407,-0.97919,-0.090786,-0.021204,1.250837,-3.58148,-0.36311,0,0
22148,2024 8 08,15:43:13.963,-0.26834,-0.615851,0.325282,-0.665517,-0.979882,-0.118856,0.028575,1.179636,-3.514339,-0.276643,0,0
22149,2024 8 08,15:43:13.972,-0.268349,-0.614017,0.323979,-0.66784,-0.979004,-0.124904,-0.051318,1.286396,-3.405634,-0.251567,0,0
22150,2024 8 08,15:43:13.980,-0.268362,-0.61385,0.323864,-0.668044,-0.982517,-0.181467,-0.02352,1.0075,-3.086875,-0.447075,0,0
22151,2024 8 08,15:43:13.988,-0.268394,-0.613678,0.323759,-0.668239,-0.982667,-0.086441,-0.031409,1.130794,-3.087749,-0.206027,0,0
22152,2024 8 08,15:43:13.997,-0.268406,-0.613618,0.323724,-0.668307,-0.982507,-0.085012,-0.011661,1.197724,-3.106392,-0.098093,0,0
22153,2024 8 08,15:43:14.005,-0.268429,-0.613495,0.323628,-0.668456,-0.978738,-0.092456,-0.031883,0.865094,-3.266452,-0.109663,0,0
22154,2024 8 08,15:43:14.013,-0.268447,-0.613347,0.323507,-0.668644,-0.979942,-0.137046,-0.014772,1.031341,-3.255481,-0.157082,0,0
22155,2024 8 08,15:43:14.022,-0.268475,-0.613182,0.323387,-0.668842,-0.979175,-0.085784,-0.029479,0.857914,-3.316572,-0.175797,0,0
22156,2024 8 08,15:43:14.030,-0.268511,-0.612571,0.342041,-0.66005,-0.978427,-0.089658,-0.026995,0.355787,-3.270204,-0.36867,0,0
22157,2024 8 08,15:43:14.038,-0.268541,-0.61282,0.323204,-0.669236,-0.979355,-0.086756,-0.031213,0.593939,-3.24535,-0.378548,0,0
22158,2024 8 08,15:43:14.047,-0.268573,-0.612642,0.323125,-0.669424,-0.981867,-0.087519,-0.030634,0.512434,-3.054485,-0.443395,0,0
22159,2024 8 08,15:43:14.055,-0.268587,-0.612572,0.323094,-0.669498,-0.982941,-0.088113,-0.03005,0.45382,-2.968618,-0.474279,0,0
22160,2024 8 08,15:43:14.063,-0.268611,-0.612453,0.323038,-0.669624,-0.982985,-0.086571,-0.032457,0.435732,-2.834333,-0.376025,0,0
22161,2024 8 08,15:43:14.072,-0.268644,-0.612308,0.322976,-0.669773,-0.982386,-0.088661,-0.036746,0.287825,-2.739686,-0.363857,0,0
22162,2024 8 08,15:43:14.080,-0.268676,-0.612166,0.32291,-0.669922,-0.980416,-0.089214,-0.034113,0.323564,-2.527728,-0.295075,0,0
22163,2024 8 08,15:43:14.088,-0.268695,-0.612077,0.322868,-0.670016,-0.979045,-0.089357,-0.031759,0.365856,-2.381599,-0.244565,0,0
22164,2024 8 08,15:43:14.097,-0.268709,-0.611958,0.322786,-0.670158,-0.974743,-0.089358,-0.034124,0.664191,-2.201607,-0.244151,0,0
22165,2024 8 08,15:43:14.105,-0.268719,-0.61185,0.32273,-0.67028,-0.9784,-0.092645,-0.028544,0.142842,-2.021342,-0.244141,0,0
22166,2024 8 08,15:43:14.113,-0.26872,-0.611846,0.322727,-0.670285,-0.978538,-0.092769,-0.028333,0.123164,-2.014538,-0.244141,0,0
22167,2024 8 08,15:43:14.122,-0.268721,-0.611747,0.322636,-0.670418,-0.98128,-0.088674,-0.039261,0.862804,-2.185107,-0.130193,0,0
22168,2024 8 08,15:43:14.130,-0.26873,-0.611649,0.322536,-0.670552,-0.981909,-0.08571,-0.035486,0.911307,-2.027843,-0.010421,0,0
22169,2024 8 08,15:43:14.138,-0.268737,-0.61156,0.322437,-0.670678,-0.98373,-0.084147,-0.033417,0.970484,-1.849386,-0.05632,0,0
22170,2024 8 08,15:43:14.147,-0.268718,-0.611482,0.322373,-0.670788,-0.987826,-0.080948,-0.045888,0.757633,-1.396424,-0.497107,0,0
22171,2024 8 08,15:43:14.155,-0.26872,-0.611846,0.322727,-0.670285,-0.983949,-0.079753,-0.038149,0.789219,-1.34912,-0.32788,0,0
22172,2024 8 08,15:43:14.163,-0.268721,-0.611747,0.322636,-0.670418,-0.983496,-0.079613,-0.037246,0.792905,-1.343601,-0.308135,0,0
22173,2024 8 08,15:43:14.172,-0.268715,-0.611303,0.322304,-0.670985,-0.984695,-0.084203,-0.035035,0.217381,-1.342891,-0.724504,0,0
22174,2024 8 08,15:43:14.180,-0.268695,-0.612077,0.322868,-0.670016,-0.980316,-0.084847,-0.040512,0.085033,-1.497791,-0.937873,0,0
22175,2024 8 08,15:43:14.188,-0.268683,-0.611085,0.32235,-0.671175,-0.978429,-0.086576,-0.033183,-0.291931,0.69049,-0.203048,0,0
22176,2024 8 08,15:43:14.197,-0.268672,-0.610984,0.322399,-0.671247,-0.980538,-0.091688,-0.0332,-0.151871,-1.11016,-1.043663,0,0
22177,2024 8 08,15:43:14.205,-0.268651,-0.610883,0.32242,-0.671338,-0.976134,-0.092971,-0.033203,-0.177296,-1.349192,-0.93936,0,0
22178,2024 8 08,15:43:14.213,-0.268647,-0.610864,0.322423,-0.671355,-0.975325,-0.098524,-0.083877,-0.181965,-1.393089,-0.920205,0,0
22179,2024 8 08,15:43:14.222,-0.268624,-0.61079,0.322421,-0.671432,-0.977494,-0.088214,-0.035142,0.253119,-1.353154,-0.819606,0,0
22180,2024 8 08,15:43:14.230,-0.268605,-0.610708,0.3224,-0.671525,-0.977553,-0.090259,-0.037833,0.38962,-1.345016,-0.703415,0,0
22181,2024 8 08,15:43:14.238,-0.268589,-0.610634,0.322387,-0.671605,-0.981346,-0.146852,-0.039852,0.229701,-1.059697,-0.536822,0,0
22182,2024 8 08,15:43:14.247,-0.268582,-0.610563,0.322382,-0.671674,-0.980324,-0.088001,-0.04462,0.007271,-0.902704,-0.546381,0,0
22183,2024 8 08,15:43:14.255,-0.268572,-0.610497,0.322347,-0.671756,-0.983778,-0.437963,0.004243,0.924583,-1.050819,-0.317898,0,0
22184,2024 8 08,15:43:14.263,-0.268569,-0.610481,0.322338,-0.671776,-0.984611,-0.082402,-0.043072,1.14581,-1.08654,-0.262795,0,0
22185,2024 8 08,15:43:14.272,-0.268562,-0.610418,0.322302,-0.671853,-0.984459,-0.086096,-0.036507,0.615213,-1.185608,-0.339159,0,0
22186,2024 8 08,15:43:14.280,-0.268556,-0.610338,0.322264,-0.671946,-0.982994,-0.348708,0.033833,0.433456,-1.433985,-0.448009,0,0
22187,2024 8 08,15:43:14.288,-0.268537,-0.610255,0.32222,-0.67205,-0.984012,-0.085237,-0.039025,0.473021,-1.456255,-0.477072,0,0
22188,2024 8 08,15:43:14.297,-0.268528,-0.610168,0.322192,-0.672146,-0.982202,-0.086087,-0.039053,0.353253,-1.418831,-0.615728,0,0
22189,2024 8 08,15:43:14.305,-0.268527,-0.610071,0.322185,-0.672237,-0.979966,-0.089084,-0.037682,0.060911,-1.365161,-0.655003,0,0
22190,2024 8 08,15:43:14.313,-0.268527,-0.610071,0.322185,-0.672237,-0.979316,-0.089957,-0.037283,-0.024196,-1.349537,-0.666437,0,0
22191,2024 8 08,15:43:14.322,-0.268524,-0.609964,0.322178,-0.67234,-0.978784,-0.124362,0.014243,0.034642,-1.429137,-0.669854,0,0
22192,2024 8 08,15:43:14.330,-0.268515,-0.609874,0.322163,-0.672431,-0.977954,-0.09306,-0.041959,0.219395,-1.370157,-0.670901,0,0
22193,2024 8 08,15:43:14.338,-0.268508,-0.609792,0.32214,-0.67252,-0.972745,-0.091878,-0.037363,0.318594,-1.351655,-0.423792,0,0
22194,2024 8 08,15:43:14.347,-0.268508,-0.609792,0.32214,-0.67252,-0.976623,-0.099334,-0.03295,-0.302467,-1.141687,-0.385295,0,0
22195,2024 8 08,15:43:14.355,-0.268473,-0.609636,0.322111,-0.672689,-0.980642,-0.089974,-0.039606,0.337429,-1.19575,-0.471466,0,0
22196,2024 8 08,15:43:14.363,-0.268467,-0.609629,0.322106,-0.6727,-0.98098,-0.121388,0.032623,0.485422,-1.22023,-0.487963,0,0
22197,2024 8 08,15:43:14.372,-0.268452,-0.609559,0.322075,-0.672784,-0.983435,-0.085039,-0.041016,0.437189,-1.322678,-0.48827,0,0
22198,2024 8 08,15:43:14.380,-0.268445,-0.609473,0.322062,-0.672871,-0.984295,-0.090531,-0.045839,0.176564,-1.191105,-0.638978,0,0
22199,2024 8 08,15:43:14.388,-0.268433,-0.609388,0.322057,-0.672956,-0.984398,-0.090533,-0.045624,-0.023009,-1.112136,-0.718858,0,0
22200,2024 8 08,15:43:14.397,-0.268429,-0.613495,0.323628,-0.668456,-0.980893,-0.08996,-0.043086,-0.155693,-1.002112,-0.682618,0,0
22201,2024 8 08,15:43:14.405,-0.268428,-0.60922,0.322077,-0.6731,-0.978551,-0.092549,-0.042536,-0.084511,-0.882692,-0.528164,0,0
22202,2024 8 08,15:43:14.413,-0.268428,-0.60922,0.322077,-0.6731,-0.978108,-0.093192,-0.042487,-0.063431,-0.85737,-0.492351,0,0
22203,2024 8 08,15:43:14.422,-0.268415,-0.609157,0.322081,-0.673161,-0.981054,-0.091013,-0.041735,0.125636,-0.808085,-0.628957,0,0
22204,2024 8 08,15:43:14.430,-0.268405,-0.609092,0.32209,-0.67322,-0.976317,-0.086364,-0.043747,-0.008555,-0.749216,-0.666011,0,0
22205,2024 8 08,15:43:14.438,-0.268417,-0.609037,0.322107,-0.673256,-0.977418,-0.093161,-0.032699,0.037176,-0.598337,-0.306878,0,0
22206,2024 8 08,15:43:14.447,-0.268395,-0.609005,0.322071,-0.673311,-0.973654,-0.242183,-0.082986,0.371496,-0.825849,-0.246539,0,0
22207,2024 8 08,15:43:14.455,-0.268369,-0.60898,0.322023,-0.673367,-0.978454,-0.089185,-0.037855,0.46945,-0.723981,-0.155985,0,0
22208,2024 8 08,15:43:14.463,-0.268347,-0.608952,0.321973,-0.673425,-0.980496,-0.090213,-0.037534,0.65982,-0.767832,-0.127909,0,0
22209,2024 8 08,15:43:14.472,-0.268341,-0.608944,0.321959,-0.673441,-0.980897,-0.090712,-0.037587,0.71915,-0.788773,-0.123138,0,0
22210,2024 8 08,15:43:14.480,-0.268329,-0.60891,0.321934,-0.673489,-0.980629,-0.090802,-0.044411,0.474338,-0.792552,-0.20745,0,0
22211,2024 8 08,15:43:14.488,-0.268306,-0.615473,0.324982,-0.666027,-0.982207,-0.090482,-0.045418,0.51435,-0.709166,-0.278736,0,0
22212,2024 8 08,15:43:14.497,-0.26828,-0.608831,0.32188,-0.673605,-0.982119,-0.072435,0.052722,0.375732,-0.720972,-0.341074,0,0
22213,2024 8 08,15:43:14.505,-0.268254,-0.60879,0.321851,-0.673666,-0.981014,-0.090766,-0.042112,0.443968,-0.729871,-0.360612,0,0
22214,2024 8 08,15:43:14.513,-0.268225,-0.60875,0.321828,-0.673725,-0.981915,-0.090708,-0.042669,0.477995,-0.610239,-0.445972,0,0
22215,2024 8 08,15:43:14.522,-0.268215,-0.608737,0.321821,-0.673744,-0.982322,-0.090795,-0.042898,0.485799,-0.564016,-0.478073,0,0
22216,2024 8 08,15:43:14.530,-0.268198,-0.608701,0.321813,-0.673787,-0.983686,-0.112073,-0.017268,0.368935,-0.671719,-0.446152,0,0
22217,2024 8 08,15:43:14.538,-0.268182,-0.608655,0.321794,-0.673844,-0.981403,-0.089831,-0.042078,0.282573,-0.79493,-0.393028,0,0
22218,2024 8 08,15:43:14.547,-0.268178,-0.608598,0.321793,-0.673898,-0.983167,-0.090983,-0.042325,0.061103,-0.877223,-0.450711,0,0
22219,2024 8 08,15:43:14.555,-0.268176,-0.608539,0.321786,-0.673956,-0.9807,-0.16124,0.091964,0.087325,-0.866739,-0.401472,0,0
22220,2024 8 08,15:43:14.563,-0.268166,-0.608482,0.321776,-0.674016,-0.981019,-0.089887,-0.045459,0.187789,-0.85797,-0.451811,0,0
22221,2024 8 08,15:43:14.572,-0.268161,-0.608461,0.321772,-0.674038,-0.981342,-0.088821,-0.046463,0.227689,-0.855508,-0.477634,0,0
22222,2024 8 08,15:43:14.580,-0.268171,-0.608414,0.321801,-0.674063,-0.979957,0.282337,0.137364,-0.721777,-0.559108,-0.595973,0,0
22223,2024 8 08,15:43:14.588,-0.268172,-0.608359,0.32183,-0.674098,-0.983412,-0.076065,0.006263,0.054536,-0.608295,-0.575089,0,0
22224,2024 8 08,15:43:14.597,-0.268172,-0.608359,0.32183,-0.674098,-0.983071,-0.089505,-0.041376,0.00704,-0.832347,-0.62976,0,0
22225,2024 8 08,15:43:14.605,-0.268168,-0.608214,0.321853,-0.67422,-0.981506,-0.090729,-0.043575,0.026859,-1.073223,-0.586419,0,0
22226,2024 8 08,15:43:14.613,-0.268169,-0.663507,0.140779,-0.684122,-0.98168,-0.090837,-0.043391,-0.091827,-1.065934,-0.526131,0,0
22227,2024 8 08,15:43:14.622,-0.26817,-0.608098,0.321857,-0.674321,-0.981868,-0.090828,-0.043111,-0.15241,-1.047127,-0.501009,0,0
22228,2024 8 08,15:43:14.630,-0.268171,-0.608414,0.321801,-0.674063,-0.981962,-0.095216,-0.08056,-0.182666,-1.037734,-0.488463,0,0
22229,2024 8 08,15:43:14.638,-0.26819,-0.607987,0.321877,-0.674404,-0.980068,-0.091297,-0.04297,-0.30158,-1.274576,-0.54753,0,0
22230,2024 8 08,15:43:14.647,-0.268188,-0.645325,0.349433,-0.624075,-0.985148,-0.090377,-0.043437,-0.246665,-1.106364,-0.665944,0,0
22231,2024 8 08,15:43:14.655,-0.268198,-0.608701,0.321813,-0.673787,-0.985368,-0.091257,-0.044837,-0.07182,-1.271549,-0.671071,0,0
22232,2024 8 08,15:43:14.663,-0.268187,-0.607727,0.321904,-0.674627,-0.985381,-0.089041,-0.056247,-0.00516,-0.884454,-0.784665,0,0
22233,2024 8 08,15:43:14.672,-0.268194,-0.607636,0.32193,-0.674694,-0.981808,-0.092905,-0.046335,0.055396,-1.080387,-0.681037,0,0
22234,2024 8 08,15:43:14.680,-0.268194,-0.607636,0.32193,-0.674694,-0.981508,-0.202205,-0.059709,0.060482,-1.096842,-0.672334,0,0
22235,2024 8 08,15:43:14.688,-0.268183,-0.607544,0.321921,-0.674785,-0.979308,-0.092392,-0.04629,0.060974,-1.369807,-0.671492,0,0
22236,2024 8 08,15:43:14.697,-0.268178,-0.608598,0.321793,-0.673898,-0.979068,-0.091444,-0.044235,-0.099551,-1.185521,-0.724926,0,0
22237,2024 8 08,15:43:14.705,-0.268173,-0.607375,0.321941,-0.674932,-0.982418,-0.093864,-0.050322,-0.013435,-1.110359,-0.678612,0,0
22238,2024 8 08,15:43:14.713,-0.268169,-0.663507,0.140779,-0.684122,-0.978696,-0.11358,0.027753,-0.054059,-1.152441,-0.672446,0,0
22239,2024 8 08,15:43:14.722,-0.268154,-0.607208,0.321944,-0.675089,-0.977747,-0.090334,-0.052664,0.145667,-1.107127,-0.671554,0,0
22240,2024 8 08,15:43:14.730,-0.268151,-0.607196,0.321943,-0.675101,-0.977599,-0.089929,-0.053941,0.176784,-1.100067,-0.671415,0,0
22241,2024 8 08,15:43:14.738,-0.268138,-0.607133,0.321938,-0.675165,-0.978375,-0.092265,-0.046543,0.131896,-1.048816,-0.571243,0,0
22242,2024 8 08,15:43:14.747,-0.268142,-0.607069,0.321958,-0.675211,-0.976536,-0.100194,-0.048,-0.518741,-0.693672,-0.504046,0,0
22243,2024 8 08,15:43:14.755,-0.268114,-0.607019,0.32195,-0.675271,-0.978534,-0.093638,-0.083679,0.140218,-0.773479,-0.540253,0,0
22244,2024 8 08,15:43:14.763,-0.268099,-0.606967,0.321938,-0.675329,-0.9824,-0.094081,-0.049345,0.222302,-0.692841,-0.402784,0,0
22245,2024 8 08,15:43:14.772,-0.268089,-0.606908,0.321918,-0.675396,-0.981678,-0.094587,-0.050086,0.334576,-0.866574,-0.326633,0,0
22246,2024 8 08,15:43:14.780,-0.268087,-0.606896,0.321913,-0.67541,-0.981522,-0.094697,-0.050247,0.358957,-0.904303,-0.310096,0,0
22247,2024 8 08,15:43:14.788,-0.26808,-0.606853,0.321892,-0.675462,-0.982974,-0.094968,0.019248,0.318003,-0.91285,-0.306349,0,0
22248,2024 8 08,15:43:14.797,-0.268078,-0.606801,0.321869,-0.67552,-0.984786,-0.092246,-0.045606,0.216495,-0.914865,-0.21361,0,0
22249,2024 8 08,15:43:14.805,-0.268073,-0.606748,0.321855,-0.675576,-0.982324,-0.090098,-0.049819,0.191664,-0.779185,-0.327097,0,0
22250,2024 8 08,15:43:14.813,-0.268075,-0.606684,0.321859,-0.675631,-0.983136,-0.08776,-0.056271,-0.083826,-0.699943,-0.445582,0,0
22251,2024 8 08,15:43:14.822,-0.268101,-0.60662,0.321878,-0.675669,-0.983703,-0.09176,-0.042702,0.065798,-0.679191,-0.299196,0,0
22252,2024 8 08,15:43:14.830,-0.268108,-0.606603,0.321883,-0.675679,-0.983857,-0.092841,-0.039035,0.106229,-0.673584,-0.259639,0,0
22253,2024 8 08,15:43:14.838,-0.268112,-0.606554,0.321884,-0.675721,-0.978696,-0.11358,0.027753,-0.099332,-0.802112,-0.378717,0,0
22254,2024 8 08,15:43:14.847,-0.268122,-0.606503,0.321875,-0.675767,-0.979276,-0.095495,-0.046475,-0.115308,-0.838915,-0.198394,0,0
22255,2024 8 08,15:43:14.855,-0.268128,-0.606445,0.321871,-0.675819,-0.979108,-0.12452,0.040368,-0.035176,-0.934572,-0.272601,0,0
22256,2024 8 08,15:43:14.863,-0.268137,-0.606385,0.32186,-0.675874,-0.979393,-0.094608,-0.049029,-0.010995,-0.879523,-0.169122,0,0
22257,2024 8 08,15:43:14.872,-0.268147,-0.606324,0.321845,-0.675932,-0.980809,-0.092698,-0.047233,-0.003518,-0.945517,-0.220141,0,0
22258,2024 8 08,15:43:14.880,-0.268163,-0.60626,0.321828,-0.675992,-0.9806,-0.094065,-0.047979,0.039919,-1.048546,-0.19522,0,0
22259,2024 8 08,15:43:14.888,-0.268168,-0.608214,0.321853,-0.67422,-0.980533,-0.094507,-0.04822,0.053979,-1.081896,-0.187154,0,0
22260,2024 8 08,15:43:14.897,-0.268186,-0.606169,0.321791,-0.676081,-0.979244,-0.092218,-0.047086,0.113242,-1.150746,-0.13087,0,0
22261,2024 8 08,15:43:14.905,-0.268195,-0.606101,0.321755,-0.676156,-0.978627,-0.092222,-0.049764,0.327743,-1.313865,-0.173762,0,0
22262,2024 8 08,15:43:14.913,-0.268201,-0.606034,0.321717,-0.676232,-0.97936,-0.092691,-0.05149,0.263299,-1.138848,-0.233432,0,0
22263,2024 8 08,15:43:14.922,-0.268207,-0.60597,0.321686,-0.676301,-0.979114,-0.095169,-0.048948,0.245172,-1.050856,-0.293506,0,0
22264,2024 8 08,15:43:14.930,-0.268208,-0.605908,0.321649,-0.676374,-0.981008,-0.116399,0.057529,0.29342,-1.136914,-0.255176,0,0
22265,2024 8 08,15:43:14.938,-0.268208,-0.605908,0.321649,-0.676374,-0.981437,-0.119682,0.019132,0.304222,-1.157821,-0.245036,0,0
22266,2024 8 08,15:43:14.947,-0.268206,-0.605846,0.321618,-0.676445,-0.977647,-0.086383,-0.047299,0.257278,-0.968261,-0.339842,0,0
22267,2024 8 08,15:43:14.955,-0.268244,-0.605792,0.321645,-0.676466,-0.980476,-0.101649,-0.038625,-0.414373,-0.591208,-0.127705,0,0
22268,2024 8 08,15:43:14.963,-0.268238,-0.605742,0.321626,-0.676522,-0.978009,-0.101041,-0.05205,-0.029154,-1.011891,-0.301413,0,0
22269,2024 8 08,15:43:14.972,-0.268237,-0.605691,0.321592,-0.676584,-0.980871,-0.094355,-0.052371,0.102208,-1.002709,-0.128452,0,0
22270,2024 8 08,15:43:14.980,-0.268229,-0.605642,0.321553,-0.67665,-0.983617,-0.094031,-0.051123,0.526317,-0.935071,-0.115911,0,0
22271,2024 8 08,15:43:14.988,-0.268227,-0.605629,0.321543,-0.676667,-0.984283,-0.094209,-0.050835,0.648982,-0.918546,-0.121119,0,0
22272,2024 8 08,15:43:14.997,-0.26823,-0.655471,0.196593,-0.678057,-0.985794,-0.094236,-0.052553,0.227225,-0.916027,-0.121913,0,0
22273,2024 8 08,15:43:15.005,-0.268238,-0.605742,0.321626,-0.676522,-0.983824,-0.093892,-0.050671,0.307715,-1.13299,-0.208992,0,0
22274,2024 8 08,15:43:15.013,-0.26825,-0.605435,0.321455,-0.676873,-0.983105,-0.095152,-0.048938,0.097765,-1.547666,-0.409249,0,0
22275,2024 8 08,15:43:15.022,-0.268267,-0.605356,0.32142,-0.676954,-0.985346,-0.005463,0.016027,0.273537,-1.295786,-0.133682,0,0
22276,2024 8 08,15:43:15.030,-0.268283,-0.605267,0.321402,-0.677035,-0.986818,-0.097568,-0.033093,-0.029629,-1.062315,-0.320635,0,0
22277,2024 8 08,15:43:15.038,-0.268288,-0.605239,0.321397,-0.677061,-0.987223,-0.097096,-0.053555,-0.149817,-0.995162,-0.404123,0,0
22278,2024 8 08,15:43:15.047,-0.268293,-0.605175,0.321374,-0.677127,-0.980123,-0.095245,-0.055157,-0.012243,-1.307425,-0.299516,0,0
22279,2024 8 08,15:43:15.055,-0.268312,-0.605091,0.32135,-0.677206,-0.979361,-0.096737,-0.053983,0.043763,-1.347056,-0.257193,0,0
22280,2024 8 08,15:43:15.063,-0.268325,-0.614539,0.324392,-0.667169,-0.980439,-0.096477,-0.05054,0.176393,-1.463408,-0.247336,0,0
22281,2024 8 08,15:43:15.072,-0.268334,-0.604927,0.321282,-0.677376,-0.981478,-0.092169,-0.05273,0.266351,-1.39185,-0.126769,0,0
22282,2024 8 08,15:43:15.080,-0.268355,-0.604849,0.321286,-0.677435,-0.981836,-0.090144,-0.058176,-0.639504,-0.966273,-0.389776,0,0
22283,2024 8 08,15:43:15.088,-0.268363,-0.60482,0.321291,-0.677456,-0.981929,-0.089571,-0.060262,-1.018827,-0.79574,-0.506119,0,0
22284,2024 8 08,15:43:15.097,-0.268385,-0.604761,0.321305,-0.677493,-0.982867,-0.149626,-0.076871,-0.054838,-0.978418,-0.423099,0,0
22285,2024 8 08,15:43:15.105,-0.268413,-0.616222,0.3256,-0.664989,-0.983568,-0.089536,-0.052285,-0.150936,-1.177003,-0.4578,0,0
22286,2024 8 08,15:43:15.113,-0.268439,-0.60457,0.321322,-0.677634,-0.980539,-0.09262,-0.056454,-0.185251,-1.436896,-0.590923,0,0
22287,2024 8 08,15:43:15.122,-0.268463,-0.604472,0.32132,-0.677713,-0.978266,-0.094339,-0.053825,-0.183755,-1.357482,-0.463011,0,0
22288,2024 8 08,15:43:15.130,-0.268481,-0.604385,0.321317,-0.677786,-0.97774,-0.09844,-0.051235,-0.074094,-1.341645,-0.432652,0,0
22289,2024 8 08,15:43:15.138,-0.268487,-0.60435,0.321315,-0.677814,-0.977623,-0.115594,-0.127423,-0.023539,-1.342415,-0.428963,0,0
22290,2024 8 08,15:43:15.147,-0.26849,-0.604295,0.321299,-0.67787,-0.977872,-0.095674,-0.05765,0.170509,-1.271394,-0.392173,0,0
22291,2024 8 08,15:43:15.155,-0.268495,-0.604226,0.321288,-0.677935,-0.978842,-0.097643,-0.060371,0.084176,-1.096504,-0.410088,0,0
22292,2024 8 08,15:43:15.163,-0.268498,-0.604181,0.321282,-0.677977,-0.979519,-0.099603,-0.06152,0.000412,-0.97715,-0.427162,0,0
22293,2024 8 08,15:43:15.172,-0.268501,-0.604111,0.321247,-0.678054,-0.979522,-0.09435,-0.049086,0.299012,-1.096176,-0.307643,0,0
22294,2024 8 08,15:43:15.180,-0.268507,-0.604057,0.321241,-0.678102,-0.981407,-0.098485,-0.040829,0.010491,-0.921866,-0.305262,0,0
22295,2024 8 08,15:43:15.188,-0.268501,-0.604111,0.321247,-0.678054,-0.976831,0.10903,-0.083663,0.406615,-1.495978,-0.189153,0,0
22296,2024 8 08,15:43:15.197,-0.268501,-0.604111,0.321247,-0.678054,-0.976607,-0.099122,-0.051725,0.425936,-1.52398,-0.183489,0,0
22297,2024 8 08,15:43:15.205,-0.268496,-0.603916,0.321134,-0.678283,-0.976143,-0.094167,-0.053109,0.483475,-1.525733,-0.295796,0,0
22298,2024 8 08,15:43:15.213,-0.268491,-0.603836,0.32109,-0.678377,-0.980105,-0.808495,0.23352,0.654421,-1.359292,-0.248804,0,0
22299,2024 8 08,15:43:15.222,-0.268479,-0.603749,0.321037,-0.678485,-0.979144,-0.094149,-0.059146,0.45067,-1.45396,-0.408847,0,0
22300,2024 8 08,15:43:15.230,-0.268462,-0.603671,0.320996,-0.67858,-0.977319,-0.093799,-0.061682,0.537915,-1.355624,-0.425119,0,0
22301,2024 8 08,15:43:15.238,-0.268443,-0.603606,0.320956,-0.678664,-0.981796,-0.092907,-0.059842,0.54786,-1.078212,-0.373734,0,0
22302,2024 8 08,15:43:15.247,-0.26844,-0.603598,0.320951,-0.678675,-0.98236,-0.092794,-0.05961,0.549113,-1.043264,-0.36726,0,0
22303,2024 8 08,15:43:15.255,-0.268424,-0.60354,0.320922,-0.678747,-0.97539,-0.095681,-0.062065,0.342009,-1.090272,-0.418189,0,0
22304,2024 8 08,15:43:15.263,-0.268414,-0.603485,0.32093,-0.678796,-0.978443,-0.097338,-0.05384,-0.353628,-0.688183,-0.528051,0,0
22305,2024 8 08,15:43:15.272,-0.268405,-0.609092,0.32209,-0.67322,-0.978931,-0.092758,-0.055754,-0.212617,-0.724766,-0.64658,0,0
22306,2024 8 08,15:43:15.280,-0.268403,-0.603361,0.320962,-0.678895,-0.981407,-0.098485,-0.040829,-0.088878,-0.830664,-0.567182,0,0
22307,2024 8 08,15:43:15.288,-0.268413,-0.616222,0.3256,-0.664989,-0.979101,-0.097737,-0.059654,-0.558367,-0.751483,-0.651169,0,0
22308,2024 8 08,15:43:15.297,-0.268436,-0.603202,0.321052,-0.67898,-0.997313,0.199441,-0.043294,-0.599741,-0.736312,-0.47295,0,0
22309,2024 8 08,15:43:15.305,-0.268441,-0.603187,0.321062,-0.678988,-1.000984,-0.096262,-0.081057,-0.608082,-0.733254,-0.437024,0,0
22310,2024 8 08,15:43:15.313,-0.268478,-0.603098,0.321123,-0.679023,-0.982045,-0.100001,-0.06627,-1.4155,-0.637825,-0.618998,0,0
22311,2024 8 08,15:43:15.322,-0.268523,-0.603021,0.321205,-0.679035,-0.988725,-0.094459,-0.063754,-1.219251,-0.66357,-0.518725,0,0
22312,2024 8 08,15:43:15.330,-0.268555,-0.602922,0.321235,-0.679096,-0.976198,-0.093554,-0.051332,-0.75773,-1.317165,-0.680699,0,0
22313,2024 8 08,15:43:15.338,-0.268594,-0.602829,0.321278,-0.679143,-0.977956,-0.107849,0.01946,-0.601621,-1.290629,-0.490854,0,0
22314,2024 8 08,15:43:15.347,-0.268637,-0.602739,0.321299,-0.679195,-0.988876,-0.097144,-0.067028,-0.517714,-1.148491,-0.217837,0,0
22315,2024 8 08,15:43:15.355,-0.268648,-0.602716,0.321305,-0.679209,-0.991679,-0.096806,-0.070505,-0.496175,-1.112005,-0.147755,0,0
22316,2024 8 08,15:43:15.363,-0.268675,-0.60263,0.321288,-0.679282,-0.980411,-0.097777,-0.062949,-0.269677,-1.411433,-0.305803,0,0
22317,2024 8 08,15:43:15.372,-0.2687,-0.602549,0.321272,-0.679353,-0.97733,-0.094549,-0.061581,-0.076766,-1.231335,-0.305354,0,0
22318,2024 8 08,15:43:15.380,-0.268739,-0.602471,0.321274,-0.679405,-0.979226,-0.09744,-0.053252,-0.108814,-1.094288,-0.218877,0,0
22319,2024 8 08,15:43:15.388,-0.26876,-0.602384,0.321252,-0.679485,-0.977725,-0.098279,-0.025646,0.095415,-1.524333,-0.321953,0,0
22320,2024 8 08,15:43:15.397,-0.268769,-0.602298,0.321213,-0.679575,-0.980658,-0.095905,-0.056561,0.198332,-1.525403,-0.268107,0,0
22321,2024 8 08,15:43:15.405,-0.268772,-0.602273,0.321201,-0.679602,-0.981552,-0.094766,-0.056951,0.22969,-1.525729,-0.251701,0,0
22322,2024 8 08,15:43:15.413,-0.268775,-0.602198,0.32116,-0.679687,-0.9815,-0.094411,-0.057073,0.44616,-1.691177,-0.287917,0,0
22323,2024 8 08,15:43:15.422,-0.26878,-0.602117,0.321107,-0.679781,-0.97952,-0.094951,-0.06202,0.392584,-1.580407,-0.21768,0,0
22324,2024 8 08,15:43:15.430,-0.268777,-0.602006,0.321024,-0.67992,-0.977701,-0.094796,-0.06361,0.630095,-1.525885,-0.235886,0,0
22325,2024 8 08,15:43:15.438,-0.268766,-0.601931,0.32097,-0.680016,-0.978402,-0.09473,-0.060155,0.514865,-1.370001,-0.347931,0,0
22326,2024 8 08,15:43:15.447,-0.268752,-0.601871,0.320929,-0.680095,-0.978541,-0.182017,0.052492,0.38676,-1.036601,-0.314484,0,0
22327,2024 8 08,15:43:15.455,-0.268749,-0.601861,0.320922,-0.680107,-0.978545,-0.092306,-0.06442,0.367139,-0.979273,-0.305596,0,0
22328,2024 8 08,15:43:15.463,-0.268744,-0.601814,0.320909,-0.680157,-0.980929,-0.095864,-0.065248,0.316612,-0.778107,-0.354855,0,0
22329,2024 8 08,15:43:15.472,-0.268733,-0.601768,0.320884,-0.680214,-0.981044,0.131533,-0.001416,0.30601,-0.784686,-0.316452,0,0
22330,2024 8 08,15:43:15.480,-0.26871,-0.601735,0.320865,-0.680262,-0.985236,-0.06635,0.012093,0.594614,-0.455107,-0.402604,0,0
22331,2024 8 08,15:43:15.488,-0.268679,-0.601721,0.320846,-0.680294,-0.981302,-0.097004,-0.057242,0.521134,-0.375032,-0.282167,0,0
22332,2024 8 08,15:43:15.497,-0.26864,-0.6017,0.320802,-0.68035,-0.979405,-0.09727,-0.059218,0.726359,-0.695363,-0.295273,0,0
22333,2024 8 08,15:43:15.505,-0.268631,-0.683377,0.308022,-0.604931,-0.97908,-0.097183,-0.059956,0.785134,-0.781289,-0.303947,0,0
22334,2024 8 08,15:43:15.513,-0.268603,-0.601679,0.320748,-0.680408,-0.978675,-0.097902,-0.061871,0.701111,-0.609374,-0.213794,0,0
22335,2024 8 08,15:43:15.522,-0.268571,-0.601664,0.320699,-0.680458,-0.976765,-0.098111,-0.058449,0.58578,-0.558176,-0.097641,0,0
22336,2024 8 08,15:43:15.530,-0.268547,-0.601643,0.320655,-0.680506,-0.979406,-0.098142,-0.058406,0.643908,-0.550723,-0.111249,0,0
22337,2024 8 08,15:43:15.538,-0.268526,-0.601619,0.320597,-0.680562,-0.979261,-0.068631,0.012682,0.666722,-0.68102,-0.03259,0,0
22338,2024 8 08,15:43:15.547,-0.268516,-0.601597,0.320546,-0.680611,-0.979767,-0.097115,-0.057669,0.45426,-0.593375,-0.005881,0,0
22339,2024 8 08,15:43:15.555,-0.268513,-0.60159,0.320532,-0.680624,-0.979964,-0.108351,0.021231,0.383019,-0.557727,-0.001123,0,0
22340,2024 8 08,15:43:15.563,-0.268511,-0.612571,0.342041,-0.66005,-0.980338,-0.09623,-0.061875,0.580442,-0.551007,0.084115,0,0
22341,2024 8 08,15:43:15.572,-0.268504,-0.601557,0.320434,-0.680703,-0.980465,-0.154284,-0.019213,0.693848,-0.632968,0.030769,0,0
22342,2024 8 08,15:43:15.580,-0.268493,-0.601532,0.320374,-0.680758,-0.981808,-0.092905,-0.046335,0.6005,-0.704047,-0.034348,0,0
22343,2024 8 08,15:43:15.588,-0.26849,-0.604295,0.321299,-0.67787,-0.982629,-0.113473,0.035399,0.317258,-0.969728,-0.095534,0,0
22344,2024 8 08,15:43:15.597,-0.268491,-0.603836,0.32109,-0.678377,-0.982223,-0.092754,-0.062801,0.255358,-1.228401,-0.23618,0,0
22345,2024 8 08,15:43:15.605,-0.268491,-0.603836,0.32109,-0.678377,-0.982028,-0.092037,-0.064411,0.246925,-1.314379,-0.288047,0,0
22346,2024 8 08,15:43:15.613,-0.268499,-0.601337,0.320263,-0.680979,-0.979784,-0.095939,-0.062297,0.166426,-1.335475,-0.379203,0,0
22347,2024 8 08,15:43:15.622,-0.268508,-0.609792,0.32214,-0.67252,-0.978564,-0.09632,-0.063853,0.056328,-1.418359,-0.414485,0,0
22348,2024 8 08,15:43:15.630,-0.268533,-0.601157,0.320242,-0.681135,-0.975744,-0.095309,-0.064644,-0.061206,-1.413787,-0.38543,0,0
22349,2024 8 08,15:43:15.638,-0.26855,-0.601072,0.320253,-0.681198,-0.977935,-0.096712,-0.066981,-0.521657,-0.989862,-0.485297,0,0
22350,2024 8 08,15:43:15.647,-0.268566,-0.600982,0.32028,-0.681259,-0.982958,-0.1036,0.04165,-0.302467,-1.141687,-0.385295,0,0
22351,2024 8 08,15:43:15.655,-0.268572,-0.610497,0.322347,-0.671756,-0.985002,-0.093256,-0.057008,-0.175835,-1.13276,-0.70581,0,0
22352,2024 8 08,15:43:15.663,-0.268588,-0.600851,0.320311,-0.681352,-0.983259,-0.095562,-0.058128,-0.2118,-1.517911,-0.834227,0,0
22353,2024 8 08,15:43:15.672,-0.268617,-0.600726,0.320343,-0.681435,-0.981209,-0.098697,-0.059655,-0.596524,-1.618558,-0.817562,0,0
22354,2024 8 08,15:43:15.680,-0.268652,-0.600594,0.32037,-0.681525,-0.977812,-0.099696,-0.063705,-0.592485,-1.710256,-0.729455,0,0
22355,2024 8 08,15:43:15.688,-0.26868,-0.600461,0.320393,-0.68162,-0.978891,-0.201212,-0.101194,-0.350554,-1.714949,-0.761387,0,0
22356,2024 8 08,15:43:15.697,-0.268699,-0.600336,0.320398,-0.681721,-0.976826,-0.094541,-0.093462,-0.098702,-1.710981,-0.642266,0,0
22357,2024 8 08,15:43:15.705,-0.26871,-0.601735,0.320865,-0.680262,-0.975146,-0.097181,-0.065907,0.059291,-1.709006,-0.550331,0,0
22358,2024 8 08,15:43:15.713,-0.268705,-0.600169,0.320396,-0.681866,-0.978457,-0.092891,-0.058786,0.001545,-0.995653,-0.549343,0,0
22359,2024 8 08,15:43:15.722,-0.268705,-0.600169,0.320396,-0.681866,-0.978542,-0.092781,-0.058603,6.3e-05,-0.97734,-0.549317,0,0
22360,2024 8 08,15:43:15.730,-0.268721,-0.611747,0.322636,-0.670418,-0.974854,-0.094622,-0.056289,3e-06,-1.553387,-0.722351,0,0
22361,2024 8 08,15:43:15.738,-0.268722,-0.599963,0.320404,-0.682037,-0.979655,-0.107978,-0.051651,0.056834,-1.64144,-0.731729,0,0
22362,2024 8 08,15:43:15.747,-0.268721,-0.611747,0.322636,-0.670418,-0.979085,-0.095886,-0.067023,-0.107352,-1.143289,-0.676351,0,0
22363,2024 8 08,15:43:15.755,-0.268712,-0.599776,0.320415,-0.6822,-0.978155,-0.099257,-0.073093,-0.010233,-1.213324,-0.782294,0,0
22364,2024 8 08,15:43:15.763,-0.268696,-0.599695,0.320424,-0.682273,-0.979374,-0.097832,-0.06713,0.053338,-1.002134,-0.737808,0,0
22365,2024 8 08,15:43:15.772,-0.268695,-0.612077,0.322868,-0.670016,-0.979504,-0.09768,-0.066495,0.060109,-0.97964,-0.73307,0,0
22366,2024 8 08,15:43:15.780,-0.268671,-0.599618,0.320426,-0.68235,-0.978249,-0.098509,-0.06642,0.166828,-0.924012,-0.785465,0,0
22367,2024 8 08,15:43:15.788,-0.268625,-0.599582,0.320435,-0.682395,-0.977667,-0.09402,-0.074351,0.180761,-0.133073,-0.792306,0,0
22368,2024 8 08,15:43:15.797,-0.268607,-0.599537,0.32047,-0.682426,-0.982946,-0.098331,-0.063106,-0.075016,-0.278434,-0.741727,0,0
22369,2024 8 08,15:43:15.805,-0.268582,-0.610563,0.322382,-0.671674,-0.975615,-0.102248,-0.057311,0.292769,-0.707731,-0.683095,0,0
22370,2024 8 08,15:43:15.813,-0.268561,-0.599447,0.320456,-0.68253,-0.981642,-0.210452,0.222633,0.45363,-0.728046,-0.171284,0,0
22371,2024 8 08,15:43:15.822,-0.268558,-0.599441,0.320453,-0.682537,-0.982696,-0.438779,-0.224085,0.481776,-0.7316,-0.081733,0,0
22372,2024 8 08,15:43:15.830,-0.268529,-0.599366,0.320459,-0.682612,-0.986025,-0.103524,-0.091319,-0.247279,-0.487502,-0.652551,0,0
22373,2024 8 08,15:43:15.838,-0.268495,-0.604226,0.321288,-0.677935,-0.984355,-0.096172,-0.082418,-0.196451,-0.584803,-0.812495,0,0
22374,2024 8 08,15:43:15.847,-0.268493,-0.601532,0.320374,-0.680758,-0.984012,-0.085237,-0.039025,0.004979,-0.939022,-0.845349,0,0
22375,2024 8 08,15:43:15.855,-0.268491,-0.603836,0.32109,-0.678377,-0.979033,-0.097589,-0.063261,0.048299,-1.392539,-0.852415,0,0
22376,2024 8 08,15:43:15.863,-0.268487,-0.60435,0.321315,-0.677814,-0.974187,-0.098016,-0.057089,0.244428,-1.680751,-0.760798,0,0
22377,2024 8 08,15:43:15.872,-0.268486,-0.598962,0.320507,-0.68296,-0.973054,-0.098115,-0.055647,0.29026,-1.748101,-0.739389,0,0
22378,2024 8 08,15:43:15.880,-0.268493,-0.601532,0.320374,-0.680758,-0.974236,-0.098139,-0.065127,-0.108197,-1.582409,-0.779703,0,0
22379,2024 8 08,15:43:15.888,-0.268497,-0.598777,0.320534,-0.683106,-0.971654,-0.101384,-0.06931,-0.07344,-1.360821,-0.699876,0,0
22380,2024 8 08,15:43:15.897,-0.268516,-0.601597,0.320546,-0.680611,-0.97205,-0.106638,-0.107716,-0.953729,-0.947476,-0.501255,0,0
22381,2024 8 08,15:43:15.905,-0.26853,-0.598612,0.320588,-0.683212,-0.982356,-0.097875,-0.074732,-0.090919,-1.320129,-0.49191,0,0
22382,2024 8 08,15:43:15.913,-0.268538,-0.598502,0.32059,-0.683304,-0.980685,-0.099808,-0.075411,-0.026165,-1.423198,-0.663208,0,0
22383,2024 8 08,15:43:15.922,-0.26854,-0.598471,0.32059,-0.68333,-0.98021,-0.100358,-0.075605,-0.007736,-1.452531,-0.711958,0,0
22384,2024 8 08,15:43:15.930,-0.26854,-0.598471,0.32059,-0.68333,-0.97701,-0.125991,0.01625,-0.002347,-1.631182,-0.683695,0,0
22385,2024 8 08,15:43:15.938,-0.268525,-0.598289,0.32057,-0.683506,-0.978068,-0.097837,-0.072227,0.167502,-1.432446,-0.717272,0,0
22386,2024 8 08,15:43:15.947,-0.268505,-0.598208,0.320565,-0.683586,-0.976729,-0.150652,-0.017197,0.178139,-1.080067,-0.685992,0,0
22387,2024 8 08,15:43:15.955,-0.268487,-0.60435,0.321315,-0.677814,-0.980589,-0.101409,-0.069416,0.099157,-1.092589,-0.799639,0,0
22388,2024 8 08,15:43:15.963,-0.268464,-0.598038,0.320565,-0.683751,-0.978573,-0.084821,-0.095933,0.155183,-1.259559,-0.795513,0,0
22389,2024 8 08,15:43:15.972,-0.268452,-0.609559,0.322075,-0.672784,-0.977575,-0.108579,-0.017447,0.182932,-1.342257,-0.79347,0,0
22390,2024 8 08,15:43:15.980,-0.268421,-0.597924,0.320564,-0.683868,-0.975503,-0.096683,-0.067873,0.389695,-0.929577,-0.896754,0,0
22391,2024 8 08,15:43:15.988,-0.268405,-0.609092,0.32209,-0.67322,-0.978397,-0.106856,-0.064618,-0.133641,-0.704622,-0.86398,0,0
22392,2024 8 08,15:43:15.997,-0.268373,-0.597781,0.320617,-0.683987,-0.958557,-0.107985,-0.045961,-0.038112,-0.973711,-0.90508,0,0
22393,2024 8 08,15:43:16.005,-0.268341,-0.608944,0.321959,-0.673441,-0.962711,-0.209056,-0.0533,1.083673,-1.576535,-0.964222,0,0
22394,2024 8 08,15:43:16.013,-0.268323,-0.597619,0.320572,-0.684169,-0.969703,-0.099962,-0.061498,0.641348,-1.455354,-0.78098,0,0
22395,2024 8 08,15:43:16.022,-0.26832,-0.597602,0.320572,-0.684186,-0.971082,-0.102306,-0.066403,0.502268,-1.408519,-0.736859,0,0
22396,2024 8 08,15:43:16.030,-0.268311,-0.615668,0.325122,-0.665776,-0.976881,-0.149549,-0.084398,-0.78693,-0.269482,-0.732884,0,0
22397,2024 8 08,15:43:16.038,-0.268285,-0.5975,0.320629,-0.684262,-0.976486,-0.146418,-0.014761,0.282619,-0.63029,-0.685848,0,0
22398,2024 8 08,15:43:16.047,-0.268256,-0.597439,0.32062,-0.684331,-0.975785,-0.104641,-0.069335,0.621348,-0.864433,-0.581271,0,0
22399,2024 8 08,15:43:16.055,-0.268224,-0.597382,0.320599,-0.684402,-0.97818,-0.105469,-0.071288,0.301419,-0.999084,-0.508438,0,0
22400,2024 8 08,15:43:16.063,-0.268188,-0.645325,0.349433,-0.624075,-0.97783,-0.1001,-0.06997,0.648707,-0.942221,-0.446581,0,0
22401,2024 8 08,15:43:16.072,-0.268179,-0.597317,0.320554,-0.684499,-0.977611,-0.098466,-0.069441,0.769848,-0.919881,-0.4304,0,0
22402,2024 8 08,15:43:16.080,-0.268162,-0.571424,0.341321,-0.696465,-0.974437,-0.099598,-0.071798,0.57135,-0.959885,-0.253395,0,0
22403,2024 8 08,15:43:16.088,-0.268147,-0.606324,0.321845,-0.675932,-0.976851,-0.100697,-0.07499,0.288407,-0.586115,-0.368242,0,0
22404,2024 8 08,15:43:16.097,-0.268141,-0.597192,0.320468,-0.684663,-0.978502,-0.099303,-0.068124,0.543596,-0.670688,-0.245762,0,0
22405,2024 8 08,15:43:16.105,-0.268138,-0.607133,0.321938,-0.675165,-0.977582,-0.102801,-0.068952,0.687162,-1.139421,-0.070051,0,0
22406,2024 8 08,15:43:16.113,-0.268136,-0.597092,0.320339,-0.684812,-0.979509,-0.102805,-0.074281,0.598361,-1.216208,-0.097938,0,0
22407,2024 8 08,15:43:16.122,-0.268142,-0.607069,0.321958,-0.675211,-0.977329,-0.073657,-0.037827,0.396552,-1.178753,-0.034773,0,0
22408,2024 8 08,15:43:16.130,-0.268145,-0.597017,0.320262,-0.68491,-0.97639,-0.155016,0.015776,0.326528,-1.164128,-0.008126,0,0
22409,2024 8 08,15:43:16.138,-0.268154,-0.607208,0.321944,-0.675089,-0.977772,-0.097431,-0.083661,0.230426,-0.721115,-0.081907,0,0
22410,2024 8 08,15:43:16.147,-0.268174,-0.596948,0.320216,-0.68498,-0.977403,-0.100248,-0.069735,0.15552,-0.546887,0.046026,0,0
22411,2024 8 08,15:43:16.155,-0.268186,-0.606169,0.321791,-0.676081,-0.977165,-0.102521,-0.069021,0.208856,-0.776805,0.024193,0,0
22412,2024 8 08,15:43:16.163,-0.26819,-0.607987,0.321877,-0.674404,-0.979264,-0.102015,-0.070536,0.273241,-0.801046,-0.032083,0,0
22413,2024 8 08,15:43:16.172,-0.268194,-0.607636,0.32193,-0.674694,-0.980156,-0.100775,-0.071692,0.296323,-0.948163,-0.014859,0,0
22414,2024 8 08,15:43:16.180,-0.268196,-0.596809,0.32008,-0.685156,-0.980401,-0.100293,-0.072104,0.30265,-1.012079,-0.00424,0,0
22415,2024 8 08,15:43:16.188,-0.2682,-0.596771,0.320044,-0.685204,-0.978083,-0.101351,-0.071921,0.416343,-1.030114,-0.001243,0,0
22416,2024 8 08,15:43:16.197,-0.268206,-0.605846,0.321618,-0.676445,-0.978222,-0.101842,-0.069166,0.503518,-1.10913,-0.000374,0,0
22417,2024 8 08,15:43:16.205,-0.268209,-0.596667,0.319942,-0.685339,-0.974358,-0.101113,-0.074357,0.498689,-1.180562,-0.000116,0,0
22418,2024 8 08,15:43:16.213,-0.268215,-0.608737,0.321821,-0.673744,-0.976012,-0.101621,-0.078669,0.311074,-0.630424,-3.7e-05,0,0
22419,2024 8 08,15:43:16.222,-0.268221,-0.596596,0.319848,-0.68544,-0.976494,-0.102485,-0.07457,0.510207,-0.690483,0.107135,0,0
22420,2024 8 08,15:43:16.230,-0.268224,-0.597382,0.320599,-0.684402,-0.97656,-0.10285,-0.072375,0.618122,-0.759427,0.158,0,0
22421,2024 8 08,15:43:16.238,-0.268225,-0.60875,0.321828,-0.673725,-0.976592,-0.10303,-0.071293,0.67131,-0.793408,0.183069,0,0
22422,2024 8 08,15:43:16.247,-0.268235,-0.596541,0.31973,-0.685537,-0.973712,-0.108316,-0.121818,0.971413,-1.153489,0.423127,0,0
22423,2024 8 08,15:43:16.255,-0.268246,-0.596516,0.319642,-0.685596,-0.978864,-0.10056,-0.07425,0.680938,-0.864011,0.308931,0,0
22424,2024 8 08,15:43:16.263,-0.268246,-0.596516,0.319642,-0.685596,-0.976232,-0.098259,-0.078413,0.904654,-0.854933,0.363556,0,0
22425,2024 8 08,15:43:16.272,-0.268249,-0.596474,0.319467,-0.685713,-0.977488,-0.097237,-0.079521,0.800177,-0.797172,0.36605,0,0
22426,2024 8 08,15:43:16.280,-0.268258,-0.596455,0.319392,-0.685762,-0.975754,-0.103957,-0.070545,0.511396,-0.680709,0.253175,0,0
22427,2024 8 08,15:43:16.288,-0.268258,-0.596455,0.319392,-0.685762,-0.975628,-0.098803,0.005825,0.490301,-0.672201,0.24493,0,0
22428,2024 8 08,15:43:16.297,-0.268255,-0.596437,0.319315,-0.685814,-0.975178,-0.105369,-0.072908,0.653223,-0.726382,0.24422,0,0
22429,2024 8 08,15:43:16.305,-0.268245,-0.596437,0.319216,-0.685863,-0.9734,-0.101562,-0.074506,0.885926,-0.677593,0.460739,0,0
22430,2024 8 08,15:43:16.313,-0.268241,-0.596442,0.319119,-0.685906,-0.975766,-0.101565,-0.07212,0.858423,-0.458553,0.53824,0,0
22431,2024 8 08,15:43:16.322,-0.26824,-0.596454,0.319005,-0.685949,-0.974793,-0.102408,-0.075198,1.065742,-0.536889,0.705834,0,0
22432,2024 8 08,15:43:16.330,-0.268249,-0.596474,0.319467,-0.685713,-0.976741,-0.104186,-0.071871,1.041777,-0.651417,0.83242,0,0
22433,2024 8 08,15:43:16.338,-0.26825,-0.605435,0.321455,-0.676873,-0.977026,-0.155834,-0.042291,1.038265,-0.668197,0.850967,0,0
22434,2024 8 08,15:43:16.347,-0.268267,-0.605356,0.32142,-0.676954,-0.973832,-0.150861,-0.097414,1.189564,-0.72146,1.056361,0,0
22435,2024 8 08,15:43:16.355,-0.268287,-0.596497,0.318589,-0.686087,-0.973293,-0.103368,-0.072094,1.314988,-0.730434,1.090967,0,0
22436,2024 8 08,15:43:16.363,-0.268315,-0.596505,0.318433,-0.686141,-0.973986,-0.101517,-0.074208,1.337445,-0.929366,1.195825,0,0
22437,2024 8 08,15:43:16.372,-0.268364,-0.596514,0.318276,-0.686187,-0.978015,-0.103894,-0.072659,1.146848,-0.918321,1.361818,0,0
22438,2024 8 08,15:43:16.380,-0.268422,-0.596523,0.318102,-0.686237,-0.976894,-0.102444,-0.077354,1.108844,-1.012337,1.587351,0,0
22439,2024 8 08,15:43:16.388,-0.268434,-0.596525,0.318066,-0.686247,-0.976659,-0.10214,-0.078336,1.100894,-1.032004,1.634531,0,0
22440,2024 8 08,15:43:16.397,-0.268489,-0.596544,0.317906,-0.686283,-0.979988,-0.09644,-0.080805,1.286936,-0.89547,1.785688,0,0
22441,2024 8 08,15:43:16.405,-0.26857,-0.596552,0.317726,-0.686328,-0.980376,-0.096624,-0.07877,1.004679,-1.235404,1.820165,0,0
22442,2024 8 08,15:43:16.413,-0.268658,-0.596554,0.317552,-0.686373,-0.981202,-0.093734,-0.078287,0.846053,-1.086853,1.736669,0,0
22443,2024 8 08,15:43:16.422,-0.268752,-0.601871,0.320929,-0.680095,-0.983217,-0.094473,-0.077806,0.580505,-1.276805,1.625517,0,0
22444,2024 8 08,15:43:16.430,-0.268844,-0.596536,0.317251,-0.686455,-0.987313,-0.09072,-0.078042,0.512843,-1.101306,1.462857,0,0
22445,2024 8 08,15:43:16.438,-0.268869,-0.596533,0.317214,-0.686464,-0.988391,-0.089732,-0.078104,0.495028,-1.055098,1.420029,0,0
22446,2024 8 08,15:43:16.447,-0.268932,-0.612734,0.342717,-0.659377,-0.987283,-0.084912,-0.084424,0.052491,-0.911238,0.926928,0,0
22447,2024 8 08,15:43:16.455,-0.269009,-0.59647,0.317131,-0.686503,-0.988359,-0.103498,-0.056174,-0.677243,-0.611306,0.269615,0,0
22448,2024 8 08,15:43:16.463,-0.269078,-0.596411,0.317211,-0.686489,-0.993805,-0.078342,-0.077447,-1.486426,-0.268199,-0.475931,0,0
22449,2024 8 08,15:43:16.472,-0.269107,-0.596337,0.317364,-0.686472,-0.997446,-0.074467,-0.075548,-1.767821,0.129531,-1.458271,0,0
22450,2024 8 08,15:43:16.480,-0.269131,-0.596209,0.3176,-0.686465,-0.991848,0.192616,-0.116352,-2.355667,-0.294401,-2.384169,0,0
22451,2024 8 08,15:43:16.488,-0.269138,-0.596169,0.317673,-0.686463,-0.99011,0.587124,0.247595,-2.538175,-0.426018,-2.671631,0,0
22452,2024 8 08,15:43:16.497,-0.269123,-0.596033,0.317917,-0.686473,-0.986934,-0.085665,-0.08582,-2.883144,-0.262856,-3.172939,0,0
22453,2024 8 08,15:43:16.505,-0.269089,-0.595843,0.31826,-0.686493,-0.984929,-0.086822,-0.095636,-3.319764,-0.331553,-3.863193,0,0
22454,2024 8 08,15:43:16.513,-0.26903,-0.595545,0.318844,-0.686504,-0.986015,-0.088649,-0.086347,-4.163006,0.155592,-4.780692,0,0
22455,2024 8 08,15:43:16.522,-0.268947,-0.595286,0.319319,-0.68654,-0.983063,-0.095436,-0.070086,-3.602042,-0.477048,-5.444771,0,0
22456,2024 8 08,15:43:16.530,-0.268831,-0.595011,0.319866,-0.686569,-1.009987,-0.086921,-0.132227,-4.04041,-0.301353,-5.954147,0,0
22457,2024 8 08,15:43:16.538,-0.268597,-0.594663,0.320474,-0.686679,-1.024106,-0.091052,-0.090165,-4.492933,0.350452,-7.78112,0,0
22458,2024 8 08,15:43:16.547,-0.268551,-0.594597,0.320587,-0.686701,-1.026238,-0.092201,-0.079424,-4.571709,0.478636,-8.150888,0,0
22459,2024 8 08,15:43:16.555,-0.268192,-0.594331,0.321102,-0.686832,-1.032191,0.855346,-0.07676,-2.351594,-0.238245,-10.208413,0,0
22460,2024 8 08,15:43:16.563,-0.267638,-0.593967,0.321869,-0.687003,-1.043114,-0.060936,-0.080686,-2.92305,0.68794,-12.980054,0,0
22461,2024 8 08,15:43:16.572,-0.266883,-0.593547,0.32286,-0.687195,-1.044871,-0.072218,-0.08927,-2.911348,1.556427,-16.465025,0,0
22462,2024 8 08,15:43:16.580,-0.265883,-0.593039,0.324093,-0.68744,-1.082417,-0.060482,-0.102936,-3.986873,2.161487,-20.621271,0,0
22463,2024 8 08,15:43:16.588,-0.264542,-0.592385,0.325531,-0.687842,-1.074759,-0.061489,-0.061755,-2.548978,1.429139,-26.02528,0,0
22464,2024 8 08,15:43:16.597,-0.264197,-0.592217,0.325896,-0.687947,-1.070985,-1.806411,-0.280208,-2.0917,1.198737,-27.413525,0,0
22465,2024 8 08,15:43:16.605,-0.262819,-0.591572,0.327347,-0.688339,-1.107496,-0.043597,-0.050897,-3.629409,2.189996,-32.555103,0,0
22466,2024 8 08,15:43:16.613,-0.260852,-0.59053,0.329583,-0.688914,-1.114627,-0.063456,-0.036848,-5.784057,1.929639,-40.175953,0,0
22467,2024 8 08,15:43:16.622,-0.258372,-0.589268,0.332294,-0.689625,-1.088431,-0.089092,-0.071465,-5.747046,3.14325,-48.097198,0,0
22468,2024 8 08,15:43:16.630,-0.255255,-0.588008,0.335287,-0.69041,-1.062911,-0.119053,-0.103136,-2.642186,6.776294,-54.571136,0,0
22469,2024 8 08,15:43:16.638,-0.251302,-0.587003,0.33851,-0.69114,-1.062332,-0.128124,-0.098517,2.247063,14.165088,-61.964462,0,0
22470,2024 8 08,15:43:16.647,-0.250062,-0.586708,0.339502,-0.69136,-1.063263,-0.129905,-0.09552,3.801282,16.57576,-64.271553,0,0
22471,2024 8 08,15:43:16.655,-0.246253,-0.586293,0.342088,-0.691799,-1.075995,-0.155682,-0.061572,8.040442,22.022764,-68.624725,0,0
22472,2024 8 08,15:43:16.663,-0.240646,-0.586072,0.345289,-0.692362,-1.09209,-0.169083,-0.003131,16.243469,28.200903,-74.564095,0,0
22473,2024 8 08,15:43:16.672,-0.23385,-0.58619,0.348497,-0.692977,-1.14096,-0.17786,0.05031,25.605438,34.31348,-80.44677,0,0
22474,2024 8 08,15:43:16.680,-0.226082,-0.58653,0.351542,-0.693723,-1.188735,-0.181987,0.102337,34.092812,37.090855,-85.725006,0,0
22475,2024 8 08,15:43:16.688,-0.217704,-0.586693,0.3543,-0.694855,-1.159957,-0.181301,0.162461,42.048149,32.923634,-90.193527,0,0
22476,2024 8 08,15:43:16.697,-0.214718,-0.58674,0.355261,-0.695275,-1.145749,-0.180836,0.184136,44.838028,31.107212,-91.733513,0,0
22477,2024 8 08,15:43:16.705,-0.208083,-0.58682,0.357042,-0.696301,-1.184459,-0.194238,0.128933,47.98568,33.860657,-93.518028,0,0
22478,2024 8 08,15:43:16.713,-0.199365,-0.586904,0.359086,-0.697714,-1.173475,-0.186868,0.165141,54.068546,33.58112,-95.161568,0,0
22479,2024 8 08,15:43:16.722,-0.189898,-0.586927,0.360971,-0.699352,-1.162502,-0.177697,0.156586,58.422165,32.104443,-96.064522,0,0
22480,2024 8 08,15:43:16.730,-0.180159,-0.586838,0.362673,-0.701116,-1.161192,-0.178451,0.173299,60.29451,30.723204,-96.591408,0,0
22481,2024 8 08,15:43:16.738,-0.170358,-0.586808,0.363964,-0.702916,-1.213489,-0.093498,0.147148,65.744057,29.940628,-92.629158,0,0
22482,2024 8 08,15:43:16.747,-0.166481,-0.586801,0.364452,-0.703629,-1.237306,-0.054678,0.13392,68.132851,29.665514,-90.795586,0,0
22483,2024 8 08,15:43:16.755,-0.159728,-0.586618,0.364372,-0.705379,-1.228254,0.049031,0.081238,74.261459,20.162083,-83.687737,0,0
22484,2024 8 08,15:43:16.763,-0.151752,-0.586114,0.3633,-0.708096,-1.096235,0.176762,0.077015,81.333221,9.126195,-73.176857,0,0
22485,2024 8 08,15:43:16.772,-0.143814,-0.585677,0.361376,-0.711087,-0.990114,0.297782,0.093375,84.422043,6.341645,-62.467838,0,0
22486,2024 8 08,15:43:16.780,-0.138808,-0.585411,0.360091,-0.712993,-0.927261,0.373463,0.104897,85.98671,5.378376,-55.715115,0,0
22487,2024 8 08,15:43:16.788,-0.131913,-0.585687,0.356907,-0.715671,-0.969267,-0.172364,-0.047364,86.057915,6.444897,-38.367729,0,0
22488,2024 8 08,15:43:16.797,-0.126423,-0.586028,0.353107,-0.718263,-0.884674,0.533647,0.040149,77.71785,1.123086,-22.294367,0,0
22489,2024 8 08,15:43:16.805,-0.12622,-0.58604,0.352967,-0.718359,-0.881546,0.534168,0.040046,77.409454,0.926296,-21.700005,0,0
22490,2024 8 08,15:43:16.813,-0.12253,-0.587001,0.3487,-0.720292,-0.879105,0.628164,0.034567,71.121643,3.368036,-2.169258,0,0
22491,2024 8 08,15:43:16.822,-0.119986,-0.588238,0.344233,-0.721859,-0.822752,0.643251,0.045001,60.880013,3.751168,9.605558,0,0
22492,2024 8 08,15:43:16.830,-0.118467,-0.589796,0.340059,-0.722816,-0.777132,0.620944,0.042715,48.502304,7.381583,17.948788,0,0
22493,2024 8 08,15:43:16.838,-0.117831,-0.591882,0.336203,-0.723019,-0.773847,0.61891,0.032894,37.489059,14.812164,26.6828,0,0
22494,2024 8 08,15:43:16.847,-0.118152,-0.594554,0.332617,-0.722432,-0.820039,0.607066,0.020673,26.436911,21.291855,36.367477,0,0
22495,2024 8 08,15:43:16.855,-0.118189,-0.594864,0.3322,-0.722364,-0.825398,0.605692,0.019255,25.154514,22.043701,37.491203,0,0
22496,2024 8 08,15:43:16.863,-0.119464,-0.597623,0.329224,-0.721238,-0.846626,0.582459,0.016977,16.082214,24.707569,45.652382,0,0
22497,2024 8 08,15:43:16.872,-0.121651,-0.600877,0.326056,-0.719604,-0.850003,0.534957,0.023278,8.456434,26.682182,53.099289,0,0
22498,2024 8 08,15:43:16.880,-0.124508,-0.604474,0.322959,-0.717495,-0.879494,0.47554,0.014023,1.897305,30.245646,59.682453,0,0
22499,2024 8 08,15:43:16.888,-0.127857,-0.608333,0.319785,-0.71506,-0.901594,0.416765,0.01736,-1.229443,32.434143,66.086624,0,0
22500,2024 8 08,15:43:16.897,-0.131558,-0.61246,0.316339,-0.712391,-0.918535,0.37281,0.01197,-1.520626,34.601761,72.362747,0,0
22501,2024 8 08,15:43:16.905,-0.132236,-0.613216,0.315708,-0.711903,-0.921637,0.364763,0.010983,-1.573939,34.998631,73.511848,0,0
22502,2024 8 08,15:43:16.913,-0.135575,-0.616957,0.312469,-0.709462,-0.952874,0.32714,0.016221,-0.129976,36.820461,78.339142,0,0
22503,2024 8 08,15:43:16.922,-0.139551,-0.621432,0.308404,-0.706552,-0.994461,0.288851,0.023032,2.030727,38.00465,83.485596,0,0
22504,2024 8 08,15:43:16.930,-0.14373,-0.626169,0.303794,-0.703519,-1.015425,0.260644,0.032049,4.997448,38.445995,88.601547,0,0
22505,2024 8 08,15:43:16.938,-0.148066,-0.631126,0.298743,-0.700342,-1.03504,0.22783,0.055736,7.292685,40.226273,93.991425,0,0
22506,2024 8 08,15:43:16.947,-0.152508,-0.636321,0.293275,-0.696987,-1.050665,0.190309,0.074151,9.671196,42.208466,99.118324,0,0
22507,2024 8 08,15:43:16.955,-0.157075,-0.641716,0.287419,-0.693453,-1.050776,0.14368,0.09136,11.749382,43.963127,104.185013,0,0
22508,2024 8 08,15:43:16.963,-0.158214,-0.643063,0.285958,-0.692571,-1.050804,0.120514,-0.007294,12.267915,44.400936,105.449211,0,0
22509,2024 8 08,15:43:16.972,-0.161984,-0.647676,0.280906,-0.689448,-1.057587,0.093021,0.094622,13.293351,48.035717,109.252731,0,0
22510,2024 8 08,15:43:16.980,-0.166293,-0.653335,0.274785,-0.685526,-1.076672,0.046301,0.09611,15.6822,51.957485,111.103951,0,0
22511,2024 8 08,15:43:16.988,-0.170488,-0.659289,0.268381,-0.681312,-1.090284,0.127326,0.051152,17.951027,54.64753,109.172234,0,0
22512,2024 8 08,15:43:16.997,-0.174296,-0.665322,0.261961,-0.676964,-1.0931,-0.074173,0.087512,21.049135,56.787399,105.910904,0,0
22513,2024 8 08,15:43:17.005,-0.177619,-0.671423,0.255512,-0.672525,-1.101761,-0.133197,0.078913,24.89068,59.92416,103.172699,0,0
22514,2024 8 08,15:43:17.013,-0.17861,-0.673243,0.253587,-0.671201,-1.104345,-0.15081,0.076347,26.037029,60.860199,102.355591,0,0
22515,2024 8 08,15:43:17.022,-0.180729,-0.678163,0.248416,-0.667594,-1.11915,-0.190899,0.057544,29.974474,63.148468,101.06295,0,0
22516,2024 8 08,15:43:17.030,-0.182924,-0.684038,0.242093,-0.663296,-1.136333,-0.224918,0.050332,34.715504,64.401848,100.451622,0,0
22517,2024 8 08,15:43:17.038,-0.184947,-0.690221,0.235285,-0.658754,-1.164052,-0.266853,0.031688,37.868362,64.926094,99.847382,0,0
22518,2024 8 08,15:43:17.047,-0.187486,-0.698539,0.225557,-0.652689,-1.137306,-0.317027,0.011959,42.582645,60.394855,99.075424,0,0
22519,2024 8 08,15:43:17.055,-0.189149,-0.704427,0.218138,-0.648387,-1.111109,-0.337871,0.016919,44.791813,59.852501,99.466835,0,0
22520,2024 8 08,15:43:17.063,-0.189397,-0.70531,0.217018,-0.647741,-1.107576,-0.340733,0.018029,45.094624,59.874729,99.545647,0,0
22521,2024 8 08,15:43:17.072,-0.190782,-0.71025,0.210745,-0.643985,-1.108266,-0.368175,-0.000436,43.948215,60.579269,100.252029,0,0
22522,2024 8 08,15:43:17.080,-0.192589,-0.715928,0.203337,-0.639523,-1.101686,-0.378429,0.001397,41.636086,59.581482,101.829948,0,0
22523,2024 8 08,15:43:17.088,-0.194671,-0.721454,0.195985,-0.634961,-1.102982,-0.387985,-0.007009,37.563179,57.832237,102.147049,0,0
22524,2024 8 08,15:43:17.097,-0.197004,-0.726523,0.189089,-0.630538,-1.085024,-0.41844,-0.018315,30.786737,53.379833,97.69619,0,0
22525,2024 8 08,15:43:17.105,-0.199441,-0.730997,0.183065,-0.626367,-1.04456,-0.463814,-0.036662,22.216003,48.803627,88.412468,0,0
22526,2024 8 08,15:43:17.113,-0.199984,-0.731971,0.181756,-0.625449,-1.034957,-0.474258,-0.040954,20.269682,47.797737,86.219368,0,0
22527,2024 8 08,15:43:17.122,-0.201919,-0.734926,0.178109,-0.622398,-1.010629,-0.518609,-0.053983,12.393721,45.147682,76.332161,0,0
22528,2024 8 08,15:43:17.130,-0.204328,-0.7381,0.17471,-0.618807,-1.025132,-0.591942,-0.069916,1.451132,42.424686,64.150986,0,0
22529,2024 8 08,15:43:17.138,-0.2069,-0.664947,0.031018,-0.71698,-1.010249,-0.678519,-0.089797,-9.383805,35.998772,52.368805,0,0
22530,2024 8 08,15:43:17.147,-0.209633,-0.742462,0.171331,-0.612734,-0.958166,-0.219406,-0.041525,-19.65736,28.449528,41.320034,0,0
22531,2024 8 08,15:43:17.155,-0.212456,-0.743634,0.171263,-0.610355,-0.931144,-0.904446,-0.113582,-28.337898,23.659567,31.560024,0,0
22532,2024 8 08,15:43:17.163,-0.213255,-0.743943,0.171281,-0.609699,-0.924785,-0.937489,-0.114137,-30.719305,22.429811,28.860798,0,0
22533,2024 8 08,15:43:17.172,-0.215344,-0.744261,0.17212,-0.608338,-0.915118,-1.012304,-0.110828,-35.153648,16.881594,20.704325,0,0
22534,2024 8 08,15:43:17.180,-0.217761,-0.744055,0.173865,-0.60723,-0.876277,-1.114262,-0.113712,-39.266693,8.018326,8.584435,0,0
22535,2024 8 08,15:43:17.188,-0.219888,-0.743239,0.176533,-0.606692,-0.851019,-1.208094,-0.122228,-42.286724,1.88168,-4.559398,0,0
22536,2024 8 08,15:43:17.197,-0.220688,-0.742673,0.179336,-0.606273,-3.195423,-1.882006,-0.766241,-17.210745,14.700547,-11.66577,0,0
22537,2024 8 08,15:43:17.205,-0.217815,-0.738573,0.18616,-0.610219,-1.587983,-1.317418,0.500468,-50.721931,-69.046532,-105.739609,0,0
22538,2024 8 08,15:43:17.213,-0.216684,-0.737027,0.188635,-0.611753,-0.836139,-1.06274,1.023204,-65.03907,-101.93454,-141.492264,0,0
22539,2024 8 08,15:43:17.222,-0.209415,-0.732471,0.192971,-0.618321,-1.48632,-0.163545,0.333077,40.295364,-94.831345,-153.920288,1,0
22540,2024 8 08,15:43:17.230,-0.205634,-0.724768,0.197557,-0.627137,-1.377275,-0.145466,0.509037,-18.972515,-117.85466,-103.778717,0,0
22541,2024 8 08,15:43:17.238,-0.204211,-0.717186,0.202467,-0.634713,-1.227908,-0.118722,0.225232,-23.778204,-105.716888,-85.860382,0,0
22542,2024 8 08,15:43:17.247,-0.20294,-0.709731,0.207033,-0.641988,-0.898608,0.107793,-0.12506,-25.179291,-98.697533,-83.653351,0,0
22543,2024 8 08,15:43:17.255,-0.201963,-0.703356,0.213087,-0.647317,-0.947694,-0.025266,-0.209543,-42.806419,-68.592125,-86.088516,0,0
22544,2024 8 08,15:43:17.263,-0.201612,-0.70101,0.215462,-0.649219,-0.989616,-0.097657,-0.226449,-50.315712,-55.800724,-87.192284,0,0
22545,2024 8 08,15:43:17.272,-0.201493,-0.696959,0.220562,-0.651892,-0.98898,-0.177999,-0.109424,-56.807785,-52.075714,-80.594749,0,0
22546,2024 8 08,15:43:17.280,-0.201738,-0.692143,0.226543,-0.654882,-0.983606,-0.149527,0.006409,-54.790031,-50.893955,-70.438797,0,0
22547,2024 8 08,15:43:17.288,-0.202188,-0.687024,0.232437,-0.658056,-0.964685,-0.104742,0.01388,-52.632172,-53.816673,-66.541046,0,0
22548,2024 8 08,15:43:17.297,-0.202037,-0.681575,0.238273,-0.661666,-0.958779,-0.068647,0.00384,-45.602989,-57.633842,-73.356644,0,0
22549,2024 8 08,15:43:17.305,-0.201588,-0.675704,0.244475,-0.665543,-0.948797,-0.073918,-0.016528,-49.167164,-60.530739,-78.957642,0,0
22550,2024 8 08,15:43:17.313,-0.201387,-0.673234,0.247083,-0.667171,-0.944232,-0.078659,-0.025657,-51.373981,-61.676373,-81.120392,0,0
22551,2024 8 08,15:43:17.322,-0.201288,-0.672001,0.248385,-0.667984,-0.941954,-0.081025,-0.030212,-52.47517,-62.248039,-82.199593,0,0
22552,2024 8 08,15:43:17.330,-0.201812,-0.665998,0.255143,-0.671281,-0.959475,-0.215359,-0.045553,-64.703934,-56.919365,-71.067055,0,0
22553,2024 8 08,15:43:17.338,-0.203225,-0.660479,0.260704,-0.674164,-0.846902,-0.308422,-0.414268,-52.316746,-54.842258,-50.839462,0,0
22554,2024 8 08,15:43:17.347,-0.204101,-0.656148,0.263989,-0.676846,-0.895508,-0.226661,-0.281062,-32.34317,-44.570286,-29.496782,0,0
22555,2024 8 08,15:43:17.355,-0.204918,-0.653675,0.264885,-0.678641,-0.891905,-0.183033,-0.212756,-7.289295,-28.398785,-7.710505,0,0
22556,2024 8 08,15:43:17.363,-0.205393,-0.652419,0.26487,-0.679711,-0.950662,-0.247162,-0.089384,-4.918493,-15.921919,-1.601371,0,0
22557,2024 8 08,15:43:17.372,-0.205709,-0.651747,0.265129,-0.680159,-0.95864,-0.10708,-0.091639,-3.61932,-6.564808,-3.075636,0,0
22558,2024 8 08,15:43:17.380,-0.205739,-0.651683,0.265154,-0.680202,-0.959407,-0.110429,-0.09352,-3.494453,-5.66547,-3.217332,0,0
22559,2024 8 08,15:43:17.388,-0.20544,-0.65166,0.265138,-0.68032,-0.958633,-0.078224,-0.055156,4.232561,1.824245,-2.750627,0,0
22560,2024 8 08,15:43:17.397,-0.204863,-0.65209,0.265121,-0.680088,-0.979675,-0.131976,0.006063,4.636958,8.487562,-2.852799,0,0
22561,2024 8 08,15:43:17.405,-0.203899,-0.652823,0.264959,-0.679738,-0.999562,-0.054465,0.024483,10.63306,11.716315,-3.648248,0,0
22562,2024 8 08,15:43:17.413,-0.202827,-0.65359,0.264876,-0.679354,-1.009421,-0.093335,0.027306,9.079052,11.872677,-4.791537,0,0
22563,2024 8 08,15:43:17.422,-0.201606,-0.654324,0.264636,-0.679104,-1.015419,-0.07297,0.046426,12.543645,10.170964,-5.070509,0,0
22564,2024 8 08,15:43:17.430,-0.201403,-0.654446,0.264597,-0.679062,-1.016415,-0.069587,0.049602,13.119143,9.888296,-5.116849,0,0
22565,2024 8 08,15:43:17.438,-0.200437,-0.654938,0.264296,-0.678991,-1.018966,-0.075322,0.054121,13.220852,7.414286,-4.481923,0,0
22566,2024 8 08,15:43:17.447,-0.199375,-0.655342,0.263918,-0.679061,-1.011627,-0.077176,0.028002,12.360617,4.557864,-4.656221,0,0
22567,2024 8 08,15:43:17.455,-0.198424,-0.655604,0.263581,-0.679217,-1.002461,-0.070981,0.016676,10.599028,2.692089,-4.738833,0,0
22568,2024 8 08,15:43:17.463,-0.197513,-0.655771,0.263322,-0.679422,-0.999039,-0.064743,0.014331,9.71016,1.78165,-5.565971,0,0
22569,2024 8 08,15:43:17.472,-0.196598,-0.655899,0.263159,-0.679626,-0.995661,-0.076195,0.01307,9.141008,1.960966,-6.451248,0,0
22570,2024 8 08,15:43:17.480,-0.196392,-0.655928,0.263123,-0.679672,-0.994898,-0.078784,0.012785,9.012356,2.001499,-6.651358,0,0
22571,2024 8 08,15:43:17.488,-0.195514,-0.65607,0.262957,-0.679853,-0.991409,-0.07976,0.010144,11.004204,2.562516,-7.020124,0,0
22572,2024 8 08,15:43:17.497,-0.194318,-0.656302,0.262705,-0.680068,-0.998188,-0.075275,0.026577,12.762257,3.426199,-7.882288,0,0
22573,2024 8 08,15:43:17.505,-0.192953,-0.656565,0.262395,-0.680323,-0.991283,-0.086352,0.007388,14.867936,3.375251,-8.504368,0,0
22574,2024 8 08,15:43:17.513,-0.191486,-0.656818,0.261979,-0.680654,-0.984506,-0.088538,0.004501,16.306046,3.095646,-8.26757,0,0
22575,2024 8 08,15:43:17.522,-0.18997,-0.65708,0.261466,-0.681022,-0.987242,-0.08667,0.022328,17.483845,2.493662,-8.203688,0,0
22576,2024 8 08,15:43:17.530,-0.189549,-0.657153,0.261323,-0.681125,-0.988002,-0.205061,-0.062123,17.811201,2.326347,-8.185932,0,0
22577,2024 8 08,15:43:17.538,-0.188362,-0.657309,0.260907,-0.681463,-0.988906,-0.179448,-0.045503,17.261156,1.549047,-8.266674,0,0
22578,2024 8 08,15:43:17.547,-0.187079,-0.657382,0.26052,-0.681893,-0.985776,-0.081856,0.012656,14.68049,0.005082,-8.672354,0,0
22579,2024 8 08,15:43:17.555,-0.185869,-0.657358,0.260172,-0.68238,-0.989535,-0.095077,0.024438,13.734851,-1.383803,-8.080925,0,0
22580,2024 8 08,15:43:17.563,-0.184662,-0.657224,0.259784,-0.682985,-0.990696,-0.09484,0.027081,13.73353,-3.557102,-8.645854,0,0
22581,2024 8 08,15:43:17.572,-0.183484,-0.656965,0.259368,-0.683709,-0.993364,-0.097396,0.024628,14.349505,-5.394792,-8.618993,0,0
22582,2024 8 08,15:43:17.580,-0.183103,-0.656881,0.259234,-0.683943,-0.994227,-0.098222,0.023835,14.548658,-5.988941,-8.610309,0,0
22583,2024 8 08,15:43:17.588,-0.181877,-0.656476,0.258714,-0.684855,-0.993818,-0.085657,0.037673,14.804513,-8.167442,-8.867584,0,0
22584,2024 8 08,15:43:17.597,-0.180668,-0.655964,0.258203,-0.685858,-0.987092,-0.084787,0.030092,15.809682,-9.918712,-10.14645,0,0
22585,2024 8 08,15:43:17.605,-0.179445,-0.655372,0.257747,-0.686916,-0.983888,-0.077237,0.016171,14.614285,-10.182245,-10.468554,0,0
22586,2024 8 08,15:43:17.613,-0.178309,-0.654727,0.257453,-0.687936,-0.989451,-0.089762,0.004994,11.958539,-9.992381,-11.146239,0,0
22587,2024 8 08,15:43:17.622,-0.177243,-0.654008,0.257311,-0.688948,-0.99106,0.373786,0.259643,10.612844,-10.838121,-12.168245,0,0
22588,2024 8 08,15:43:17.630,-0.177039,-0.653868,0.257287,-0.689143,-0.991227,-0.090817,0.025579,10.395032,-11.030531,-12.372287,0,0
22589,2024 8 08,15:43:17.638,-0.176228,-0.653201,0.257223,-0.690006,-0.988178,-0.098861,0.02011,10.282069,-12.002682,-12.675534,0,0
22590,2024 8 08,15:43:17.647,-0.175182,-0.652328,0.25712,-0.691136,-0.996104,-0.104238,0.015701,12.002281,-13.324826,-13.408174,0,0
22591,2024 8 08,15:43:17.655,-0.174162,-0.651391,0.257057,-0.692299,-0.997157,-0.110908,-0.033607,10.404865,-13.584173,-13.261158,0,0
22592,2024 8 08,15:43:17.663,-0.173164,-0.650375,0.257015,-0.693519,-0.988665,-0.110714,-0.037296,9.076342,-14.066186,-13.101966,0,0
22593,2024 8 08,15:43:17.672,-0.172172,-0.64933,0.257064,-0.694726,-0.982647,-0.092662,-0.054044,7.781817,-14.334908,-14.515751,0,0
22594,2024 8 08,15:43:17.680,-0.171917,-0.649061,0.25708,-0.695036,-0.981242,-0.087387,-0.059135,7.44626,-14.393622,-14.937899,0,0
22595,2024 8 08,15:43:17.688,-0.171179,-0.648234,0.257191,-0.695947,-0.99055,-0.101397,-0.046156,6.734174,-13.829546,-14.340846,0,0
22596,2024 8 08,15:43:17.697,-0.170216,-0.647246,0.257416,-0.697019,-0.995275,-0.077075,-0.064891,6.603218,-13.04021,-15.620779,0,0
22597,2024 8 08,15:43:17.705,-0.169255,-0.646258,0.257772,-0.698038,-1.012169,-0.093478,-0.065503,4.145858,-11.520778,-15.684649,0,0
22598,2024 8 08,15:43:17.713,-0.168276,-0.64529,0.258282,-0.69898,-1.010931,-0.096636,-0.035485,3.612723,-10.915139,-17.120939,0,0
22599,2024 8 08,15:43:17.722,-0.167157,-0.644314,0.258806,-0.699954,-1.025725,-0.109069,-0.06301,5.355775,-10.777921,-18.466486,0,0
22600,2024 8 08,15:43:17.730,-0.166802,-0.64401,0.258969,-0.700259,-1.031227,-0.11352,-0.074474,5.989547,-10.74992,-18.870399,0,0
22601,2024 8 08,15:43:17.738,-0.165674,-0.643197,0.259275,-0.70116,-1.018021,-0.155651,0.052445,10.169952,-12.173964,-21.449072,0,0
22602,2024 8 08,15:43:17.747,-0.164006,-0.642228,0.259672,-0.702291,-1.056449,-0.095207,-0.097754,12.454463,-10.694376,-23.862839,0,0
22603,2024 8 08,15:43:17.755,-0.161919,-0.641174,0.26013,-0.703567,-1.029994,-0.136322,0.020946,14.174662,-10.397636,-27.839359,0,0
22604,2024 8 08,15:43:17.763,-0.159526,-0.640172,0.260901,-0.704739,-1.055888,-0.105948,-0.082279,13.494992,-7.425043,-32.091255,0,0
22605,2024 8 08,15:43:17.772,-0.156604,-0.639153,0.261841,-0.705968,-1.075842,-0.095681,-0.047753,16.168968,-6.380135,-38.029388,0,0
22606,2024 8 08,15:43:17.780,-0.153148,-0.638134,0.263056,-0.707193,-1.113593,-0.110123,-0.048836,18.486254,-4.169512,-44.836166,0,0
22607,2024 8 08,15:43:17.788,-0.151857,-0.637761,0.263516,-0.707641,-1.12854,-0.116983,-0.051649,19.284155,-3.275091,-47.36375,0,0
22608,2024 8 08,15:43:17.797,-0.148782,-0.637,0.264652,-0.708552,-1.152236,-0.112246,-0.056641,20.48287,-2.049788,-52.427502,0,0
22609,2024 8 08,15:43:17.805,-0.144375,-0.635968,0.266343,-0.709751,-1.153045,-0.095879,-0.016708,22.016598,-0.731923,-60.235065,0,0
22610,2024 8 08,15:43:17.813,-0.139379,-0.634792,0.268583,-0.710953,-1.205223,-0.111924,-0.056027,20.378363,0.772991,-66.263138,0,0
22611,2024 8 08,15:43:17.822,-0.133956,-0.633476,0.271092,-0.712212,-1.19119,-0.087638,-0.083956,21.289461,0.903273,-72.917511,0,0
22612,2024 8 08,15:43:17.830,-0.127867,-0.631866,0.274411,-0.713481,-1.200343,-0.079757,-0.048384,17.082672,2.851863,-85.945122,0,0
22613,2024 8 08,15:43:17.838,-0.125353,-0.631195,0.27581,-0.713997,-1.206205,-0.077997,-0.030215,15.026213,3.770177,-91.629173,0,0
22614,2024 8 08,15:43:17.847,-0.120385,-0.629876,0.279031,-0.714755,-1.266226,-0.065296,-0.063045,14.789124,5.299788,-99.733902,0,0
22615,2024 8 08,15:43:17.855,-0.116961,-0.628968,0.28127,-0.715267,-1.309434,-0.056191,-0.088279,14.770583,6.343398,-105.202301,0,0
22616,2024 8 08,15:43:17.863,-0.109751,-0.626789,0.286303,-0.716324,-1.376641,-0.154791,-0.179354,7.3491,4.192971,-104.027176,0,0
22617,2024 8 08,15:43:17.872,-0.101243,-0.623976,0.291082,-0.718102,-1.442056,0.048446,0.071653,24.418098,-2.744301,-127.168701,0,0
22618,2024 8 08,15:43:17.880,-0.091523,-0.62031,0.298352,-0.719595,-1.57897,-0.035727,0.040652,11.524931,0.562951,-158.606354,0,0
22619,2024 8 08,15:43:17.888,-0.080338,-0.615673,0.30629,-0.721571,-1.669753,-0.019175,0.020857,16.11134,-9.689448,-173.101624,0,0
22620,2024 8 08,15:43:17.897,-0.079646,-0.615386,0.30678,-0.721693,-1.675368,-0.018152,0.019633,16.395002,-10.323547,-173.998138,0,0
22621,2024 8 08,15:43:17.905,-0.068272,-0.609877,0.31371,-0.724537,-1.742029,0.166414,0.127567,33.142063,-23.040585,-189.068756,0,0
22622,2024 8 08,15:43:17.913,-0.054853,-0.602825,0.323016,-0.727471,-1.913147,0.153351,-0.021995,19.829803,-25.369032,-221.023575,0,0
22623,2024 8 08,15:43:17.922,-0.039437,-0.594286,0.33413,-0.730455,-2.133556,0.251865,0.217884,19.133394,-28.845476,-256.663788,0,0
22624,2024 8 08,15:43:17.930,-0.02193,-0.584212,0.347734,-0.73294,-2.379336,0.105745,0.446689,9.570711,-33.821552,-300.87619,0,0
22625,2024 8 08,15:43:17.938,-0.002432,-0.571047,0.36341,-0.735995,-2.374824,0.022255,0.438367,8.056691,-60.77697,-342.367981,0,0
22626,2024 8 08,15:43:17.947,0.00024,-0.569243,0.365559,-0.736413,-2.374205,0.010814,0.437227,7.849223,-64.470695,-348.05365,0,0
22627,2024 8 08,15:43:17.955,0.017934,-0.554532,0.38069,-0.739659,-2.212403,-0.315533,0.196743,2.957023,-87.381355,-370.697021,0,0
22628,2024 8 08,15:43:17.963,0.03845,-0.536458,0.398697,-0.742646,-2.189426,-0.714675,0.063434,-6.560922,-90.176613,-386.631989,0,0
22629,2024 8 08,15:43:17.972,0.059758,-0.517487,0.416709,-0.744773,-2.329111,-0.757112,0.175954,-2.348176,-87.661072,-390.641693,0,1
22630,2024 8 08,15:43:17.980,0.080664,-0.498007,0.434252,-0.746042,-2.450852,-0.581657,0.213232,-4.540098,-92.375031,-384.327271,0,0
22631,2024 8 08,15:43:17.988,0.100277,-0.476579,0.450076,-0.748265,-2.14122,-0.169355,0.447467,13.318468,-125.163788,-373.496094,0,0
22632,2024 8 08,15:43:17.997,0.104221,-0.472271,0.453257,-0.748712,-2.078966,-0.086459,0.494561,16.909061,-131.756195,-371.31842,0,0
22633,2024 8 08,15:43:18.005,0.119646,-0.453267,0.465131,-0.750769,-1.79306,0.305476,0.506387,19.278379,-133.335678,-366.354187,0,0
22634,2024 8 08,15:43:18.013,0.137696,-0.431388,0.478148,-0.752309,-1.345505,0.639961,0.524734,25.047657,-124.501053,-365.213531,0,0
22635,2024 8 08,15:43:18.022,0.15784,-0.409047,0.490135,-0.753072,-0.929049,0.926385,0.690418,39.797054,-105.344414,-372.589722,0,0
22636,2024 8 08,15:43:18.030,0.181006,-0.387989,0.500846,-0.75192,-0.172701,0.543504,0.85916,58.04818,-55.391293,-383.7742,0,0
22637,2024 8 08,15:43:18.038,0.205358,-0.370678,0.508005,-0.749601,0.62622,-0.164402,0.644478,74.1866,-2.196281,-331.699341,0,0
22638,2024 8 08,15:43:18.047,0.211598,-0.366242,0.509839,-0.749007,0.830935,-0.345795,0.589468,78.321892,11.434353,-318.355713,0,0
22639,2024 8 08,15:43:18.055,0.22754,-0.363463,0.507101,-0.747546,-0.261937,0.391988,0.338071,115.559311,111.187546,-175.554581,0,0
22640,2024 8 08,15:43:18.063,0.240125,-0.367968,0.499695,-0.746399,-0.954511,0.770936,0.359619,100.778908,139.335327,-43.301025,0,0
22641,2024 8 08,15:43:18.072,0.24392,-0.376782,0.490007,-0.747206,-1.337879,1.054057,0.453462,70.747192,112.081085,75.953049,0,0
22642,2024 8 08,15:43:18.080,0.238333,-0.387016,0.480695,-0.74981,-1.337232,1.019656,0.391025,35.151527,55.070713,162.753815,0,0
22643,2024 8 08,15:43:18.088,0.225261,-0.396071,0.472724,-0.75414,-0.939102,0.881986,0.34038,3.205807,-5.669495,213.611938,0,0
22644,2024 8 08,15:43:18.097,0.221283,-0.398827,0.470299,-0.755457,-0.817955,0.840095,0.324969,-6.514977,-24.152176,229.087585,0,0
22645,2024 8 08,15:43:18.105,0.207466,-0.405427,0.464885,-0.759153,-0.457905,0.792294,0.273841,-18.106522,-25.942688,241.066696,0,0
22646,2024 8 08,15:43:18.113,0.191562,-0.414947,0.45841,-0.762062,-0.320147,0.65689,0.235597,-25.896147,6.18465,242.268356,0,0
22647,2024 8 08,15:43:18.122,0.176216,-0.426979,0.45112,-0.76343,-0.410656,0.540815,0.234467,-28.436039,40.310562,240.675812,0,0
22648,2024 8 08,15:43:18.130,0.156127,-0.445211,0.440231,-0.763894,-0.640181,0.470753,0.19854,-26.168924,67.033859,239.672089,0,0
22649,2024 8 08,15:43:18.138,0.141506,-0.459283,0.431333,-0.763487,-0.804636,0.428956,0.178233,-23.594311,66.197937,243.210098,0,0
22650,2024 8 08,15:43:18.147,0.139164,-0.461533,0.429898,-0.763416,-0.829906,0.421735,0.175429,-23.211153,65.755417,243.866028,0,0
22651,2024 8 08,15:43:18.155,0.126271,-0.472718,0.422029,-0.763155,-0.813121,0.360195,0.110901,-22.001759,56.244633,250.702698,0,0
22652,2024 8 08,15:43:18.163,0.110348,-0.485778,0.411991,-0.762889,-0.717333,0.302552,0.033008,-19.006018,54.429634,261.205078,0,0
22653,2024 8 08,15:43:18.172,0.09383,-0.49968,0.400947,-0.761989,-0.689373,0.251021,-0.017192,-17.404779,66.396736,274.546509,0,0
22654,2024 8 08,15:43:18.180,0.07687,-0.514789,0.388815,-0.760096,-0.756745,0.231288,-0.048482,-16.216846,82.49379,289.864349,0,0
22655,2024 8 08,15:43:18.188,0.059401,-0.53106,0.375643,-0.757063,-0.913833,0.224959,-0.07476,-17.557177,97.732384,304.112274,0,0
22656,2024 8 08,15:43:18.197,0.041267,-0.547875,0.361727,-0.753031,-1.054008,0.215659,-0.092553,-20.124723,104.435738,315.025909,0,0
22657,2024 8 08,15:43:18.205,0.036885,-0.551932,0.358358,-0.752031,-1.086712,0.213271,-0.096546,-20.772635,105.751183,317.538879,0,0
22658,2024 8 08,15:43:18.213,0.022289,-0.56501,0.347092,-0.74807,-1.187622,0.187375,-0.106085,-23.380711,106.737297,319.810577,0,0
22659,2024 8 08,15:43:18.222,0.003956,-0.580728,0.333011,-0.74268,-1.275798,0.128132,-0.123076,-25.83626,104.383789,320.794098,0,0
22660,2024 8 08,15:43:18.230,-0.0151,-0.596303,0.318401,-0.736552,-1.358607,0.060059,-0.125467,-28.102718,103.436394,321.92337,0,0
22661,2024 8 08,15:43:18.238,-0.034481,-0.611473,0.303459,-0.729719,-1.461,-0.022881,-0.095705,-29.813826,103.034668,325.067719,0,0
22662,2024 8 08,15:43:18.247,-0.05405,-0.626143,0.288001,-0.722301,-1.550576,-0.11617,-0.054368,-27.67791,101.904243,329.56488,0,0
22663,2024 8 08,15:43:18.255,-0.059883,-0.630491,0.283377,-0.72007,-1.576543,-0.144313,-0.041742,-26.873993,101.533432,330.951141,0,0
22664,2024 8 08,15:43:18.263,-0.074595,-0.641181,0.271004,-0.713885,-1.653702,-0.2109,-0.012236,-22.672337,103.543739,335.559845,0,0
22665,2024 8 08,15:43:18.272,-0.092966,-0.654458,0.254726,-0.705531,-1.782952,-0.286855,0.017828,-16.852463,106.300446,340.439117,0,0
22666,2024 8 08,15:43:18.280,-0.111739,-0.667921,0.237085,-0.696227,-1.887013,-0.370396,0.035876,-10.039455,108.106094,342.124451,0,0
22667,2024 8 08,15:43:18.288,-0.129965,-0.681038,0.218943,-0.686202,-1.9482,-0.533446,0.031954,-3.842946,111.627075,338.306793,0,0
22668,2024 8 08,15:43:18.297,-0.147056,-0.693833,0.200821,-0.675384,-1.989879,-0.79289,0.01593,2.668157,119.587471,329.448669,0,0
22669,2024 8 08,15:43:18.305,-0.152931,-0.698258,0.194536,-0.671594,-2.00362,-0.887349,0.009896,4.949824,122.567635,326.150513,0,0
22670,2024 8 08,15:43:18.313,-0.164123,-0.707577,0.181584,-0.662678,-2.073509,-1.079177,0.001228,8.747748,132.709717,318.099792,0,0
22671,2024 8 08,15:43:18.322,-0.17746,-0.719255,0.165663,-0.65063,-2.242894,-1.314003,0.009816,9.589092,141.842163,308.010864,0,0
22672,2024 8 08,15:43:18.330,-0.190965,-0.730699,0.149816,-0.63773,-2.377198,-1.588558,0.034006,2.96784,137.203354,294.440216,0,0
22673,2024 8 08,15:43:18.338,-0.204304,-0.740436,0.1351,-0.625553,-2.247989,-1.861839,-0.033235,-7.717561,116.735451,275.31427,0,0
22674,2024 8 08,15:43:18.347,-0.217101,-0.748214,0.122331,-0.614567,-1.903318,-2.119465,-0.239118,-21.179619,100.715637,246.562531,0,0
22675,2024 8 08,15:43:18.355,-0.222059,-0.751145,0.117459,-0.610348,-1.758512,-2.219016,-0.326739,-26.564318,94.858932,234.830856,0,0
22676,2024 8 08,15:43:18.363,-0.230341,-0.75549,0.111295,-0.603023,-1.496271,-2.375601,-0.638164,-39.688744,96.789986,203.902481,0,0
22677,2024 8 08,15:43:18.372,-0.239837,-0.759908,0.106814,-0.594514,-1.236916,-2.572242,-1.086943,-59.954315,93.510178,155.000443,0,0
22678,2024 8 08,15:43:18.380,-0.248856,-0.763087,0.107036,-0.586663,-1.450274,-3.164293,-1.261742,-91.683487,90.859772,93.143845,0,0
22679,2024 8 08,15:43:18.388,-0.256355,-0.764984,0.11231,-0.579951,-1.691671,-3.556655,-0.949226,-110.239304,84.026306,33.573174,0,0
22680,2024 8 08,15:43:18.397,-0.260965,-0.766079,0.116073,-0.5758,-1.840337,-3.780063,-0.708531,-120.561218,79.272125,-3.769482,0,0
22681,2024 8 08,15:43:18.405,-0.264935,-0.763259,0.125631,-0.575724,-1.292558,-3.517651,-0.29015,-106.623489,-16.499435,-51.497223,0,0
22682,2024 8 08,15:43:18.413,-0.265034,-0.763189,0.125868,-0.575722,-1.278927,-3.511121,-0.279739,-106.276649,-18.88269,-52.684917,0,0
22683,2024 8 08,15:43:18.422,-0.265797,-0.757009,0.13389,-0.581683,-0.522414,-2.920676,-0.078905,-69.146469,-72.717575,-84.653053,0,0
22684,2024 8 08,15:43:18.430,-0.262996,-0.752749,0.142577,-0.5864,-0.641238,-2.158319,-0.060434,-35.764824,-25.485546,-106.098709,0,0
22685,2024 8 08,15:43:18.438,-0.25025,-0.755191,0.142482,-0.58885,-0.859098,0.023984,-1.925728,192.217712,37.441631,-83.601807,0,0
22686,2024 8 08,15:43:18.447,-0.235969,-0.74826,0.152311,-0.600977,-1.391646,0.752492,0.799197,76.433319,-74.482834,-247.018158,0,0
22687,2024 8 08,15:43:18.455,-0.22487,-0.736665,0.165807,-0.615777,-1.126191,0.335763,0.975858,-31.514473,-187.845749,-255.78212,0,0
22688,2024 8 08,15:43:18.463,-0.223695,-0.735437,0.167235,-0.617344,-1.098092,0.291651,0.994558,-42.941013,-199.845505,-256.709808,0,0
22689,2024 8 08,15:43:18.472,-0.218673,-0.723074,0.184322,-0.628712,-1.42633,-0.277031,-0.539751,-114.934143,-146.251953,-265.298737,1,0
22690,2024 8 08,15:43:18.480,-0.216856,-0.709953,0.206556,-0.637289,-1.451412,-1.177851,-0.50655,-168.25824,-86.744217,-239.070892,0,0
22691,2024 8 08,15:43:18.488,-0.215179,-0.701148,0.224112,-0.641691,-1.420293,-1.255786,-0.210887,-102.806343,-50.002361,-165.096939,0,0
22692,2024 8 08,15:43:18.497,-0.212415,-0.693974,0.232807,-0.647326,-1.137758,-0.319079,0.148308,-43.933338,-75.547791,-104.514877,0,0
22693,2024 8 08,15:43:18.505,-0.2127,-0.686579,0.240505,-0.652294,-0.93511,0.0562,0.021376,-74.044464,-76.513893,-93.892914,0,0
22694,2024 8 08,15:43:18.513,-0.21275,-0.685289,0.241847,-0.653161,-0.899768,0.12165,-0.000762,-79.295998,-76.682388,-92.04039,0,0
22695,2024 8 08,15:43:18.522,-0.213802,-0.678169,0.251192,-0.656688,-0.875209,-0.302816,-0.306999,-97.117264,-73.578522,-114.622742,0,0
22696,2024 8 08,15:43:18.530,-0.212565,-0.670769,0.25965,-0.661377,-0.93892,-0.329849,-0.230869,-50.573132,-67.748924,-102.530212,0,0
22697,2024 8 08,15:43:18.538,-0.21132,-0.665561,0.26296,-0.665731,-0.928275,-0.185931,-0.024915,-9.694008,-59.626595,-49.78928,0,0
22698,2024 8 08,15:43:18.547,-0.211203,-0.660912,0.264819,-0.669658,-0.901447,-0.249452,-0.099292,-17.961845,-63.075726,-39.512024,0,0
22699,2024 8 08,15:43:18.555,-0.210728,-0.655996,0.267617,-0.673517,-0.944682,-0.098414,-0.15475,-18.041731,-56.107506,-48.215027,0,0
22700,2024 8 08,15:43:18.563,-0.210617,-0.654849,0.268269,-0.674417,-0.954764,-0.348517,-0.068429,-18.06036,-54.482559,-50.244522,0,0
22701,2024 8 08,15:43:18.572,-0.210599,-0.652322,0.269294,-0.676461,-0.939355,-0.116959,-0.153692,-7.044847,-37.786667,-26.100368,0,0
22702,2024 8 08,15:43:18.580,-0.210308,-0.650235,0.26994,-0.678302,-0.935848,-0.140896,-0.158462,-3.470078,-27.655203,-18.780563,0,0
22703,2024 8 08,15:43:18.588,-0.209811,-0.648916,0.270025,-0.679685,-0.953447,-0.083036,-0.06288,5.511115,-16.616222,-10.785036,0,0
22704,2024 8 08,15:43:18.597,-0.209214,-0.648088,0.270119,-0.680622,-0.976111,-0.074923,-0.040436,4.002536,-10.447134,-10.358249,0,0
22705,2024 8 08,15:43:18.605,-0.208297,-0.647551,0.270216,-0.681375,-1.01334,-0.058764,0.011,8.066097,-6.046762,-12.45872,0,0
22706,2024 8 08,15:43:18.613,-0.207136,-0.647074,0.270382,-0.682116,-0.990195,-0.08652,-0.000538,9.091785,-5.18345,-14.303033,0,0
22707,2024 8 08,15:43:18.622,-0.206796,-0.646935,0.27043,-0.682332,-0.983436,-0.094625,-0.003907,9.391298,-4.931353,-14.841594,0,0
22708,2024 8 08,15:43:18.630,-0.205709,-0.651747,0.265129,-0.680159,-0.992184,-0.093687,-0.00862,10.911855,-4.897885,-14.708417,0,0
22709,2024 8 08,15:43:18.638,-0.204446,-0.646189,0.270523,-0.683709,-0.991874,-0.158397,-0.092759,11.254068,-5.137391,-13.918148,0,0
22710,2024 8 08,15:43:18.647,-0.203162,-0.602647,0.335877,-0.694786,-0.988811,-0.08112,-0.019939,11.732414,-5.295104,-13.21649,0,0
22711,2024 8 08,15:43:18.655,-0.202008,-0.645316,0.270511,-0.68526,-0.978695,-0.09249,-0.009233,9.277873,-5.71266,-12.82771,0,0
22712,2024 8 08,15:43:18.663,-0.200581,-0.644616,0.27075,-0.686245,-0.958149,-0.107357,-0.045095,6.908224,-6.076791,-12.425321,0,0
22713,2024 8 08,15:43:18.672,-0.200441,-0.644539,0.270787,-0.686343,-0.955648,-0.108858,-0.051622,6.717887,-6.102963,-12.390864,0,0
22714,2024 8 08,15:43:18.680,-0.19965,-0.644169,0.270845,-0.686898,-1.004062,-0.239622,-0.030984,7.935777,-4.932636,-11.270209,0,0
22715,2024 8 08,15:43:18.688,-0.198434,-0.643678,0.270916,-0.687683,-0.964277,-0.121512,-0.021446,9.620831,-5.914858,-11.359371,0,0
22716,2024 8 08,15:43:18.697,-0.197469,-0.643394,0.270744,-0.688293,-0.982449,-0.103186,0.005977,10.915945,-4.616922,-8.297363,0,0
22717,2024 8 08,15:43:18.705,-0.196548,-0.643149,0.270437,-0.688906,-0.979287,-0.078738,-0.028601,10.273332,-4.250462,-7.040546,0,0
22718,2024 8 08,15:43:18.713,-0.195583,-0.642851,0.27003,-0.689618,-0.982716,-0.088551,0.00912,12.296986,-6.422785,-7.622429,0,0
22719,2024 8 08,15:43:18.722,-0.195376,-0.642786,0.269941,-0.689772,-0.983793,-0.086648,0.013201,12.818242,-6.957332,-7.792828,0,0
22720,2024 8 08,15:43:18.730,-0.194587,-0.642469,0.269622,-0.690415,-0.996221,-0.069655,0.02631,12.358158,-7.291859,-8.416824,0,0
22721,2024 8 08,15:43:18.738,-0.193614,-0.642031,0.269343,-0.691205,-1.004329,-0.134341,-0.014784,11.351961,-7.695449,-9.594227,0,0
22722,2024 8 08,15:43:18.747,-0.192626,-0.641447,0.269189,-0.692082,-0.986115,-0.109968,0.003662,9.455563,-8.613331,-10.30775,0,0
22723,2024 8 08,15:43:18.755,-0.191839,-0.640867,0.269207,-0.692831,-0.990196,-0.107104,-0.015605,7.373925,-8.238942,-9.976509,0,0
22724,2024 8 08,15:43:18.763,-0.191096,-0.640219,0.269228,-0.693626,-0.990884,-0.085502,-0.009136,6.158065,-8.88195,-10.11624,0,0
22725,2024 8 08,15:43:18.772,-0.190893,-0.640039,0.269233,-0.693847,-0.990776,-0.078599,-0.006024,5.860714,-9.107881,-10.179584,0,0
22726,2024 8 08,15:43:18.780,-0.190308,-0.639464,0.269272,-0.694522,-0.984899,-0.084998,0.001056,7.145002,-10.654021,-11.43947,0,0
22727,2024 8 08,15:43:18.788,-0.189681,-0.638687,0.269401,-0.695358,-0.972381,-0.103321,-0.026926,4.607685,-10.614795,-11.223297,0,0
22728,2024 8 08,15:43:18.797,-0.188992,-0.637789,0.269591,-0.696295,-0.984812,-0.096875,-0.010431,5.298892,-11.991671,-12.469099,0,0
22729,2024 8 08,15:43:18.805,-0.188381,-0.636833,0.26986,-0.697231,-0.97991,-0.11124,-0.050118,2.539284,-12.206285,-12.353961,0,0
22730,2024 8 08,15:43:18.813,-0.187647,-0.63578,0.270207,-0.698255,-0.981596,-0.10531,0.022489,3.844626,-13.599788,-14.902861,0,0
22731,2024 8 08,15:43:18.822,-0.187401,-0.635431,0.270323,-0.698593,-0.982627,-0.078593,0.011444,4.500317,-14.123094,-15.877834,0,0
22732,2024 8 08,15:43:18.830,-0.186978,-0.634667,0.270763,-0.699231,-1.021578,-0.097507,-0.03643,0.932101,-12.164063,-15.022679,0,0
22733,2024 8 08,15:43:18.838,-0.186266,-0.633597,0.271318,-0.700175,-1.011276,-0.083166,-0.049628,1.953302,-13.744916,-17.536137,0,0
22734,2024 8 08,15:43:18.847,-0.185462,-0.632405,0.27193,-0.701227,-1.031324,-0.110248,-0.107241,1.101192,-13.410178,-17.981115,0,0
22735,2024 8 08,15:43:18.855,-0.184405,-0.63112,0.272509,-0.702437,-1.015249,-0.096214,-0.073137,4.089343,-14.776851,-20.547291,0,0
22736,2024 8 08,15:43:18.863,-0.183199,-0.629877,0.273201,-0.703599,-1.032111,-0.08446,-0.091852,4.650145,-13.099838,-22.347591,0,0
22737,2024 8 08,15:43:18.872,-0.182745,-0.629418,0.273465,-0.704027,-1.040596,-0.08063,-0.102639,4.685586,-12.286813,-22.952396,0,0
22738,2024 8 08,15:43:18.880,-0.181575,-0.628519,0.273981,-0.70493,-1.032834,-0.096572,-0.077908,6.823088,-12.468326,-25.511583,0,0
22739,2024 8 08,15:43:18.888,-0.179812,-0.627412,0.274729,-0.706075,-1.057958,-0.102639,-0.094506,9.026263,-10.886321,-29.169302,0,0
22740,2024 8 08,15:43:18.897,-0.177482,-0.626214,0.275518,-0.707417,-1.069905,-0.115654,-0.079243,13.709373,-10.481902,-33.93705,0,0
22741,2024 8 08,15:43:18.905,-0.174484,-0.624987,0.276348,-0.708921,-1.119205,-0.109825,-0.105182,18.54771,-9.289688,-39.908451,0,0
22742,2024 8 08,15:43:18.913,-0.170738,-0.623679,0.277284,-0.710614,-1.134804,-0.100785,-0.069428,22.99613,-8.422506,-47.575314,0,0
22743,2024 8 08,15:43:18.922,-0.169155,-0.623136,0.277676,-0.711322,-1.138727,-0.097055,-0.050395,24.804665,-8.095634,-50.826977,0,0
22744,2024 8 08,15:43:18.930,-0.168375,-0.622868,0.277869,-0.71167,-1.140659,-0.095219,-0.041023,25.695267,-7.934667,-52.428238,0,0
22745,2024 8 08,15:43:18.938,-0.163336,-0.621557,0.279259,-0.713444,-1.231466,-0.083206,-0.042458,29.719479,-4.091051,-62.758648,0,0
22746,2024 8 08,15:43:18.947,-0.157478,-0.620202,0.280941,-0.715277,-1.193631,-0.063618,-0.10115,32.444427,-2.433482,-72.561867,0,0
22747,2024 8 08,15:43:18.955,-0.150933,-0.618747,0.283343,-0.716997,-1.24234,-0.086321,-0.040962,27.168491,3.675508,-82.415131,0,0
22748,2024 8 08,15:43:18.963,-0.143677,-0.617195,0.286499,-0.718569,-1.282637,-0.042344,0.077447,29.399393,4.868136,-95.196884,0,0
22749,2024 8 08,15:43:18.972,-0.13572,-0.615618,0.290287,-0.719945,-1.337946,-0.053331,-0.101549,28.908508,9.406197,-106.072235,0,0
22750,2024 8 08,15:43:18.980,-0.135145,-0.615504,0.290561,-0.720045,-1.341946,-0.054125,-0.114497,28.872999,9.734465,-106.858917,0,0
22751,2024 8 08,15:43:18.988,-0.126757,-0.613779,0.294659,-0.721369,-1.384055,-0.022099,-0.049216,27.276278,13.059804,-121.049515,0,0
22752,2024 8 08,15:43:18.997,-0.11674,-0.611601,0.30002,-0.722693,-1.504807,0.047375,-0.058844,29.178562,14.416023,-138.91655,0,0
22753,2024 8 08,15:43:19.005,-0.10643,-0.608895,0.305931,-0.724087,-1.586575,-0.044984,-0.101809,24.098297,8.259945,-141.427841,0,0
22754,2024 8 08,15:43:19.013,-0.09434,-0.604943,0.312299,-0.726345,-1.691924,0.153287,0.10632,30.644253,-0.192094,-175.79071,0,0
22755,2024 8 08,15:43:19.022,-0.080894,-0.599549,0.321442,-0.728433,-1.908727,0.121696,0.032781,19.406166,-3.357046,-212.03363,0,0
22756,2024 8 08,15:43:19.030,-0.066281,-0.592474,0.331166,-0.731322,-1.995381,0.22343,0.088156,25.36211,-21.884373,-228.920837,0,0
22757,2024 8 08,15:43:19.038,-0.063986,-0.591363,0.332694,-0.731775,-2.008991,0.239408,0.096853,26.297527,-24.794203,-231.573074,0,0
22758,2024 8 08,15:43:19.047,-0.050628,-0.58347,0.341944,-0.734845,-2.125281,0.276493,0.096713,20.254522,-36.582932,-255.768692,0,0
22759,2024 8 08,15:43:19.055,-0.034017,-0.572544,0.355038,-0.738128,-2.325731,0.219923,0.285465,4.119619,-46.832321,-300.91214,0,0
22760,2024 8 08,15:43:19.063,-0.015374,-0.55814,0.37182,-0.741451,-2.424023,0.028295,0.326563,-15.25634,-71.628899,-352.964813,0,0
22761,2024 8 08,15:43:19.072,0.004095,-0.540328,0.390565,-0.745086,-2.262555,-0.359132,0.205714,-23.057056,-98.175201,-378.769379,0,0
22762,2024 8 08,15:43:19.080,0.023871,-0.520747,0.410053,-0.748134,-2.395104,-0.773227,0.082348,-30.723862,-102.098045,-390.953979,0,0
22763,2024 8 08,15:43:19.088,0.028187,-0.516473,0.414307,-0.748799,-2.424033,-0.863603,0.055423,-32.397148,-102.954208,-393.613281,0,0
22764,2024 8 08,15:43:19.097,0.044746,-0.499346,0.429863,-0.750724,-2.469606,-0.853353,0.197082,-23.448742,-107.697647,-393.893616,0,1
22765,2024 8 08,15:43:19.105,0.063529,-0.478624,0.446117,-0.753289,-2.3971,-0.434085,0.321616,-1.791632,-121.296021,-381.759674,0,0
22766,2024 8 08,15:43:19.113,0.082086,-0.455794,0.461403,-0.756392,-1.981096,-0.013415,0.336975,3.528065,-140.955139,-375.334076,0,0
22767,2024 8 08,15:43:19.122,0.100452,-0.43222,0.475443,-0.75929,-1.449789,0.426954,0.394293,17.292652,-137.710693,-367.426788,0,0
22768,2024 8 08,15:43:19.130,0.119789,-0.409202,0.487939,-0.761297,-1.066679,0.762063,0.496181,26.934868,-119.095238,-367.917572,0,0
22769,2024 8 08,15:43:19.138,0.125032,-0.40296,0.491327,-0.761841,-0.962794,0.852932,0.523809,29.549465,-114.04744,-368.050659,0,0
22770,2024 8 08,15:43:19.147,0.142414,-0.386006,0.5,-0.761835,-0.381849,0.780259,0.833303,42.405865,-75.826065,-371.812286,0,0
22771,2024 8 08,15:43:19.155,0.164427,-0.36938,0.507155,-0.760838,0.499106,-0.046529,0.883141,65.200935,-23.816158,-337.215393,0,0
22772,2024 8 08,15:43:19.163,0.183732,-0.360369,0.508168,-0.760135,-0.278065,-0.000678,0.217987,105.985489,54.436291,-196.362259,0,0
22773,2024 8 08,15:43:19.172,0.197328,-0.360696,0.501994,-0.76076,-0.945065,-0.253504,-0.079376,110.407921,97.436096,-64.226151,0,0
22774,2024 8 08,15:43:19.180,0.202045,-0.365936,0.492724,-0.763124,-1.215235,0.881929,0.447023,97.8908,76.607918,51.411697,0,0
22775,2024 8 08,15:43:19.188,0.203542,-0.367599,0.489782,-0.763874,-1.300977,0.993462,0.493795,93.918312,69.997803,88.111023,0,0
22776,2024 8 08,15:43:19.197,0.198643,-0.372811,0.482403,-0.767309,-1.237225,0.914373,0.420319,67.543961,21.579002,140.123962,0,0
22777,2024 8 08,15:43:19.205,0.184816,-0.379241,0.471932,-0.774119,-0.673633,0.850779,0.322367,31.869232,-44.118355,181.989914,0,0
22778,2024 8 08,15:43:19.213,0.171245,-0.384028,0.465256,-0.778905,-0.187097,0.734115,0.293733,12.583696,-34.096313,183.530472,0,0
22779,2024 8 08,15:43:19.222,0.158643,-0.390724,0.458977,-0.781963,-0.08916,0.609732,0.269956,2.317344,-1.383446,182.091858,0,0
22780,2024 8 08,15:43:19.230,0.147086,-0.399568,0.452511,-0.783516,-0.239457,0.551164,0.271058,-2.527922,29.862692,183.384155,0,0
22781,2024 8 08,15:43:19.238,0.145001,-0.401231,0.451326,-0.783766,-0.272001,0.542188,0.271917,-3.299524,35.471371,183.692856,0,0
22782,2024 8 08,15:43:19.247,0.135885,-0.410134,0.445841,-0.783901,-0.453571,0.558232,0.258418,-8.823506,50.282963,187.974777,0,0
22783,2024 8 08,15:43:19.255,0.124442,-0.42145,0.439284,-0.783487,-0.624697,0.508647,0.230408,-16.465145,56.148243,194.708115,0,0
22784,2024 8 08,15:43:19.263,0.11193,-0.433173,0.432628,-0.782674,-0.65466,0.42532,0.191935,-23.153458,54.818085,204.038742,0,0
22785,2024 8 08,15:43:19.272,0.098435,-0.44532,0.425731,-0.781441,-0.617206,0.335011,0.146501,-28.257612,57.947643,216.915176,0,0
22786,2024 8 08,15:43:19.280,0.084159,-0.458375,0.41819,-0.779615,-0.613211,0.286643,0.112773,-29.698309,67.667961,231.722229,0,0
22787,2024 8 08,15:43:19.288,0.080588,-0.461649,0.416294,-0.779142,-0.613705,0.276187,0.104855,-29.929289,70.29628,235.454285,0,0
22788,2024 8 08,15:43:19.297,0.06887,-0.472969,0.409642,-0.77694,-0.684009,0.236194,0.089466,-30.274132,81.766853,247.973343,0,0
22789,2024 8 08,15:43:19.305,0.053875,-0.487898,0.400618,-0.773544,-0.818241,0.202292,0.08666,-29.583637,92.982246,261.642365,0,0
22790,2024 8 08,15:43:19.313,0.037997,-0.503761,0.390433,-0.769488,-0.937246,0.166949,0.062853,-27.047031,98.497589,272.452362,0,0
22791,2024 8 08,15:43:19.322,0.02166,-0.519845,0.379292,-0.76496,-1.033126,0.136108,0.048521,-22.904444,100.660591,281.00412,0,0
22792,2024 8 08,15:43:19.330,0.005051,-0.535833,0.367246,-0.760061,-1.100903,0.097414,0.042145,-17.599106,100.510872,288.149261,0,0
22793,2024 8 08,15:43:19.338,-1.7e-05,-0.540697,0.363541,-0.758555,-1.120395,0.085237,0.040479,-15.939492,100.377007,290.273682,0,0
22794,2024 8 08,15:43:19.347,-0.012576,-0.55248,0.353653,-0.754544,-1.14719,0.054664,0.022634,-11.553062,100.76223,294.136597,0,0
22795,2024 8 08,15:43:19.355,-0.028401,-0.56727,0.340488,-0.749101,-1.193993,0.037873,0.00565,-6.069295,103.273872,299.208099,0,0
22796,2024 8 08,15:43:19.363,-0.044894,-0.582771,0.325973,-0.742778,-1.275089,0.029002,-0.018151,-1.412068,108.635132,305.3526,0,0
22797,2024 8 08,15:43:19.372,-0.061662,-0.598495,0.310544,-0.735613,-1.387829,0.036788,-0.031335,0.909368,113.878128,312.809052,0,0
22798,2024 8 08,15:43:19.380,-0.078739,-0.614226,0.294447,-0.727559,-1.525099,0.034953,-0.023945,0.80952,118.140884,320.008331,0,0
22799,2024 8 08,15:43:19.388,-0.08478,-0.619776,0.288736,-0.724676,-1.574632,0.033665,-0.020334,0.662789,119.596863,322.525665,0,0
22800,2024 8 08,15:43:19.397,-0.097477,-0.631078,0.276498,-0.717971,-1.663792,0.004421,-0.009246,0.393957,121.359665,325.448853,0,0
22801,2024 8 08,15:43:19.405,-0.113494,-0.645161,0.260717,-0.708831,-1.762777,-0.098207,0.010505,1.198212,124.707527,327.19281,0,0
22802,2024 8 08,15:43:19.413,-0.129984,-0.659798,0.243741,-0.698419,-1.863995,-0.244303,0.04057,5.207129,129.878769,326.942841,0,0
22803,2024 8 08,15:43:19.422,-0.145874,-0.674389,0.226271,-0.687094,-1.959218,-0.438127,0.055845,11.81829,135.920944,322.767273,0,0
22804,2024 8 08,15:43:19.430,-0.160591,-0.688726,0.208666,-0.675041,-2.019347,-0.656179,0.057586,19.694508,142.163712,314.497772,0,0
22805,2024 8 08,15:43:19.438,-0.174018,-0.702763,0.191263,-0.662277,-2.095729,-0.863494,0.039865,25.297537,149.616669,304.474792,0,0
22806,2024 8 08,15:43:19.447,-0.179338,-0.708381,0.18429,-0.657116,-2.1277,-0.945891,0.031665,27.399057,152.681305,300.377197,0,0
22807,2024 8 08,15:43:19.455,-0.188142,-0.718043,0.172437,-0.64725,-2.250238,-1.111369,0.011429,23.328115,155.853607,292.644348,0,0
22808,2024 8 08,15:43:19.463,-0.199126,-0.729356,0.158427,-0.634678,-2.327139,-1.362938,-0.022899,12.268544,150.984467,280.668335,0,0
22809,2024 8 08,15:43:19.472,-0.206209,-0.736587,0.14946,-0.626558,-2.369902,-1.528718,-0.045746,4.689604,147.120697,272.75824,0,0
22810,2024 8 08,15:43:19.480,-0.218051,-0.746498,0.136517,-0.613632,-2.086979,-1.885604,-0.173888,-10.522877,130.440247,250.857681,0,0
22811,2024 8 08,15:43:19.488,-0.228992,-0.755057,0.125934,-0.601311,-1.698471,-2.196692,-0.420768,-20.96386,127.140099,218.871994,0,0
22812,2024 8 08,15:43:19.497,-0.238378,-0.762664,0.118572,-0.589441,-1.503704,-2.455375,-0.827245,-32.92485,128.9897,175.957352,0,0
22813,2024 8 08,15:43:19.505,-0.238851,-0.763047,0.118201,-0.588843,-1.493893,-2.468407,-0.847722,-33.527397,129.08287,173.795486,0,0
22814,2024 8 08,15:43:19.513,-0.246163,-0.768851,0.115227,-0.578772,-1.347043,-2.552026,-1.275548,-49.706009,122.565369,124.899506,0,0
22815,2024 8 08,15:43:19.522,-0.252451,-0.77303,0.11644,-0.570193,-1.322802,-3.118183,-1.369903,-71.303986,105.319275,62.128746,0,0
22816,2024 8 08,15:43:19.530,-0.257363,-0.775874,0.122633,-0.562787,-1.612249,-3.600529,-1.062751,-91.075211,105.89035,10.485657,0,0
22817,2024 8 08,15:43:19.538,-0.260228,-0.776632,0.130705,-0.558594,-1.445478,-3.328607,-0.640009,-83.304848,51.784878,-29.870667,0,0
22818,2024 8 08,15:43:19.547,-0.261415,-0.773643,0.138726,-0.560251,-0.912085,-2.862181,-0.457697,-68.48114,-21.116917,-63.444561,0,0
22819,2024 8 08,15:43:19.555,-0.261567,-0.773262,0.139748,-0.560462,-0.844167,-2.80279,-0.434483,-66.593597,-30.399693,-67.719612,0,0
22820,2024 8 08,15:43:19.563,-0.259139,-0.771153,0.145144,-0.563112,-7.968054,1.270295,-2.829177,5.535805,-2.81863,-65.261017,0,0
22821,2024 8 08,15:43:19.572,-0.246519,-0.76869,0.150226,-0.570724,-1.409711,0.59282,2.489766,-6.141484,-117.540619,-228.129471,0,0
22822,2024 8 08,15:43:19.580,-0.227107,-0.764399,0.163365,-0.580756,-2.537831,1.567705,-1.512634,62.480106,-66.499329,-297.290527,1,0
22823,2024 8 08,15:43:19.588,-0.221603,-0.749209,0.179302,-0.597678,-1.605936,0.138983,-0.559062,-85.065582,-192.492859,-255.459366,0,0
22824,2024 8 08,15:43:19.597,-0.220345,-0.732456,0.199152,-0.612402,-1.080178,-0.684962,-0.540229,-156.45343,-169.808319,-251.016495,0,0
22825,2024 8 08,15:43:19.605,-0.220103,-0.729227,0.202978,-0.615241,-0.978837,-0.843778,-0.536598,-170.213531,-165.435837,-250.160126,0,0
22826,2024 8 08,15:43:19.613,-0.220071,-0.720751,0.220384,-0.619191,-1.470748,-1.143507,-0.285193,-156.090881,-58.526024,-198.436035,0,0
22827,2024 8 08,15:43:19.622,-0.218855,-0.71327,0.233839,-0.623351,-1.225406,-0.548767,0.117675,-87.071861,-58.483887,-143.861526,0,0
22828,2024 8 08,15:43:19.630,-0.219713,-0.705911,0.245239,-0.627049,-0.987673,-0.143351,-0.023715,-104.998589,-58.661556,-113.001648,0,0
22829,2024 8 08,15:43:19.638,-0.221184,-0.698171,0.257263,-0.630365,-0.915714,-0.228517,-0.238985,-110.066772,-56.115479,-121.89872,0,0
22830,2024 8 08,15:43:19.647,-0.220239,-0.690496,0.268253,-0.634556,-0.928014,-0.273083,0.001876,-67.454636,-56.645267,-128.190613,0,0
22831,2024 8 08,15:43:19.655,-0.220004,-0.688584,0.27099,-0.6356,-0.931077,-0.284182,0.061861,-56.842239,-56.77721,-129.757584,0,0
22832,2024 8 08,15:43:19.663,-0.218213,-0.683966,0.276526,-0.638807,-1.053914,-0.260277,0.205075,-36.978718,-50.967728,-95.501923,0,0
22833,2024 8 08,15:43:19.672,-0.217049,-0.679063,0.280636,-0.642632,-1.000516,-0.1516,0.014564,-19.7859,-57.4921,-68.702164,0,0
22834,2024 8 08,15:43:19.680,-0.215467,-0.674023,0.283478,-0.647206,-0.958656,-0.16036,-0.116498,-4.211492,-61.37508,-63.617142,0,0
22835,2024 8 08,15:43:19.688,-0.213714,-0.669498,0.285816,-0.651444,-0.94718,-0.159947,-0.163823,-2.227903,-52.295231,-55.195572,0,0
22836,2024 8 08,15:43:19.697,-0.211832,-0.66559,0.287639,-0.655253,-0.929859,-0.20991,-0.12271,4.318467,-46.162403,-50.618534,0,0
22837,2024 8 08,15:43:19.705,-0.211272,-0.664426,0.288182,-0.656387,-0.924698,-0.224799,-0.110459,6.269293,-44.334812,-49.25457,0,0
22838,2024 8 08,15:43:19.713,-0.2096,-0.661531,0.289612,-0.659209,-0.927461,-0.25472,-0.197523,8.325913,-42.691418,-49.422039,0,0
22839,2024 8 08,15:43:19.722,-0.207868,-0.65933,0.289829,-0.661864,-0.961356,-0.092658,-0.015688,14.625717,-29.006817,-24.454947,0,0
22840,2024 8 08,15:43:19.730,-0.207114,-0.65765,0.289822,-0.663774,-0.95031,-0.121825,0.001676,7.696104,-25.851103,-15.562723,0,0
22841,2024 8 08,15:43:19.738,-0.206007,-0.655922,0.289322,-0.666047,-0.960036,-0.208353,-0.035904,14.130423,-17.130325,-8.96524,0,0
22842,2024 8 08,15:43:19.747,-0.205129,-0.65511,0.288744,-0.667367,-0.96737,-0.146195,-0.119408,13.636238,-13.728789,-8.404715,0,0
22843,2024 8 08,15:43:19.755,-0.204997,-0.654993,0.288657,-0.667561,-0.968262,-0.141925,-0.085967,13.316337,-13.319324,-8.363201,0,0
22844,2024 8 08,15:43:19.763,-0.203988,-0.654516,0.288102,-0.668577,-0.973523,-0.079483,0.000906,17.381516,-10.991906,-8.915323,0,0
22845,2024 8 08,15:43:19.772,-0.202752,-0.654039,0.287569,-0.669648,-0.977744,-0.104633,0.025467,15.172907,-8.545296,-10.314853,0,0
22846,2024 8 08,15:43:19.780,-0.201537,-0.653586,0.287277,-0.670582,-0.965198,-0.106772,0.013413,12.522893,-6.52989,-11.037009,0,0
22847,2024 8 08,15:43:19.788,-0.200283,-0.653176,0.286971,-0.671487,-0.980334,-0.114534,0.010865,13.697251,-6.959472,-11.157807,0,0
22848,2024 8 08,15:43:19.797,-0.199088,-0.65272,0.286713,-0.672395,-0.988991,-0.104662,0.061339,13.441576,-7.217759,-11.263199,0,0
22849,2024 8 08,15:43:19.805,-0.198826,-0.652618,0.286658,-0.672596,-0.990553,-0.108411,0.0667,13.321054,-7.25804,-11.288299,0,0
22850,2024 8 08,15:43:19.813,-0.197864,-0.652238,0.286435,-0.673342,-0.997375,-0.100336,0.053265,14.323169,-8.0473,-11.61424,0,0
22851,2024 8 08,15:43:19.822,-0.196682,-0.651655,0.286181,-0.67436,-1.027296,-0.11697,-0.012857,13.328765,-9.495466,-13.070495,0,0
22852,2024 8 08,15:43:19.830,-0.195472,-0.650886,0.285968,-0.675544,-0.99542,-0.10705,0.007036,11.290164,-11.049376,-11.906024,0,0
22853,2024 8 08,15:43:19.838,-0.194504,-0.650028,0.285839,-0.676703,-1.00439,-0.077372,0.065901,9.441687,-13.497167,-11.98007,0,0
22854,2024 8 08,15:43:19.847,-0.19367,-0.64903,0.285909,-0.677869,-1.001171,-0.086891,-0.027001,6.150877,-14.636131,-14.211071,0,0
22855,2024 8 08,15:43:19.855,-0.19293,-0.647878,0.286044,-0.679124,-0.969375,-0.165412,-0.100015,3.694567,-14.982321,-12.931719,0,0
22856,2024 8 08,15:43:19.863,-0.192718,-0.647537,0.286085,-0.679493,-0.959031,0.320747,0.059185,3.027285,-15.057752,-12.395534,0,0
22857,2024 8 08,15:43:19.872,-0.192329,-0.646651,0.286309,-0.680351,-0.978293,-0.125418,0.008993,2.142753,-15.703704,-13.093925,0,0
22858,2024 8 08,15:43:19.880,-0.191833,-0.645496,0.286699,-0.681423,-0.995731,-0.112563,0.021882,1.350013,-15.472766,-13.648056,0,0
22859,2024 8 08,15:43:19.888,-0.191424,-0.644268,0.287263,-0.682462,-0.984545,-0.10573,0.006918,-0.618463,-15.682369,-14.795004,0,0
22860,2024 8 08,15:43:19.897,-0.191089,-0.642974,0.287873,-0.683518,-0.988972,-0.124159,-0.013113,-1.681392,-15.697878,-13.940456,0,0
22861,2024 8 08,15:43:19.905,-0.190679,-0.641629,0.28845,-0.684652,-0.968661,-0.116401,-0.004125,-0.817714,-17.012119,-14.914284,0,0
22862,2024 8 08,15:43:19.913,-0.190534,-0.641169,0.288645,-0.685043,-0.960319,-0.112229,0.000438,-0.432941,-17.528671,-15.356193,0,0
22863,2024 8 08,15:43:19.922,-0.190261,-0.640144,0.289099,-0.685884,-0.996174,-0.090209,-0.021936,-0.886421,-16.755194,-15.347578,0,0
22864,2024 8 08,15:43:19.930,-0.189852,-0.638773,0.289655,-0.68704,-0.97928,-0.115415,0.009915,-0.428734,-18.238123,-16.449846,0,0
22865,2024 8 08,15:43:19.938,-0.18931,-0.637353,0.290206,-0.688274,-0.988573,-0.147531,-0.021555,1.286139,-17.570736,-16.416367,0,0
22866,2024 8 08,15:43:19.947,-0.188611,-0.635923,0.290728,-0.689567,-0.990051,-0.145763,-0.032716,2.399286,-17.484949,-17.503353,0,0
22867,2024 8 08,15:43:19.955,-0.187832,-0.634531,0.291321,-0.69081,-0.994346,-0.137475,-0.044119,2.139194,-16.235558,-18.213531,0,0
22868,2024 8 08,15:43:19.963,-0.18753,-0.633998,0.291553,-0.691285,-0.996277,-0.134209,-0.048791,1.965955,-15.679139,-18.452707,0,0
22869,2024 8 08,15:43:19.972,-0.186869,-0.63302,0.29202,-0.692162,-0.994506,-0.130608,-0.02294,2.536954,-15.36822,-19.475054,0,0
22870,2024 8 08,15:43:19.980,-0.18594,-0.631799,0.29262,-0.693273,-1.010696,-0.135481,-0.026241,3.385655,-14.925429,-20.692612,0,0
22871,2024 8 08,15:43:19.988,-0.18476,-0.630443,0.293191,-0.69458,-1.040722,-0.144572,-0.05314,6.282184,-15.919518,-22.298937,0,0
22872,2024 8 08,15:43:19.997,-0.183217,-0.628929,0.293666,-0.696157,-1.041252,0.131807,-0.005733,10.21935,-17.907043,-25.675083,0,0
22873,2024 8 08,15:43:20.005,-0.181244,-0.627385,0.294122,-0.697871,-1.046508,-0.121587,-0.057554,13.834036,-17.135111,-29.574286,0,0
22874,2024 8 08,15:43:20.013,-0.179956,-0.626405,0.29441,-0.698967,-1.050759,-0.107605,-0.060029,16.084385,-16.367281,-32.072414,0,0
22875,2024 8 08,15:43:20.022,-0.17994,-0.626393,0.294414,-0.698981,-1.050812,0.131638,0.040605,16.112478,-16.357697,-32.1036,0,0
22876,2024 8 08,15:43:20.030,-0.177255,-0.624925,0.294933,-0.700759,-1.076998,-0.105555,-0.099338,19.035599,-14.078,-36.89711,0,0
22877,2024 8 08,15:43:20.038,-0.173891,-0.623385,0.295772,-0.702617,-1.101586,-0.111465,-0.009769,20.539637,-11.334076,-44.525208,0,0
22878,2024 8 08,15:43:20.047,-0.169822,-0.62194,0.297107,-0.704327,-1.188295,-0.045068,0.03608,22.552647,-7.209312,-54.255844,0,0
22879,2024 8 08,15:43:20.055,-0.165129,-0.620554,0.298941,-0.705887,-1.172389,-0.129939,-0.103902,22.524542,-2.673108,-63.87838,0,0
22880,2024 8 08,15:43:20.063,-0.159681,-0.619107,0.301342,-0.707387,-1.23282,-0.119307,-0.059453,20.151741,2.552766,-72.721741,0,0
22881,2024 8 08,15:43:20.072,-0.159161,-0.618969,0.301572,-0.70753,-1.238587,-0.118292,-0.05521,19.925289,3.051505,-73.56572,0,0
22882,2024 8 08,15:43:20.080,-0.15358,-0.617633,0.304168,-0.708815,-1.333986,-0.104031,-0.009723,21.080162,5.839196,-79.928612,0,0
22883,2024 8 08,15:43:20.088,-0.146762,-0.615973,0.306592,-0.710654,-1.319214,0.040238,0.135757,41.15276,-0.223964,-91.796417,0,0
22884,2024 8 08,15:43:20.097,-0.138455,-0.613981,0.310497,-0.712343,-1.402819,-0.049657,-0.099209,27.107578,8.313805,-114.540619,0,0
22885,2024 8 08,15:43:20.105,-0.128555,-0.611573,0.315101,-0.714239,-1.614942,0.030518,0.072994,36.623386,11.23679,-132.523605,0,0
22886,2024 8 08,15:43:20.113,-0.118356,-0.608984,0.31955,-0.716231,-1.690819,0.040475,-0.052378,45.917812,4.678376,-132.66246,0,0
22887,2024 8 08,15:43:20.122,-0.116668,-0.608555,0.320287,-0.71656,-1.703379,0.042124,-0.073131,47.456345,3.592742,-132.68544,0,0
22888,2024 8 08,15:43:20.130,-0.106275,-0.605151,0.324429,-0.719172,-1.777276,0.182218,0.040838,44.509621,-3.677615,-162.292984,0,0
22889,2024 8 08,15:43:20.138,-0.092794,-0.599927,0.331657,-0.722085,-1.961954,0.213827,0.057406,40.196095,-5.913719,-205.503311,0,0
22890,2024 8 08,15:43:20.147,-0.077307,-0.592761,0.340791,-0.725535,-2.096366,0.286469,0.03672,36.210045,-19.049309,-238.47551,0,0
22891,2024 8 08,15:43:20.155,-0.060652,-0.583425,0.351517,-0.729526,-2.309513,0.307575,0.132007,29.426786,-34.635818,-269.602051,0,0
22892,2024 8 08,15:43:20.163,-0.042513,-0.571396,0.36528,-0.733507,-2.484082,0.227728,0.327828,9.873461,-51.852814,-320.229034,0,0
22893,2024 8 08,15:43:20.172,-0.038422,-0.568682,0.368384,-0.734404,-2.523456,0.209718,0.371995,5.463272,-55.736046,-331.647766,0,0
22894,2024 8 08,15:43:20.180,-0.021892,-0.554976,0.383395,-0.737757,-2.547046,0.056492,0.285972,-14.334204,-81.020134,-376.451202,0,0
22895,2024 8 08,15:43:20.188,-0.002491,-0.536446,0.402219,-0.741622,-2.378269,-0.385889,0.187564,-22.385204,-101.133774,-398.003601,0,0
22896,2024 8 08,15:43:20.197,0.01785,-0.515787,0.422446,-0.744727,-2.413652,-0.861977,0.142957,-34.569862,-103.920021,-409.373749,0,1
22897,2024 8 08,15:43:20.205,0.038536,-0.494565,0.441723,-0.747112,-2.558601,-0.817825,0.237543,-21.674078,-103.092896,-403.193054,0,0
22898,2024 8 08,15:43:20.213,0.058359,-0.472372,0.458677,-0.749959,-2.473999,-0.354567,0.451293,-2.701982,-124.076668,-387.522369,0,0
22899,2024 8 08,15:43:20.222,0.063861,-0.466214,0.463381,-0.750749,-2.450521,-0.226009,0.51061,2.562915,-129.899826,-383.173645,0,0
22900,2024 8 08,15:43:20.230,0.077928,-0.395228,-0.465532,-0.787846,-2.018235,0.218072,0.528232,10.03397,-154.790054,-373.473938,0,0
22901,2024 8 08,15:43:20.238,0.093909,-0.716021,0.056967,-0.689382,-1.506864,0.712179,0.463756,17.108822,-156.57019,-362.560516,0,0
22902,2024 8 08,15:43:20.247,0.111602,-0.399011,0.499952,-0.760087,-0.856607,0.867942,0.796538,25.412905,-139.463501,-369.525421,0,0
22903,2024 8 08,15:43:20.255,0.132077,-0.376559,0.51015,-0.761457,0.258222,0.501741,1.081369,49.54187,-89.80513,-360.495087,0,0
22904,2024 8 08,15:43:20.263,0.151926,-0.359089,0.516912,-0.761702,0.232952,0.062103,0.30916,64.972984,-35.557915,-280.715424,0,0
22905,2024 8 08,15:43:20.272,0.167478,-0.35226,0.515622,-0.762664,-0.55411,0.444496,0.39537,95.465851,52.793343,-145.427231,0,0
22906,2024 8 08,15:43:20.280,0.175195,-0.348872,0.514983,-0.763141,-0.944643,0.634236,0.438146,110.596123,96.632385,-78.298523,0,0
22907,2024 8 08,15:43:20.288,0.179901,-0.354199,0.508063,-0.76422,-1.099087,0.988389,0.585734,91.793388,87.644798,28.488449,0,0
22908,2024 8 08,15:43:20.297,0.176902,-0.361578,0.49973,-0.76695,-1.176707,0.932983,0.549223,56.40918,39.134575,121.884636,0,0
22909,2024 8 08,15:43:20.305,0.166483,-0.367869,0.491956,-0.771293,-0.922512,0.821924,0.53422,33.543175,-24.072174,173.433655,0,0
22910,2024 8 08,15:43:20.313,0.151891,-0.372337,0.485413,-0.776278,-0.391485,0.69929,0.46698,14.083549,-59.087307,191.088531,0,0
22911,2024 8 08,15:43:20.322,0.13737,-0.377742,0.479193,-0.780225,-0.067244,0.55535,0.426409,5.4848,-31.027042,193.052368,0,0
22912,2024 8 08,15:43:20.330,0.134436,-0.378875,0.477933,-0.780995,-0.008459,0.525529,0.419207,4.052832,-23.588579,193.10939,0,0
22913,2024 8 08,15:43:20.338,0.124196,-0.385763,0.472521,-0.782581,-0.082011,0.442355,0.393621,4.299394,7.966402,195.05014,0,0
22914,2024 8 08,15:43:20.347,0.112409,-0.395828,0.465346,-0.783619,-0.249327,0.464864,0.342421,4.47641,37.893219,200.11293,0,0
22915,2024 8 08,15:43:20.355,0.100622,-0.407839,0.457695,-0.783556,-0.476689,0.503959,0.308262,-1.641463,58.709633,207.55864,0,0
22916,2024 8 08,15:43:20.363,0.088226,-0.420822,0.450104,-0.782569,-0.624294,0.482762,0.231377,-12.93327,65.164566,215.578247,0,0
22917,2024 8 08,15:43:20.372,0.074756,-0.434104,0.442722,-0.780914,-0.629135,0.428561,0.159166,-23.675175,65.157295,225.15242,0,0
22918,2024 8 08,15:43:20.380,0.071135,-0.437645,0.440766,-0.780451,-0.625288,0.413192,0.140412,-26.485765,64.976891,227.758835,0,0
22919,2024 8 08,15:43:20.388,0.059861,-0.448549,0.435279,-0.778229,-0.614563,0.366814,0.088608,-36.563,74.046471,236.714569,0,0
22920,2024 8 08,15:43:20.397,0.04525,-0.463095,0.428458,-0.774425,-0.668569,0.295974,0.044616,-47.612934,87.334221,247.445511,0,0
22921,2024 8 08,15:43:20.405,0.029521,-0.479126,0.42124,-0.769341,-0.779001,0.244115,0.024153,-55.76952,99.680832,258.945007,0,0
22922,2024 8 08,15:43:20.413,0.013118,-0.495867,0.413696,-0.76323,-0.8846,0.186833,0.010217,-60.748672,107.042946,267.567902,0,0
22923,2024 8 08,15:43:20.422,-0.003657,-0.512886,0.405732,-0.756308,-0.984462,0.116613,-0.019462,-62.045643,111.842537,273.382172,0,0
22924,2024 8 08,15:43:20.430,-0.009033,-0.518335,0.403168,-0.754063,-1.016189,0.093611,-0.029728,-62.303028,113.28788,275.127014,0,0
22925,2024 8 08,15:43:20.438,-0.02153,-0.53089,0.396672,-0.748424,-1.077867,0.044539,-0.055281,-58.886574,113.730942,276.929321,0,0
22926,2024 8 08,15:43:20.447,-0.037199,-0.546566,0.38782,-0.741055,-1.152339,-0.011311,-0.084281,-51.929813,114.171722,279.32193,0,0
22927,2024 8 08,15:43:20.455,-0.053346,-0.562742,0.37762,-0.733146,-1.242335,-0.06688,-0.115736,-42.28405,113.932838,282.496979,0,0
22928,2024 8 08,15:43:20.463,-0.069352,-0.578799,0.366106,-0.725075,-1.327112,-0.097596,-0.137826,-29.693897,112.48671,287.197357,0,0
22929,2024 8 08,15:43:20.472,-0.085122,-0.59461,0.353218,-0.716926,-1.416929,-0.114668,-0.165878,-17.020836,110.520798,293.237976,0,0
22930,2024 8 08,15:43:20.480,-0.090881,-0.600383,0.348435,-0.713941,-1.450138,-0.120366,-0.176555,-12.400497,109.781822,295.510895,0,0
22931,2024 8 08,15:43:20.488,-0.102111,-0.611574,0.337741,-0.707961,-1.496344,-0.115002,-0.186424,-3.369052,107.845604,299.94101,0,0
22932,2024 8 08,15:43:20.497,-0.116126,-0.62553,0.323253,-0.700222,-1.564632,-0.118074,-0.182838,6.944419,106.582497,304.838348,0,0
22933,2024 8 08,15:43:20.505,-0.13062,-0.640019,0.307014,-0.691762,-1.642853,-0.147553,-0.167672,16.006975,106.698563,308.172607,0,0
22934,2024 8 08,15:43:20.513,-0.144866,-0.6544,0.289784,-0.682802,-1.71196,-0.203505,-0.148308,23.758364,107.256065,309.171936,0,0
22935,2024 8 08,15:43:20.522,-0.158477,-0.668523,0.271926,-0.67335,-1.757154,-0.297647,-0.139529,31.658632,110.306702,307.677368,0,0
22936,2024 8 08,15:43:20.530,-0.163971,-0.674248,0.264638,-0.669483,-1.774136,-0.338052,-0.136643,34.888672,111.69825,306.935455,0,0
22937,2024 8 08,15:43:20.538,-0.17282,-0.684213,0.251446,-0.662124,-1.80415,-0.44194,-0.123857,41.360481,116.909698,303.697235,0,0
22938,2024 8 08,15:43:20.547,-0.178841,-0.691029,0.242402,-0.657065,-1.824696,-0.514429,-0.114779,45.822945,120.593536,301.399048,0,0
22939,2024 8 08,15:43:20.555,-0.18945,-0.704869,0.223803,-0.645884,-1.855431,-0.664173,-0.099415,56.738827,131.506943,294.203796,0,0
22940,2024 8 08,15:43:20.563,-0.198474,-0.718897,0.205206,-0.633766,-1.926312,-0.844363,-0.105269,67.379974,145.451447,285.341522,0,0
22941,2024 8 08,15:43:20.572,-0.206099,-0.732989,0.186876,-0.620715,-2.09275,-1.068799,-0.127776,73.30954,156.777771,276.623474,0,0
22942,2024 8 08,15:43:20.580,-0.212733,-0.746486,0.169048,-0.607352,-2.202296,-1.315743,-0.210824,74.505859,155.652985,265.73465,0,0
22943,2024 8 08,15:43:20.588,-0.213138,-0.74731,0.167958,-0.606535,-2.208992,-1.330837,-0.2159,74.578979,155.584244,265.069122,0,0
22944,2024 8 08,15:43:20.597,-0.218611,-0.758421,0.152275,-0.594782,-2.09293,-1.588664,-0.403132,70.413704,141.621094,248.559036,0,0
22945,2024 8 08,15:43:20.605,-0.223893,-0.768791,0.137029,-0.58309,-1.881876,-1.865214,-0.692794,61.441246,130.583847,225.620987,0,0
22946,2024 8 08,15:43:20.613,-0.228575,-0.777672,0.124013,-0.572314,-1.622391,-2.100131,-1.126247,47.296001,118.285736,194.612976,0,0
22947,2024 8 08,15:43:20.622,-0.232285,-0.784537,0.114197,-0.563439,-1.412286,-2.52544,-1.530848,31.412519,98.50489,147.663879,0,0
22948,2024 8 08,15:43:20.630,-0.234895,-0.789599,0.109091,-0.556267,-1.721867,-3.245003,-1.520294,6.762608,90.620491,92.99926,0,0
22949,2024 8 08,15:43:20.638,-0.235251,-0.79029,0.108394,-0.555289,-1.764099,-3.343162,-1.518855,3.399998,89.544945,85.542206,0,0
22950,2024 8 08,15:43:20.647,-0.235611,-0.793209,0.107557,-0.55112,-1.902668,-3.374058,-0.971305,2.851779,64.652115,42.807247,0,0
22951,2024 8 08,15:43:20.655,-0.234165,-0.792997,0.107916,-0.551973,-1.509824,-3.1404,-0.515533,10.750332,-21.030037,-5.225716,0,0
22952,2024 8 08,15:43:20.663,-0.224528,-0.791609,0.10838,-0.557823,-1.465907,-2.718358,-1.410923,120.856812,-34.97224,-105.928192,0,0
22953,2024 8 08,15:43:20.672,-0.20911,-0.785364,0.117426,-0.570576,-1.401242,-2.421992,0.053309,98.388596,-96.202721,-224.371674,0,0
22954,2024 8 08,15:43:20.680,-0.186499,-0.77819,0.122793,-0.586785,-1.759785,0.109086,0.702736,187.453064,-168.57373,-225.193466,1,0
22955,2024 8 08,15:43:20.688,-0.176068,-0.767269,0.128976,-0.602885,-0.910812,0.287264,0.326025,11.661362,-180.107712,-163.097626,0,0
22956,2024 8 08,15:43:20.697,-0.173874,-0.764972,0.130276,-0.60627,-0.732273,0.324735,0.246802,-25.307701,-182.53331,-150.038849,0,0
22957,2024 8 08,15:43:20.705,-0.170223,-0.759597,0.139821,-0.611902,-1.221101,0.164198,-0.144919,-47.592728,-83.961273,-158.513123,0,0
22958,2024 8 08,15:43:20.713,-0.170565,-0.751585,0.154402,-0.61812,-1.065925,-0.225752,-0.436645,-130.981903,-87.360245,-158.880035,0,0
22959,2024 8 08,15:43:20.722,-0.171699,-0.744097,0.169987,-0.622742,-0.990505,-0.518968,-0.379435,-118.759636,-58.82822,-147.249039,0,0
22960,2024 8 08,15:43:20.730,-0.170835,-0.737508,0.182949,-0.627145,-0.991051,-0.091202,0.033904,-87.870583,-56.573307,-133.200241,0,0
22961,2024 8 08,15:43:20.738,-0.170593,-0.731326,0.194137,-0.631091,-0.977953,-0.000679,0.316389,-85.336197,-54.565491,-114.625473,0,0
22962,2024 8 08,15:43:20.747,-0.170529,-0.729692,0.197093,-0.632134,-0.974491,-0.145806,-0.012838,-84.666473,-54.034912,-109.71698,0,0
22963,2024 8 08,15:43:20.755,-0.171957,-0.72435,0.206724,-0.634786,-1.054683,0.102534,-0.039929,-109.619179,-61.234169,-112.051147,0,0
22964,2024 8 08,15:43:20.763,-0.17349,-0.71678,0.218036,-0.639129,-1.00076,-0.244763,0.072619,-101.017029,-81.755608,-117.115334,0,0
22965,2024 8 08,15:43:20.772,-0.173783,-0.708813,0.227484,-0.644613,-0.910983,-0.338729,-0.177299,-67.882492,-86.480255,-104.426147,0,0
22966,2024 8 08,15:43:20.780,-0.172572,-0.701821,0.233934,-0.650272,-0.895206,-0.632473,0.197003,-31.001934,-78.873474,-86.7967,0,0
22967,2024 8 08,15:43:20.788,-0.170483,-0.696341,0.237848,-0.655294,-0.928896,-0.171029,-0.250846,-5.404915,-62.84174,-68.053818,0,0
22968,2024 8 08,15:43:20.797,-0.169833,-0.694636,0.239066,-0.656858,-0.939384,-0.142802,-0.213197,2.563692,-57.850903,-62.218971,0,0
22969,2024 8 08,15:43:20.805,-0.167555,-0.691705,0.240531,-0.659996,-0.959433,-0.079103,-0.040029,10.056896,-47.662029,-55.446472,0,0
22970,2024 8 08,15:43:20.813,-0.165464,-0.688579,0.242801,-0.662953,-0.944891,-0.248968,-0.202121,0.381867,-39.359715,-52.308811,0,0
22971,2024 8 08,15:43:20.822,-0.162576,-0.685148,0.244497,-0.666603,-0.90682,-0.175131,-0.040712,18.45179,-24.753811,-25.500359,0,0
22972,2024 8 08,15:43:20.830,-0.160806,-0.684373,0.243619,-0.668149,-0.965515,-0.148146,-0.118885,22.738596,-13.563382,-10.943861,0,0
22973,2024 8 08,15:43:20.838,-0.159533,-0.683678,0.243189,-0.669322,-0.962908,-0.11901,0.039963,16.074694,-10.890553,-10.506307,0,0
22974,2024 8 08,15:43:20.847,-0.159325,-0.683555,0.243132,-0.669519,-0.960619,0.371072,-0.157066,14.730845,-10.635743,-10.728559,0,0
22975,2024 8 08,15:43:20.855,-0.158051,0.662843,0.212572,0.700337,-0.983228,-0.113689,-0.147111,19.015938,-8.366922,-9.369022,0,0
22976,2024 8 08,15:43:20.863,-0.15667,-0.682837,0.24195,-0.671303,-0.992577,-0.081979,0.074759,17.720007,-7.424849,-9.448125,0,0
22977,2024 8 08,15:43:20.872,-0.155217,-0.682491,0.241328,-0.672216,-0.988301,-0.086016,0.072,19.118694,-6.850454,-9.419071,0,0
22978,2024 8 08,15:43:20.880,-0.153743,0.652013,0.217064,0.710018,-0.996022,-0.086066,0.059984,17.708876,-6.635056,-9.495488,0,0
22979,2024 8 08,15:43:20.888,-0.152315,-0.681741,0.24022,-0.674035,-0.993067,-0.084474,0.047051,17.411827,-7.939905,-10.259148,0,0
22980,2024 8 08,15:43:20.897,-0.151974,-0.681636,0.240098,-0.674262,-0.99191,-0.084053,0.043942,17.397284,-8.304992,-10.465871,0,0
22981,2024 8 08,15:43:20.905,-0.151051,-0.68116,0.239841,-0.675041,-0.980941,-0.142373,-0.129281,13.384962,-9.840502,-10.313097,0,0
22982,2024 8 08,15:43:20.913,-0.149773,-0.680475,0.239783,-0.676036,-0.964883,-0.202993,-0.015462,13.254144,-10.202657,-16.087994,0,0
22983,2024 8 08,15:43:20.922,-0.148576,-0.679755,0.239549,-0.677106,-0.988144,-0.083461,0.036088,10.589973,-9.235964,-10.293351,0,0
22984,2024 8 08,15:43:20.930,-0.147553,-0.679108,0.239154,-0.678118,-0.978969,-0.107239,0.042929,12.485363,-10.565327,-7.854017,0,0
22985,2024 8 08,15:43:20.938,-0.146598,-0.678557,0.238685,-0.679042,-0.98596,-0.093779,0.060209,12.521879,-9.558011,-6.605552,0,0
22986,2024 8 08,15:43:20.947,-0.146316,-0.678398,0.238542,-0.679313,-0.989013,-0.089461,0.063606,12.416483,-9.138155,-6.252743,0,0
22987,2024 8 08,15:43:20.955,-0.145589,-0.678041,0.23819,-0.679948,-0.978606,-0.091611,0.047929,12.479073,-8.971829,-6.766899,0,0
22988,2024 8 08,15:43:20.963,-0.14476,-0.677556,0.237862,-0.680723,-0.981668,-0.101088,0.038199,10.774915,-8.718508,-6.881288,0,0
22989,2024 8 08,15:43:20.972,-0.143951,-0.677045,0.237609,-0.68149,-0.97917,-0.146475,-0.004173,8.713776,-8.387589,-7.218913,0,0
22990,2024 8 08,15:43:20.980,-0.143236,-0.676417,0.237515,-0.682297,-0.991459,-0.146919,0.062903,6.33869,-9.76254,-7.988885,0,0
22991,2024 8 08,15:43:20.988,-0.142346,-0.675598,0.237541,-0.683284,-0.965292,-0.096756,0.116704,9.372192,-13.295796,-10.693034,0,0
22992,2024 8 08,15:43:20.997,-0.142027,-0.675305,0.237555,-0.683636,-0.954083,-0.074181,0.136681,10.709133,-14.619828,-11.728468,0,0
22993,2024 8 08,15:43:21.005,-0.141551,-0.67476,0.237559,-0.684271,-0.974533,-0.096099,0.064737,8.214441,-12.704021,-9.778411,0,0
22994,2024 8 08,15:43:21.013,-0.141033,-0.673992,0.237585,-0.685126,-0.978265,-0.112552,0.030017,5.358829,-12.391881,-8.695972,0,0
22995,2024 8 08,15:43:21.022,-0.140529,0.670342,0.190345,0.703322,-0.966631,-0.23055,0.010053,4.580434,-13.187225,-8.519829,0,0
22996,2024 8 08,15:43:21.030,-0.140017,-0.67223,0.237674,-0.687032,-0.960364,-0.118586,0.02258,5.117629,-13.869224,-8.644325,0,0
22997,2024 8 08,15:43:21.038,-0.139543,-0.671304,0.237644,-0.688043,-0.975598,-0.119887,0.020734,4.936411,-13.894013,-7.553204,0,0
22998,2024 8 08,15:43:21.047,-0.139361,-0.670942,0.237629,-0.688438,-0.982738,-0.085215,-0.009365,4.814301,-13.866881,-7.054624,0,0
22999,2024 8 08,15:43:21.055,-0.139024,-0.670218,0.237549,-0.689239,-0.987214,0.080369,-0.158188,5.938853,-15.528181,-7.484945,0,0
23000,2024 8 08,15:43:21.063,-0.138517,-0.669231,0.237375,-0.690358,-0.983787,-0.10549,0.016169,8.045872,-17.412916,-8.569483,0,0
23001,2024 8 08,15:43:21.072,-0.137907,-0.668064,0.2371,-0.691703,-0.992134,-0.10911,0.01439,8.672669,-18.820835,-8.726181,0,0
23002,2024 8 08,15:43:21.080,-0.137262,-0.666823,0.236834,-0.693118,-1.002042,-0.127121,0.008033,8.901793,-19.867414,-9.289861,0,0
23003,2024 8 08,15:43:21.088,-0.136851,-0.666033,0.236668,-0.694018,-1.008273,-0.139536,0.002977,9.031984,-20.501873,-9.700744,0,0
23004,2024 8 08,15:43:21.096,-0.136049,-0.664639,0.236519,-0.69556,-0.97832,-0.092491,0.040086,9.390424,-21.638962,-11.669374,0,0
23005,2024 8 08,15:43:21.105,-0.135325,-0.663299,0.236613,-0.696947,-1.028267,-0.150471,-0.032677,6.232369,-19.555235,-13.124233,0,0
23006,2024 8 08,15:43:21.113,-0.135297,-0.663247,0.236617,-0.697001,-1.030196,-0.15271,-0.035487,6.110409,-19.474764,-13.180418,0,0
23007,2024 8 08,15:43:21.121,-0.134398,-0.661889,0.236776,-0.69841,-1.018002,-0.093171,-0.038367,7.470129,-19.698214,-15.17568,0,0
23008,2024 8 08,15:43:21.130,-0.133425,-0.660513,0.237155,-0.699769,-1.004176,-0.096848,-0.037212,5.428603,-18.366642,-17.552185,0,0
23009,2024 8 08,15:43:21.138,-0.13237,-0.659181,0.237716,-0.701034,-1.046432,0.09514,-0.043642,4.436375,-15.937861,-19.621836,0,0
23010,2024 8 08,15:43:21.146,-0.131113,-0.657762,0.238479,-0.702343,-1.072593,-0.074295,-0.067531,4.944241,-16.367193,-23.739311,0,0
23011,2024 8 08,15:43:21.155,-0.129538,-0.656289,0.239476,-0.703673,-1.091691,-0.077671,-0.06267,5.374051,-15.552042,-28.097607,0,0
23012,2024 8 08,15:43:21.163,-0.129353,-0.656116,0.239593,-0.703829,-1.093933,-0.078068,-0.0621,5.424516,-15.456332,-28.609331,0,0
23013,2024 8 08,15:43:21.171,-0.127481,-0.65475,0.240678,-0.70507,-1.141104,-0.062632,-0.07249,7.576176,-15.600917,-34.483059,0,0
23014,2024 8 08,15:43:21.180,-0.124815,-0.653128,0.242133,-0.706551,-1.127925,-0.080694,-0.033066,10.821917,-15.466413,-43.157524,0,0
23015,2024 8 08,15:43:21.188,-0.121725,-0.651619,0.243582,-0.707983,-1.083938,-0.1295,-0.094727,16.86903,-11.777748,-43.203739,0,0
23016,2024 8 08,15:43:21.196,-0.117223,-0.650315,0.24529,-0.709349,-1.14958,-0.061024,-0.035187,18.157282,-3.431731,-59.806095,0,0
23017,2024 8 08,15:43:21.205,-0.112005,-0.649097,0.24819,-0.710296,-1.219375,-0.07851,0.049434,18.133011,3.877176,-72.869347,0,0
23018,2024 8 08,15:43:21.213,-0.111043,-0.648872,0.248724,-0.71047,-1.232236,-0.081732,0.065027,18.128538,5.223999,-75.276527,0,0
23019,2024 8 08,15:43:21.221,-0.105932,-0.647977,0.251439,-0.711107,-1.345494,0.08426,-0.134394,18.950577,6.018348,-78.019684,0,0
23020,2024 8 08,15:43:21.230,-0.098999,-0.647071,0.25408,-0.711986,-1.351045,0.017826,-0.007365,36.330276,10.053316,-90.53286,0,0
23021,2024 8 08,15:43:21.238,-0.09062,-0.646042,0.258172,-0.712555,-1.444804,-0.015993,-0.057587,27.865227,18.898613,-110.921951,0,0
23022,2024 8 08,15:43:21.246,-0.080601,-0.644818,0.262728,-0.713192,-1.569162,0.039163,-0.053132,41.278244,20.128839,-127.330551,0,0
23023,2024 8 08,15:43:21.255,-0.069115,-0.643025,0.267627,-0.714181,-1.704335,0.127616,-0.054308,46.797123,16.311602,-145.810974,0,0
23024,2024 8 08,15:43:21.263,-0.066338,-0.642591,0.268812,-0.714421,-1.737008,0.148996,-0.054593,48.131107,15.388926,-150.277924,0,0
23025,2024 8 08,15:43:21.271,-0.055454,-0.640098,0.273843,-0.715647,-1.781224,0.2102,-0.079886,51.347668,9.257904,-175.40181,0,0
23026,2024 8 08,15:43:21.280,-0.04124,-0.635935,0.281492,-0.717306,-1.959727,0.260964,-0.088932,45.10228,2.504918,-208.846603,0,0
23027,2024 8 08,15:43:21.288,-0.02502,-0.630081,0.291384,-0.719222,-2.134952,0.314335,0.068519,39.294102,-7.136393,-244.290878,0,0
23028,2024 8 08,15:43:21.296,-0.00702,-0.622361,0.303956,-0.721079,-2.289811,0.27508,0.210121,29.510441,-17.193497,-287.4888,0,0
23029,2024 8 08,15:43:21.305,0.012979,-0.611797,0.320103,-0.722956,-2.373694,0.166496,0.307114,11.928562,-38.080978,-342.527893,0,0
23030,2024 8 08,15:43:21.313,0.018811,-0.608716,0.324811,-0.723504,-2.398154,0.134833,0.335397,6.801741,-44.171703,-358.577118,0,0
23031,2024 8 08,15:43:21.321,0.035324,-0.597286,0.340508,-0.725063,-2.281508,-0.166703,0.191263,-6.227723,-64.058273,-379.80191,0,0
23032,2024 8 08,15:43:21.330,0.054915,-0.582323,0.360164,-0.726357,-2.226393,-0.600461,0.167037,-21.513603,-70.076118,-390.645721,0,0
23033,2024 8 08,15:43:21.338,0.07563,-0.566263,0.380684,-0.726627,-2.255568,-0.710681,0.248119,-19.144743,-65.578697,-393.310547,0,1
23034,2024 8 08,15:43:21.346,0.096323,-0.549515,0.400283,-0.726462,-2.278646,-0.590155,0.322134,-12.021835,-70.087257,-382.993256,0,0
23035,2024 8 08,15:43:21.355,0.123892,-0.524863,0.424935,-0.726954,-1.900387,-0.02025,0.512161,8.313759,-95.225166,-370.903748,0,0
23036,2024 8 08,15:43:21.363,0.126684,-0.522233,0.427348,-0.727045,-1.838709,0.060857,0.536629,10.993026,-98.864189,-369.773895,0,0
23037,2024 8 08,15:43:21.371,0.142787,-0.505206,0.441135,-0.727759,-1.484114,0.380371,0.476376,15.528918,-105.405846,-363.943665,0,0
