frame,date,time,quaternion_x,quaternion_y,quaternion_z,quaternion_w,accel_x,accel_y,accel_z,gyro_x,gyro_y,gyro_z,HS,TO
22123,2024 8 08,15:43:13.755,-0.297017,-0.650402,0.226967,-0.661244,-1.040003,-0.108656,0.036003,0.075492,-1.552607,-1.347369,0,0
22124,2024 8 08,15:43:13.763,-0.297051,-0.650519,0.226939,-0.661124,-1.041089,-0.126938,0.024745,-0.151034,-1.879714,-1.214344,0,0
22125,2024 8 08,15:43:13.772,-0.297066,-0.650563,0.226933,-0.661076,-1.041495,-0.104753,0.030803,-0.256783,-1.945026,-1.152884,0,0
22126,2024 8 08,15:43:13.780,-0.297104,-0.650654,0.226946,-0.660965,-1.041559,-0.106292,0.057774,-0.589982,-1.775666,-0.959727,0,0
22127,2024 8 08,15:43:13.788,-0.297166,-0.650739,0.226992,-0.660838,-1.037615,-0.111216,0.033509,-1.031602,-1.688079,-0.697491,0,0
22128,2024 8 08,15:43:13.797,-0.297242,-0.650805,0.227078,-0.660708,-1.037186,-0.109656,0.033929,-1.496787,-1.655253,-0.433532,0,0
22129,2024 8 08,15:43:13.805,-0.297311,-0.65086,0.227191,-0.660584,-1.039132,-0.106998,0.037411,-1.64143,-1.609376,-0.107063,0,0
22130,2024 8 08,15:43:13.813,-0.297366,-0.650905,0.227289,-0.660481,-1.043972,-0.105011,0.034616,-1.443032,-1.594455,-0.035941,0,0
22131,2024 8 08,15:43:13.822,-0.297394,-0.650927,0.227338,-0.66043,-1.046387,-0.112293,0.047879,-1.34408,-1.587012,-0.000468,0,0
22132,2024 8 08,15:43:13.830,-0.297433,-0.650983,0.227447,-0.66032,-1.049265,-0.121961,0.060208,-1.224171,-1.408958,-1.3e-05,0,0
22133,2024 8 08,15:43:13.838,-0.29746,-0.651023,0.227515,-0.660245,-1.052617,-0.100613,0.026721,-0.928717,-0.995041,-1e-06,0,0
22134,2024 8 08,15:43:13.847,-0.297496,-0.651059,0.227552,-0.660181,-1.044008,-0.107958,0.033756,-0.570914,-0.747372,-0.287803,0,0
22135,2024 8 08,15:43:13.855,-0.297536,-0.6511,0.227589,-0.660109,-1.043526,-0.114222,0.054179,-0.607563,-1.017078,-0.417387,0,0
22136,2024 8 08,15:43:13.863,-0.297583,-0.651154,0.227642,-0.660016,-1.043492,-0.131329,0.008353,-0.889632,-1.315387,-0.538223,0,0
22137,2024 8 08,15:43:13.872,-0.297587,-0.651159,0.227646,-0.660008,-1.043489,-0.11039,0.042974,-0.913013,-1.340115,-0.548239,0,0
22138,2024 8 08,15:43:13.880,-0.29763,-0.651219,0.227682,-0.659917,-1.046532,-0.120061,0.004506,-0.806575,-1.288144,-0.603536,0,0
22139,2024 8 08,15:43:13.888,-0.297661,-0.6513,0.22769,-0.659821,-1.050291,-0.106439,-0.063189,-0.41994,-1.443285,-0.770285,0,0
22140,2024 8 08,15:43:13.897,-0.297698,-0.651398,0.22769,-0.659708,-1.049898,-0.105482,0.029496,-0.109115,-1.514814,-0.948929,0,0
22141,2024 8 08,15:43:13.905,-0.297735,-0.651498,0.227673,-0.659598,-1.046925,-0.10297,0.028075,-0.328779,-1.367822,-1.076836,0,0
22142,2024 8 08,15:43:13.913,-0.297773,-0.651595,0.227644,-0.659495,-1.046086,-0.100165,0.007087,-0.10305,-1.295247,-1.14667,0,0
22143,2024 8 08,15:43:13.922,-0.297779,-0.65161,0.22764,-0.659479,-1.045957,-0.096214,0.008462,-0.068091,-1.284007,-1.157485,0,0
22144,2024 8 08,15:43:13.930,-0.297821,-0.651682,0.227624,-0.659394,-1.048742,-0.109324,0.040436,-0.162553,-1.081629,-1.059021,0,0
22145,2024 8 08,15:43:13.938,-0.297864,-0.651759,0.227596,-0.659308,-1.038544,-0.10818,0.021902,-0.179218,-1.392355,-0.942671,0,0
22146,2024 8 08,15:43:13.947,-0.297886,-0.651882,0.227591,-0.659178,-1.044067,-0.096638,0.001409,-0.18233,-1.841327,-0.920939,0,0
22147,2024 8 08,15:43:13.955,-0.297906,-0.651986,0.227592,-0.659065,-1.040521,-0.108591,0.049724,-0.279462,-1.736686,-0.723622,0,0
22148,2024 8 08,15:43:13.963,-0.297936,-0.652082,0.227637,-0.658942,-1.045508,-0.129791,0.022939,-0.728546,-1.572051,-0.539827,0,0
22149,2024 8 08,15:43:13.972,-0.297943,-0.652103,0.227647,-0.658915,-1.046587,-0.110482,0.041627,-0.825714,-1.536429,-0.500059,0,0
22150,2024 8 08,15:43:13.980,-0.297959,-0.652146,0.227678,-0.658855,-1.042737,-0.130218,0.007937,-0.521979,-1.202716,-0.258459,0,0
22151,2024 8 08,15:43:13.988,-0.297968,-0.590095,0.413803,-0.625916,-1.038154,-0.108983,0.029192,-0.54257,-1.492106,-0.06378,0,0
22152,2024 8 08,15:43:13.997,-0.297955,-0.652307,0.227808,-0.658651,-1.042489,-0.106733,0.033633,-0.411285,-2.244216,0.029135,0,0
22153,2024 8 08,15:43:14.005,-0.297945,-0.65239,0.227888,-0.658547,-1.048973,-0.126593,0.019293,-0.69249,-1.491109,0.142427,0,0
22154,2024 8 08,15:43:14.013,-0.29794,-0.652435,0.227936,-0.658487,-1.041787,-0.115675,0.041349,-0.366364,-1.072436,0.083223,0,0
22155,2024 8 08,15:43:14.022,-0.297938,-0.652448,0.227949,-0.658471,-1.039851,-0.106988,0.021186,-0.278465,-0.959592,0.067266,0,0
22156,2024 8 08,15:43:14.030,-0.297922,-0.652532,0.228009,-0.658373,-1.048688,-0.103479,0.026607,-0.340864,-2.013352,0.062835,0,0
22157,2024 8 08,15:43:14.038,-0.297903,-0.652624,0.228062,-0.658273,-1.047092,-0.104194,0.026439,-0.444537,-1.584681,-0.067203,0,0
22158,2024 8 08,15:43:14.047,-0.297904,-0.652699,0.228115,-0.65818,-1.053417,-0.105083,0.029446,-0.43251,-1.331507,-0.147822,0,0
22159,2024 8 08,15:43:14.055,-0.29791,-0.652757,0.22815,-0.658108,-1.04625,-0.104007,0.023297,-0.386893,-1.213273,-0.25609,0,0
22160,2024 8 08,15:43:14.063,-0.297905,-0.652853,0.228189,-0.658001,-1.049689,-0.108993,0.028379,-0.165085,-1.675336,-0.289502,0,0
22161,2024 8 08,15:43:14.072,-0.297902,-0.652927,0.22821,-0.657921,-1.046829,-0.075244,0.023212,-0.053903,-1.163618,-0.258952,0,0
22162,2024 8 08,15:43:14.080,-0.297901,-0.652951,0.228217,-0.657895,-1.045905,-0.110207,0.027457,-0.017981,-0.998284,-0.249081,0,0
22163,2024 8 08,15:43:14.088,-0.297901,-0.652951,0.228217,-0.657895,-1.046035,-0.108212,0.023018,-0.024702,-0.973505,-0.268734,0,0
22164,2024 8 08,15:43:14.097,-0.2979,-0.653051,0.228226,-0.657794,-1.049425,-0.067868,-0.006279,-0.179375,-1.253493,-0.399338,0,0
22165,2024 8 08,15:43:14.105,-0.297905,-0.652853,0.228189,-0.658001,-1.047536,-0.109236,0.020863,-0.175026,-0.736514,-0.26596,0,0
22166,2024 8 08,15:43:14.113,-0.297919,-0.653144,0.228228,-0.657692,-1.047803,-0.106778,-0.016429,-0.156131,-0.577901,-0.337479,0,0
22167,2024 8 08,15:43:14.122,-0.297935,-0.653159,0.228236,-0.657668,-1.047915,-0.112851,0.050365,-0.352232,-0.238583,-0.185674,0,0
22168,2024 8 08,15:43:14.130,-0.297956,-0.653154,0.228237,-0.657663,-1.051031,-0.110675,0.028815,-0.365092,0.317803,-0.127161,0,0
22169,2024 8 08,15:43:14.138,-0.297964,-0.653148,0.228239,-0.657664,-1.051037,-0.110828,0.029552,-0.403526,0.361702,-0.107577,0,0
22170,2024 8 08,15:43:14.147,-0.298008,-0.653106,0.22825,-0.657682,-1.048583,-0.110783,0.031153,-0.561854,0.528066,-0.02615,0,0
22171,2024 8 08,15:43:14.155,-0.298056,-0.653041,0.228231,-0.657731,-1.042835,-0.109998,0.028854,-0.066464,1.285506,-0.132553,0,0
22172,2024 8 08,15:43:14.163,-0.298078,-0.653034,0.228217,-0.657733,-1.045102,-0.103127,0.025061,0.012867,-0.330185,-0.282675,0,0
22173,2024 8 08,15:43:14.172,-0.298083,-0.653059,0.228197,-0.657714,-1.04545,-0.11616,0.055971,0.144758,-0.015789,-0.316139,0,0
22174,2024 8 08,15:43:14.180,-0.298095,-0.653073,0.228177,-0.657701,-1.045857,-0.108188,0.028712,0.073886,-0.105757,-0.410192,0,0
22175,2024 8 08,15:43:14.188,-0.298098,-0.653079,0.228169,-0.657696,-1.046194,-0.10862,0.029333,0.056256,-0.133173,-0.438227,0,0
22176,2024 8 08,15:43:14.197,-0.298106,-0.653103,0.228133,-0.657681,-1.047064,-0.112325,0.027258,0.030284,-0.061356,-0.529827,0,0
22177,2024 8 08,15:43:14.205,-0.298148,-0.653087,0.22809,-0.657694,-1.041479,-0.120847,0.058621,0.074069,0.773999,-0.565845,0,0
22178,2024 8 08,15:43:14.213,-0.29819,-0.653098,0.228055,-0.657676,-1.041663,-0.161869,-0.009501,-0.367264,-0.308096,-0.686461,0,0
22179,2024 8 08,15:43:14.222,-0.298206,-0.653135,0.228015,-0.657645,-1.045102,-0.103127,0.025061,-0.062668,-0.06752,-0.626053,0,0
22180,2024 8 08,15:43:14.230,-0.298224,-0.653162,0.227977,-0.657623,-1.046134,-0.109498,0.028177,0.082151,-0.349514,-0.613744,0,0
22181,2024 8 08,15:43:14.238,-0.298233,-0.653168,0.227967,-0.657617,-1.045843,-0.109855,0.028033,0.087501,-0.333019,-0.604726,0,0
22182,2024 8 08,15:43:14.247,-0.298263,-0.653178,0.227946,-0.6576,-1.043002,-0.108047,0.02684,-0.079147,0.073157,-0.549707,0,0
22183,2024 8 08,15:43:14.255,-0.298287,-0.653196,0.227922,-0.65758,-1.044916,-0.108096,0.028738,-0.151497,-0.282644,-0.457131,0,0
22184,2024 8 08,15:43:14.263,-0.298311,-0.653207,0.227896,-0.657567,-1.043534,-0.128741,0.006793,-0.117182,0.046815,-0.434804,0,0
22185,2024 8 08,15:43:14.272,-0.298347,-0.653205,0.227879,-0.657559,-1.044573,-0.097984,0.017794,-0.085498,0.01834,-0.417035,0,0
22186,2024 8 08,15:43:14.280,-0.298382,-0.653208,0.227875,-0.657541,-1.051623,-0.109832,0.029973,-0.424058,0.049505,-0.335385,0,0
22187,2024 8 08,15:43:14.288,-0.298396,-0.653203,0.227868,-0.657542,-1.051647,-0.091423,0.026469,-0.460851,0.165028,-0.325495,0,0
22188,2024 8 08,15:43:14.297,-0.298429,-0.653168,0.227831,-0.657574,-1.041881,-0.112815,0.022486,-0.067227,0.662769,-0.398101,0,0
22189,2024 8 08,15:43:14.305,-0.298443,-0.653195,0.227809,-0.657549,-1.050325,-0.114953,0.030672,0.424857,-0.408974,-0.430314,0,0
22190,2024 8 08,15:43:14.313,-0.298463,-0.653211,0.22777,-0.657538,-1.045177,-0.111974,0.025072,0.360889,0.02032,-0.519126,0,0
22191,2024 8 08,15:43:14.322,-0.298474,-0.653241,0.227728,-0.657518,-1.046899,-0.095264,0.001207,0.207419,-0.214587,-0.559314,0,0
22192,2024 8 08,15:43:14.330,-0.298487,-0.653247,0.227685,-0.657521,-1.042236,-0.112716,0.02336,0.232497,0.182052,-0.42744,0,0
22193,2024 8 08,15:43:14.338,-0.298491,-0.653252,0.22767,-0.657519,-1.041308,-0.112681,0.022548,0.21806,0.222841,-0.386069,0,0
22194,2024 8 08,15:43:14.347,-0.298498,-0.653273,0.227653,-0.657501,-1.044089,-0.112238,0.028242,0.050203,-0.216152,-0.350723,0,0
22195,2024 8 08,15:43:14.355,-0.29852,-0.653279,0.22764,-0.657489,-1.042518,-0.113281,0.020536,-0.243085,0.303306,-0.122891,0,0
22196,2024 8 08,15:43:14.363,-0.298551,-0.653258,0.227658,-0.65749,-1.052093,-0.109452,0.025778,-0.60339,0.125506,0.057549,0,0
22197,2024 8 08,15:43:14.372,-0.298608,-0.653161,0.227645,-0.657565,-1.035288,-0.104663,0.025405,-0.374241,1.714344,0.001948,0,0
22198,2024 8 08,15:43:14.380,-0.298619,-0.653182,0.227664,-0.657533,-1.052387,-0.107756,0.041657,-0.482772,-1.078912,9.4e-05,0,0
22199,2024 8 08,15:43:14.388,-0.298619,-0.653182,0.227664,-0.657533,-1.053201,-0.107904,0.04243,-0.487938,-1.211864,6e-06,0,0
22200,2024 8 08,15:43:14.397,-0.298625,-0.653179,0.227661,-0.657534,-1.045129,-0.115009,0.061753,-0.093462,0.302741,0.0,0,0
22201,2024 8 08,15:43:14.405,-0.298645,-0.653196,0.227654,-0.65751,-1.046748,-0.111308,0.030604,-0.063927,-0.306547,-0.333549,0,0
22202,2024 8 08,15:43:14.413,-0.298658,-0.653216,0.227626,-0.657494,-1.048206,-0.109137,0.025485,0.157896,-0.031282,-0.472491,0,0
22203,2024 8 08,15:43:14.422,-0.298671,-0.653241,0.227583,-0.657479,-1.048785,-0.107621,0.027996,0.234262,-0.003583,-0.540516,0,0
22204,2024 8 08,15:43:14.430,-0.298684,-0.653249,0.227535,-0.657481,-1.042028,-0.107876,0.029986,0.189587,0.266055,-0.441598,0,0
22205,2024 8 08,15:43:14.438,-0.298686,-0.65325,0.227529,-0.657481,-1.041183,-0.107908,0.030234,0.184003,0.299756,-0.429234,0,0
22206,2024 8 08,15:43:14.447,-0.298692,-0.653259,0.227494,-0.657482,-1.039408,-0.115093,0.063659,0.131363,-0.058779,-0.427544,0,0
22207,2024 8 08,15:43:14.455,-0.298699,-0.653282,0.227473,-0.657463,-1.040783,-0.112427,0.045025,0.021182,-0.009478,-0.273714,0,0
22208,2024 8 08,15:43:14.463,-0.298707,-0.653292,0.227465,-0.657452,-1.041406,-0.111533,0.026249,-0.147935,-0.304794,-0.047124,0,0
22209,2024 8 08,15:43:14.472,-0.298719,-0.653299,0.227485,-0.657433,-1.041911,-0.112964,0.023553,-0.32631,-0.255228,0.041264,0,0
22210,2024 8 08,15:43:14.480,-0.298745,-0.653283,0.227514,-0.657427,-1.039638,-0.099147,0.050263,-0.555485,0.14768,0.106461,0,0
22211,2024 8 08,15:43:14.488,-0.29875,-0.65328,0.22752,-0.657426,-1.039205,-0.111396,0.023912,-0.599199,0.224533,0.118897,0,0
22212,2024 8 08,15:43:14.497,-0.29876,-0.653284,0.227555,-0.657405,-1.044881,-0.136383,0.028451,-0.559948,-0.432416,0.169421,0,0
22213,2024 8 08,15:43:14.505,-0.298808,-0.653221,0.227585,-0.657435,-1.045697,-0.114194,0.015941,-0.504244,1.326888,0.132617,0,0
22214,2024 8 08,15:43:14.513,-0.298847,-0.653186,0.227606,-0.657445,-1.041002,-0.101333,0.027645,-0.773192,-0.254408,0.030784,0,0
22215,2024 8 08,15:43:14.522,-0.29885,-0.653201,0.227616,-0.657426,-1.043259,-0.105214,0.02964,-0.4181,0.031233,-0.085189,0,0
22216,2024 8 08,15:43:14.530,-0.298849,-0.653221,0.227615,-0.657407,-1.048923,-0.109801,0.026821,-0.150382,-0.541336,-0.112842,0,0
22217,2024 8 08,15:43:14.538,-0.298855,-0.660618,0.124903,-0.67725,-1.049962,-0.113468,0.021781,-0.129402,-0.140184,-0.119681,0,0
22218,2024 8 08,15:43:14.547,-0.298857,-0.653244,0.227623,-0.657377,-1.050228,-0.137447,-0.069055,-0.124031,-0.037498,-0.121431,0,0
22219,2024 8 08,15:43:14.555,-0.298875,-0.653246,0.227617,-0.657369,-1.046055,-0.112887,0.024393,-0.211011,-0.187142,-0.254493,0,0
22220,2024 8 08,15:43:14.563,-0.298891,-0.653263,0.227615,-0.657346,-1.047714,-0.109261,0.034325,-0.147328,-0.184252,-0.247081,0,0
22221,2024 8 08,15:43:14.572,-0.298914,-0.653274,0.227617,-0.657324,-1.047143,-0.097556,0.000193,-0.302307,-0.269872,-0.288215,0,0
22222,2024 8 08,15:43:14.580,-0.298947,-0.653279,0.227619,-0.657303,-1.046294,-0.107878,0.027882,-0.389796,-0.038153,-0.342832,0,0
22223,2024 8 08,15:43:14.588,-0.298977,-0.653283,0.227612,-0.657287,-1.044689,-0.128116,0.024184,-0.204362,-0.2231,-0.359025,0,0
22224,2024 8 08,15:43:14.597,-0.298987,-0.653285,0.22761,-0.657282,-1.044201,-0.110115,0.025632,-0.147978,-0.279336,-0.363949,0,0
22225,2024 8 08,15:43:14.605,-0.299001,-0.653311,0.227599,-0.657253,-1.04769,-0.108954,0.030103,-0.089043,-0.296852,-0.448229,0,0
22226,2024 8 08,15:43:14.613,-0.299018,-0.653335,0.227576,-0.65723,-1.043235,-0.110551,0.040088,-0.02932,-0.179623,-0.51603,0,0
22227,2024 8 08,15:43:14.622,-0.299029,-0.653367,0.227546,-0.657204,-1.044376,-0.109105,0.028091,0.111671,-0.262955,-0.457102,0,0
22228,2024 8 08,15:43:14.630,-0.299035,-0.653386,0.227527,-0.657188,-1.04475,-0.125004,0.018148,0.165814,-0.280168,-0.427673,0,0
22229,2024 8 08,15:43:14.638,-0.299046,-0.653411,0.227497,-0.657169,-1.043205,-1.499766,0.690579,0.040079,-0.11069,-0.419248,0,0
22230,2024 8 08,15:43:14.647,-0.299071,-0.653415,0.227484,-0.657158,-1.041142,-0.111077,0.026351,-0.114945,-0.004864,-0.368542,0,0
22231,2024 8 08,15:43:14.655,-0.299075,-0.653417,0.227485,-0.657154,-1.042359,-0.10373,0.042269,-0.168296,-0.031376,-0.3508,0,0
22232,2024 8 08,15:43:14.663,-0.299101,-0.653419,0.227482,-0.657141,-1.048759,-0.110664,0.030206,-0.419334,-0.02204,-0.259463,0,0
22233,2024 8 08,15:43:14.672,-0.299146,-0.653369,0.227445,-0.657183,-1.039231,-0.122381,0.081463,-0.124745,0.995452,-0.308831,0,0
22234,2024 8 08,15:43:14.680,-0.299169,-0.653395,0.227437,-0.65715,-1.049509,-0.116249,0.030948,0.035356,-0.534437,-0.345693,0,0
22235,2024 8 08,15:43:14.688,-0.299189,-0.653392,0.227413,-0.657152,-1.042173,-0.111383,0.021643,-0.003422,0.405726,-0.262728,0,0
22236,2024 8 08,15:43:14.697,-0.299196,-0.653414,0.227398,-0.657131,-1.048037,-0.110481,0.03692,-0.053947,-0.324768,-0.299954,0,0
22237,2024 8 08,15:43:14.705,-0.299197,-0.653417,0.227391,-0.65713,-1.048235,-0.075578,0.018632,-0.010106,-0.334887,-0.304471,0,0
22238,2024 8 08,15:43:14.713,-0.299198,-0.653422,0.227355,-0.657138,-1.045131,-0.113985,0.039847,0.289929,0.145193,-0.298029,0,0
22239,2024 8 08,15:43:14.722,-0.299201,-0.65343,0.227319,-0.657141,-1.044615,-0.114291,0.030337,0.199968,0.19522,-0.252647,0,0
22240,2024 8 08,15:43:14.730,-0.299216,-0.653412,0.227283,-0.657165,-1.040553,-0.111623,0.025799,0.185953,0.559399,-0.231859,0,0
22241,2024 8 08,15:43:14.738,-0.299218,-0.653416,0.227261,-0.657167,-1.045278,-0.114881,0.027034,0.170075,0.147852,-0.141786,0,0
22242,2024 8 08,15:43:14.747,-0.299224,-0.574738,0.396183,-0.650521,-1.043038,-0.126971,0.02247,0.081756,0.374154,-0.125817,0,0
22243,2024 8 08,15:43:14.755,-0.299228,-0.653404,0.227232,-0.657185,-1.042934,-0.114015,0.024626,0.018981,0.396815,-0.12282,0,0
22244,2024 8 08,15:43:14.763,-0.299245,-0.653394,0.227224,-0.657189,-1.045332,-0.126462,0.013245,-0.246155,0.276224,-0.128746,0,0
22245,2024 8 08,15:43:14.772,-0.299257,-0.653378,0.227194,-0.65721,-1.047487,-0.112532,0.028702,0.003835,0.367087,-0.177594,0,0
22246,2024 8 08,15:43:14.780,-0.299272,-0.653345,0.227146,-0.657253,-1.042636,-0.115441,0.024249,0.45605,0.953692,-0.247964,0,0
22247,2024 8 08,15:43:14.788,-0.299278,-0.653345,0.227093,-0.657268,-1.046652,-0.11397,0.024887,0.71547,0.135819,-0.39077,0,0
22248,2024 8 08,15:43:14.797,-0.299276,-0.653355,0.227033,-0.65728,-1.045374,-0.112352,0.021225,0.498586,0.538825,-0.464146,0,0
22249,2024 8 08,15:43:14.805,-0.299273,-0.653361,0.227011,-0.657283,-1.045307,-0.112496,0.020967,0.463944,0.557623,-0.482095,0,0
22250,2024 8 08,15:43:14.813,-0.299265,-0.65338,0.226956,-0.657287,-1.046502,-0.0968,-0.001095,0.577634,0.136851,-0.486642,0,0
22251,2024 8 08,15:43:14.822,-0.299273,-0.653361,0.227011,-0.657283,-1.044907,-0.121013,0.053774,0.597786,0.423342,-0.493831,0,0
22252,2024 8 08,15:43:14.830,-0.299286,-0.653408,0.226842,-0.657288,-1.045566,-1.62109,0.477197,0.299844,-0.096505,-0.527767,0,0
22253,2024 8 08,15:43:14.838,-0.2993,-0.653429,0.226795,-0.657278,-1.043144,-0.115383,0.023485,0.222769,0.011878,-0.499714,0,0
22254,2024 8 08,15:43:14.847,-0.299307,-0.653457,0.226757,-0.657261,-1.043043,-0.114252,0.024824,0.237785,-0.253772,-0.491681,0,0
22255,2024 8 08,15:43:14.855,-0.29931,-0.653468,0.226743,-0.657253,-1.043381,-0.115023,0.050746,0.224996,-0.326175,-0.472113,0,0
22256,2024 8 08,15:43:14.863,-0.299317,-0.653494,0.226721,-0.657231,-1.045169,-0.095821,0.046084,0.134977,-0.277701,-0.368702,0,0
22257,2024 8 08,15:43:14.872,-0.299328,-0.653516,0.226693,-0.657214,-1.042106,-0.114116,0.021859,0.222663,-0.125909,-0.402904,0,0
22258,2024 8 08,15:43:14.880,-0.299332,-0.653556,0.226675,-0.657178,-1.043072,-0.118477,0.051014,0.067283,-0.525113,-0.356001,0,0
22259,2024 8 08,15:43:14.888,-0.299336,-0.653588,0.226665,-0.657148,-1.040019,-0.123174,0.007364,-0.029146,-0.376495,-0.18925,0,0
22260,2024 8 08,15:43:14.897,-0.299337,-0.653634,0.226677,-0.657098,-1.043939,-0.10852,0.042585,-0.181623,-0.668548,-0.001822,0,0
22261,2024 8 08,15:43:14.905,-0.299337,-0.653634,0.226677,-0.657098,-1.043976,-0.118655,0.024415,-0.183069,-0.671316,-4.5e-05,0,0
22262,2024 8 08,15:43:14.913,-0.299372,-0.653615,0.226708,-0.65709,-1.045384,-0.120231,-0.153921,-0.710704,0.266571,0.175865,0,0
22263,2024 8 08,15:43:14.922,-0.299407,-0.653558,0.226722,-0.657126,-1.040357,-0.113809,0.021181,-0.615753,0.7651,0.124966,0,0
22264,2024 8 08,15:43:14.930,-0.299403,-0.653579,0.22678,-0.657087,-1.050106,-0.113775,0.025562,-0.326198,-1.086287,0.406785,0,0
22265,2024 8 08,15:43:14.938,-0.299406,-0.653575,0.226825,-0.657074,-1.046718,-0.113773,0.027649,-0.475127,0.080087,0.313422,0,0
22266,2024 8 08,15:43:14.947,-0.299403,-0.653579,0.22678,-0.657087,-1.048658,-0.112888,0.025162,-0.155342,-0.600568,0.140103,0,0
22267,2024 8 08,15:43:14.955,-0.299403,-0.653579,0.22678,-0.657087,-1.048838,-0.112806,0.024931,-0.125629,-0.663812,0.123999,0,0
22268,2024 8 08,15:43:14.963,-0.2994,-0.653596,0.226876,-0.657038,-1.048857,-0.07618,0.014182,-0.23,-0.240463,0.068548,0,0
22269,2024 8 08,15:43:14.972,-0.299399,-0.653608,0.226876,-0.657027,-1.045042,-0.119365,0.04575,-0.083228,-0.349694,0.009003,0,0
22270,2024 8 08,15:43:14.980,-0.299397,-0.653628,0.226887,-0.657003,-1.053754,-0.117395,0.027305,-0.221122,-0.102327,0.001288,0,0
22271,2024 8 08,15:43:14.988,-0.29942,-0.653589,0.226854,-0.657044,-1.041358,-0.113538,0.059592,0.223895,0.809939,-0.154628,0,0
22272,2024 8 08,15:43:14.997,-0.299422,-0.65362,0.226855,-0.657012,-1.048841,-0.119846,0.070744,-0.01387,-0.68084,-0.12746,0,0
22273,2024 8 08,15:43:15.005,-0.299413,-0.653641,0.226839,-0.657,-1.045639,-0.114151,0.016542,0.198644,-0.120057,-0.123021,0,0
22274,2024 8 08,15:43:15.013,-0.299411,-0.653645,0.226837,-0.656998,-1.045082,-0.114638,0.013811,0.235639,-0.022435,-0.122248,0,0
22275,2024 8 08,15:43:15.022,-0.299425,-0.653666,0.226839,-0.65697,-1.047331,-0.114728,0.029381,-0.149562,-0.347446,-0.269115,0,0
22276,2024 8 08,15:43:15.030,-0.299445,-0.653674,0.226827,-0.656957,-1.041575,0.53263,0.04598,-0.03098,-0.071969,-0.249314,0,0
22277,2024 8 08,15:43:15.038,-0.299452,-0.653708,0.226815,-0.656924,-1.048427,-0.115476,0.025104,-0.054516,-0.445781,-0.340856,0,0
22278,2024 8 08,15:43:15.047,-0.299462,-0.653728,0.226796,-0.656906,-1.044985,-0.113781,0.02306,-0.012344,-0.053718,-0.36047,0,0
22279,2024 8 08,15:43:15.055,-0.299458,-0.653756,0.22678,-0.656886,-1.044961,-0.111909,0.026335,0.137035,-0.385848,-0.224913,0,0
22280,2024 8 08,15:43:15.063,-0.299457,-0.653763,0.226776,-0.656881,-1.044956,-0.111473,0.027097,0.171828,-0.463207,-0.193339,0,0
22281,2024 8 08,15:43:15.072,-0.299446,-0.653795,0.226766,-0.656857,-1.046048,-0.114283,0.029104,0.089138,-0.390814,-0.185701,0,0
22282,2024 8 08,15:43:15.080,-0.299452,-0.653708,0.226815,-0.656924,-1.042719,-0.114627,0.022403,-0.021644,-0.237588,-0.183786,0,0
22283,2024 8 08,15:43:15.088,-0.299453,-0.65384,0.226749,-0.656815,-1.045773,-0.11436,0.02565,-0.05037,-0.375894,-0.227799,0,0
22284,2024 8 08,15:43:15.097,-0.29949,-0.653823,0.226757,-0.656812,-1.044478,-0.103375,0.03004,-0.586115,0.423171,-0.151572,0,0
22285,2024 8 08,15:43:15.105,-0.299515,-0.653809,0.226752,-0.656816,-1.041684,-0.101389,0.025334,-0.864462,-0.139573,-0.261075,0,0
22286,2024 8 08,15:43:15.113,-0.299522,-0.653805,0.226751,-0.656817,-1.040891,-0.100825,0.023997,-0.943492,-0.299351,-0.292166,0,0
22287,2024 8 08,15:43:15.122,-0.299513,-0.653839,0.226752,-0.656788,-1.048831,-0.110875,0.024288,-0.285629,-0.431085,-0.25868,0,0
22288,2024 8 08,15:43:15.130,-0.299525,-0.653864,0.226752,-0.656757,-1.045146,-0.130141,0.008333,-0.130726,-0.428437,-0.206556,0,0
22289,2024 8 08,15:43:15.138,-0.299533,-0.653896,0.226745,-0.656724,-1.047347,-0.095003,0.015778,-0.083175,-0.38598,-0.273845,0,0
22290,2024 8 08,15:43:15.147,-0.299542,-0.653924,0.226739,-0.656694,-1.046391,-0.135912,0.040477,-0.150635,-0.372635,-0.294995,0,0
22291,2024 8 08,15:43:15.155,-0.299551,-0.653949,0.226726,-0.65667,-1.044126,-0.109267,0.039401,-0.009244,-0.246034,-0.261026,0,0
22292,2024 8 08,15:43:15.163,-0.299556,-0.653961,0.22672,-0.656658,-1.043006,-0.100593,0.034662,0.060691,-0.183414,-0.244223,0,0
22293,2024 8 08,15:43:15.172,-0.299557,-0.653965,0.22672,-0.656653,-1.043259,-0.105214,0.02964,0.028685,-0.215455,-0.244142,0,0
22294,2024 8 08,15:43:15.180,-0.299567,-0.65399,0.226723,-0.656622,-1.044448,-0.099198,0.048081,-0.207527,-0.364073,-0.228214,0,0
22295,2024 8 08,15:43:15.188,-0.299585,-0.653998,0.22673,-0.656604,-1.041931,-0.114545,0.060469,-0.416369,-0.041556,-0.111636,0,0
22296,2024 8 08,15:43:15.197,-0.299604,-0.654,0.226754,-0.656586,-1.043143,-0.105781,0.035765,-0.395641,-0.143203,-0.007089,0,0
22297,2024 8 08,15:43:15.205,-0.299622,-0.653991,0.226766,-0.656582,-1.043,-0.133787,0.009271,-0.260421,0.030058,0.022303,0,0
22298,2024 8 08,15:43:15.213,-0.299639,-0.653979,0.226796,-0.656575,-1.05144,-0.123287,0.012212,-0.634283,-0.052811,0.168588,0,0
22299,2024 8 08,15:43:15.222,-0.299646,-0.653969,0.226801,-0.656581,-1.049942,-0.117971,0.027975,-0.630552,0.087848,0.18901,0,0
22300,2024 8 08,15:43:15.230,-0.299679,-0.653911,0.226818,-0.656617,-1.037641,-0.116499,0.01849,-0.41866,0.751131,0.252366,0,0
22301,2024 8 08,15:43:15.238,-0.299685,-0.653919,0.226876,-0.656587,-1.04867,0.245884,-0.088768,-0.568624,-0.803311,0.337274,0,0
22302,2024 8 08,15:43:15.247,-0.299702,-0.653912,0.226925,-0.656569,-1.047323,-0.114735,0.01803,-0.786206,-0.025522,0.228728,0,0
22303,2024 8 08,15:43:15.255,-0.299732,-0.653911,0.226967,-0.656542,-1.048606,-0.104691,0.032637,-0.566838,-0.317542,0.020523,0,0
22304,2024 8 08,15:43:15.263,-0.299752,-0.653915,0.226985,-0.656522,-1.051273,-0.116062,0.020949,-0.091927,-0.051498,-0.098945,0,0
22305,2024 8 08,15:43:15.272,-0.29976,-0.653915,0.22699,-0.656517,-1.051264,-0.114987,0.020705,-0.07733,-0.015737,-0.138541,0,0
22306,2024 8 08,15:43:15.280,-0.299794,-0.653913,0.226997,-0.656501,-1.04845,-0.107489,0.026685,-0.442412,-0.086399,-0.308253,0,0
22307,2024 8 08,15:43:15.288,-0.299821,-0.653933,0.226979,-0.656475,-1.047334,-0.107938,0.028631,-0.274571,-0.311921,-0.565041,0,0
22308,2024 8 08,15:43:15.297,-0.299829,-0.653975,0.226925,-0.656448,-1.046385,-0.121169,0.064561,0.469142,-0.361698,-0.711395,0,0
22309,2024 8 08,15:43:15.305,-0.299819,-0.654036,0.226838,-0.656422,-1.052532,-0.096612,0.036443,0.958824,-0.361326,-0.830365,0,0
22310,2024 8 08,15:43:15.313,-0.299786,-0.654094,0.226721,-0.656419,-1.056126,-0.111379,0.016202,1.636079,-0.033378,-0.89649,0,0
22311,2024 8 08,15:43:15.322,-0.299776,-0.654113,0.226677,-0.656421,-1.055451,-0.112072,0.015477,1.785645,0.089691,-0.949078,0,0
22312,2024 8 08,15:43:15.330,-0.299758,-0.654155,0.22653,-0.656438,-1.045864,-0.105724,0.028332,1.782532,0.406792,-1.1762,0,0
22313,2024 8 08,15:43:15.338,-0.299737,-0.654202,0.226367,-0.656457,-1.042523,-0.114685,0.02265,1.53221,0.272598,-1.084745,0,0
22314,2024 8 08,15:43:15.347,-0.299721,-0.654256,0.226216,-0.656462,-1.040923,-0.117556,0.021309,1.34309,0.148941,-1.109664,0,0
22315,2024 8 08,15:43:15.355,-0.299722,-0.654305,0.226098,-0.656454,-1.039536,-0.119471,0.023041,0.943259,0.039946,-0.91689,0,0
22316,2024 8 08,15:43:15.363,-0.299726,-0.654342,0.226019,-0.656442,-1.038863,-0.115702,0.026861,0.569936,0.011046,-0.827589,0,0
22317,2024 8 08,15:43:15.372,-0.299727,-0.654356,0.225991,-0.656437,-1.038443,-0.115191,0.027244,0.467864,-0.026373,-0.773656,0,0
22318,2024 8 08,15:43:15.380,-0.299729,-0.654387,0.225941,-0.656422,-1.037578,-0.103669,0.023682,0.433294,-0.252783,-0.554272,0,0
22319,2024 8 08,15:43:15.388,-0.299723,-0.654424,0.225904,-0.656401,-1.041085,-0.141737,-0.020663,0.41523,-0.277768,-0.351135,0,0
22320,2024 8 08,15:43:15.397,-0.299734,-0.654402,0.225871,-0.656429,-1.036584,-0.121825,0.021994,0.501116,0.859459,-0.108151,0,0
22321,2024 8 08,15:43:15.405,-0.299737,-0.654202,0.226367,-0.656457,-1.039785,-0.117431,0.043636,-0.04518,-0.479771,-0.034117,0,0
22322,2024 8 08,15:43:15.413,-0.299723,-0.654424,0.225904,-0.656401,-1.045931,-0.091804,0.072754,-0.179928,-0.361525,-0.011011,0,0
22323,2024 8 08,15:43:15.422,-0.299718,-0.654454,0.22588,-0.656381,-1.04754,-0.105553,0.032841,-0.211898,-0.329294,0.018489,0,0
22324,2024 8 08,15:43:15.430,-0.299714,-0.654457,0.225898,-0.656375,-1.044954,-0.099167,0.019205,-0.122081,-0.366206,0.244114,0,0
22325,2024 8 08,15:43:15.438,-0.299721,-0.654256,0.226216,-0.656462,-1.040147,-0.128463,0.005153,-0.12207,0.138221,0.244136,0,0
22326,2024 8 08,15:43:15.447,-0.299701,-0.65443,0.225953,-0.656389,-1.04386,-0.113746,0.02298,-0.181238,-0.630799,0.423482,0,0
22327,2024 8 08,15:43:15.455,-0.299655,-0.65444,0.225962,-0.656396,-1.043039,-0.113306,0.027148,0.283216,0.437758,0.485356,0,0
22328,2024 8 08,15:43:15.463,-0.299598,-0.65445,0.225954,-0.656415,-1.048056,-0.07392,0.020355,0.41871,-0.375979,0.43069,0,0
22329,2024 8 08,15:43:15.472,-0.299568,-0.654414,0.225928,-0.656474,-1.047896,-0.114525,0.021191,0.652947,1.500247,0.314336,0,0
22330,2024 8 08,15:43:15.480,-0.299566,-0.654411,0.225926,-0.656478,-1.047885,-0.114284,0.021013,0.669795,1.635203,0.305966,0,0
22331,2024 8 08,15:43:15.488,-0.299532,-0.654401,0.225892,-0.656515,-1.051402,-0.135909,0.003018,0.506293,0.162265,0.140319,0,0
22332,2024 8 08,15:43:15.497,-0.299492,-0.654405,0.225827,-0.656552,-1.049144,-0.116578,0.018158,0.869771,0.831305,-0.146943,0,0
22333,2024 8 08,15:43:15.505,-0.299474,-0.590954,0.411331,-0.626016,-1.049323,-0.114976,0.023639,0.802923,0.370437,-0.285549,0,0
22334,2024 8 08,15:43:15.513,-0.299459,-0.654406,0.225668,-0.656621,-1.04386,-0.113746,0.02298,0.742006,0.630476,-0.407984,0,0
22335,2024 8 08,15:43:15.522,-0.299448,-0.654413,0.225576,-0.656651,-1.042711,-0.117668,0.029145,0.837898,0.405195,-0.528467,0,0
22336,2024 8 08,15:43:15.530,-0.299446,-0.653795,0.226766,-0.656857,-1.042544,-0.107783,0.049704,0.851857,0.372401,-0.546006,0,0
22337,2024 8 08,15:43:15.538,-0.299442,-0.65442,0.225493,-0.656675,-1.042518,-0.113281,0.020536,0.752699,0.417935,-0.447408,0,0
22338,2024 8 08,15:43:15.547,-0.299435,-0.654436,0.22542,-0.656687,-1.044914,-0.1202,0.017132,0.686061,0.275505,-0.430885,0,0
22339,2024 8 08,15:43:15.555,-0.299433,-0.654433,0.225351,-0.656715,-1.04139,-0.094446,0.036565,0.427268,0.743968,-0.279789,0,0
22340,2024 8 08,15:43:15.563,-0.299427,-0.654414,0.225294,-0.656757,-1.045408,-0.116851,0.020486,0.622306,0.490925,-0.056253,0,0
22341,2024 8 08,15:43:15.572,-0.299422,-0.65362,0.226855,-0.657012,-1.053911,-0.11134,0.027054,0.131285,1.211222,-0.108185,0,0
22342,2024 8 08,15:43:15.580,-0.299421,-0.654379,0.225228,-0.656817,-1.055683,-0.110192,0.028422,0.028966,1.361318,-0.119007,0,0
22343,2024 8 08,15:43:15.588,-0.299436,-0.654279,0.225139,-0.656939,-1.039903,-0.110643,0.076701,0.570581,2.192915,-0.027379,0,0
22344,2024 8 08,15:43:15.597,-0.299445,-0.653674,0.226827,-0.656957,-1.04746,-0.095438,0.007372,0.507973,0.896155,-0.145844,0,0
22345,2024 8 08,15:43:15.605,-0.299463,-0.654176,0.225024,-0.65707,-1.040437,-0.115846,0.024416,0.126111,1.461306,-0.127973,0,0
22346,2024 8 08,15:43:15.613,-0.299472,-0.654138,0.224975,-0.65712,-1.042342,-0.128157,0.01383,0.349841,0.647698,-0.123587,0,0
22347,2024 8 08,15:43:15.622,-0.299472,-0.654138,0.224975,-0.65712,-1.047129,-0.116162,0.026674,0.496332,0.575449,-0.256942,0,0
22348,2024 8 08,15:43:15.630,-0.299472,-0.654138,0.224975,-0.65712,-1.048386,-0.077548,0.020954,0.534798,0.556477,-0.29196,0,0
22349,2024 8 08,15:43:15.638,-0.299477,-0.65412,0.224852,-0.657177,-1.045221,-0.099967,0.039377,0.501408,0.551337,-0.389069,0,0
22350,2024 8 08,15:43:15.647,-0.299487,-0.654119,0.224793,-0.657194,-1.049537,-0.111432,0.028027,0.275478,0.636548,-0.502812,0,0
22351,2024 8 08,15:43:15.655,-0.299499,-0.654105,0.224698,-0.657235,-1.049747,-0.113761,0.019322,0.553391,0.832381,-0.749678,0,0
22352,2024 8 08,15:43:15.663,-0.299506,-0.654106,0.224585,-0.657269,-1.052861,-0.126451,0.014994,0.889576,0.847733,-0.822451,0,0
22353,2024 8 08,15:43:15.672,-0.299549,-0.654061,0.22445,-0.65734,-1.046759,-0.099895,0.013102,0.655884,1.69076,-0.928295,0,0
22354,2024 8 08,15:43:15.680,-0.299562,-0.654048,0.224409,-0.657362,-1.044869,-0.126233,0.035452,0.583475,1.951972,-0.961091,0,0
22355,2024 8 08,15:43:15.688,-0.299608,-0.653998,0.224317,-0.657422,-1.044926,-0.117305,0.024313,0.314312,1.747581,-0.889426,0,0
22356,2024 8 08,15:43:15.697,-0.299673,-0.653919,0.224207,-0.657508,-1.041696,-0.131,0.010005,0.186422,2.087341,-0.90679,0,0
22357,2024 8 08,15:43:15.705,-0.299715,-0.65387,0.224135,-0.657563,-1.041068,-0.116284,0.030151,0.139098,2.182971,-0.923595,0,0
22358,2024 8 08,15:43:15.713,-0.299794,-0.653913,0.226997,-0.656501,-1.047102,-0.115599,0.028974,0.152989,1.777601,-1.007332,0,0
22359,2024 8 08,15:43:15.722,-0.299904,-0.653704,0.223907,-0.657719,-1.04632,-0.109455,0.041385,-0.245273,2.018703,-1.212008,0,0
22360,2024 8 08,15:43:15.730,-0.299952,-0.653657,0.223766,-0.657792,-1.04549,-0.113997,0.020734,0.736326,1.37995,-1.220225,0,0
22361,2024 8 08,15:43:15.738,-0.29996,-0.653652,0.223738,-0.657802,-1.045876,-0.10892,0.038321,0.858686,1.360702,-1.228355,0,0
22362,2024 8 08,15:43:15.747,-0.300002,-0.653632,0.223586,-0.657855,-1.047403,-0.121658,0.031287,1.219637,1.494145,-1.292494,0,0
22363,2024 8 08,15:43:15.755,-0.300072,-0.653583,0.223412,-0.657931,-1.040663,-0.098712,0.044506,0.723646,1.639198,-1.400664,0,0
22364,2024 8 08,15:43:15.763,-0.300118,-0.653581,0.22325,-0.657967,-1.043748,-0.118127,0.030716,0.662308,1.015773,-1.457912,0,0
22365,2024 8 08,15:43:15.772,-0.300184,-0.653567,0.223105,-0.658,-1.037344,-0.120252,0.025359,0.512097,1.037844,-1.45675,0,0
22366,2024 8 08,15:43:15.780,-0.300251,-0.653564,0.223001,-0.658008,-1.040981,-0.133017,0.005933,0.173687,0.719884,-1.410815,0,0
22367,2024 8 08,15:43:15.788,-0.300268,-0.596265,0.39361,-0.631963,-1.041512,-0.12018,0.032605,0.136568,0.657179,-1.397753,0,0
22368,2024 8 08,15:43:15.797,-0.30033,-0.653568,0.222881,-0.658008,-1.041889,-0.120375,0.03505,0.238608,0.521495,-1.351316,0,0
22369,2024 8 08,15:43:15.805,-0.300377,-0.653581,0.222761,-0.658015,-1.04198,-0.119404,0.029881,0.62271,0.503411,-1.344195,0,0
22370,2024 8 08,15:43:15.813,-0.300423,-0.653606,0.222644,-0.658008,-1.044372,-0.120027,0.030671,0.532477,0.253454,-1.336235,0,0
22371,2024 8 08,15:43:15.822,-0.300466,-0.651669,0.25509,-0.64795,-1.044716,-0.108891,0.046035,0.618495,0.268652,-1.305376,0,0
22372,2024 8 08,15:43:15.830,-0.300508,-0.653673,0.222428,-0.657976,-1.046473,-0.122202,0.030744,0.465109,0.102139,-1.384321,0,0
22373,2024 8 08,15:43:15.838,-0.300521,-0.653681,0.222397,-0.657972,-1.046032,-0.071352,0.047008,0.428584,0.102266,-1.380147,0,0
22374,2024 8 08,15:43:15.847,-0.300562,-0.653696,0.222308,-0.657969,-1.041555,-0.120951,0.029987,0.353966,0.276468,-1.242503,0,0
22375,2024 8 08,15:43:15.855,-0.300615,-0.653717,0.222231,-0.65795,-1.043773,-0.120707,0.028679,0.162004,0.122739,-1.150454,0,0
22376,2024 8 08,15:43:15.863,-0.300676,-0.653738,0.222155,-0.657927,-1.04144,-0.126005,0.036864,0.082419,0.149926,-1.250692,0,0
22377,2024 8 08,15:43:15.872,-0.300729,-0.653772,0.222066,-0.657899,-1.040248,-0.118286,0.033735,0.348803,0.005681,-1.280341,0,0
22378,2024 8 08,15:43:15.880,-0.300766,-0.653817,0.221978,-0.657867,-1.045941,-0.114414,0.045405,0.4528,-0.226099,-1.326892,0,0
22379,2024 8 08,15:43:15.888,-0.300778,-0.653836,0.221944,-0.657855,-1.046886,-0.07557,0.022297,0.515441,-0.284377,-1.356842,0,0
22380,2024 8 08,15:43:15.897,-0.300802,-0.653895,0.22184,-0.65782,-1.044248,-0.120317,0.034994,0.762452,-0.311554,-1.467967,0,0
22381,2024 8 08,15:43:15.905,-0.300821,-0.653969,0.221714,-0.657779,-1.044899,-0.122125,0.034189,0.840636,-0.388941,-1.427699,0,0
22382,2024 8 08,15:43:15.913,-0.30084,-0.654042,0.221585,-0.657742,-1.045793,-0.123922,0.029558,0.908057,-0.349241,-1.442399,0,0
22383,2024 8 08,15:43:15.922,-0.300865,-0.654106,0.221462,-0.657709,-1.044672,-0.12526,0.023463,0.706485,-0.177611,-1.360604,0,0
22384,2024 8 08,15:43:15.930,-0.300897,-0.654158,0.221355,-0.657678,-1.043167,-0.126939,0.023768,0.426924,-0.053883,-1.257397,0,0
22385,2024 8 08,15:43:15.938,-0.300937,-0.654196,0.221272,-0.65765,-1.042716,-0.103507,0.056076,0.34303,-0.016754,-1.190054,0,0
22386,2024 8 08,15:43:15.947,-0.300953,-0.654211,0.22124,-0.657638,-1.043072,-0.118477,0.051014,0.289096,-0.02221,-1.158088,0,0
22387,2024 8 08,15:43:15.955,-0.300993,-0.654237,0.221185,-0.657612,-1.04605,-0.075587,0.020039,0.094111,-0.075067,-1.071256,0,0
22388,2024 8 08,15:43:15.963,-0.301045,-0.654256,0.221123,-0.657591,-1.045451,-0.11882,0.028705,0.025795,0.205093,-1.013566,0,0
22389,2024 8 08,15:43:15.972,-0.301099,-0.654297,0.221031,-0.657556,-1.046413,-0.12485,0.022594,-0.060497,-0.180698,-1.037449,0,0
22390,2024 8 08,15:43:15.980,-0.301126,-0.654323,0.220918,-0.657556,-1.041163,-0.124424,0.020912,0.655659,0.354458,-1.097318,0,0
22391,2024 8 08,15:43:15.988,-0.301148,-0.654355,0.220812,-0.657549,-1.041052,-0.124561,0.033012,0.847272,0.130509,-1.098585,0,0
22392,2024 8 08,15:43:15.997,-0.301149,-0.654357,0.220808,-0.657549,-1.041048,-0.124518,0.033194,0.854126,0.122498,-1.09863,0,0
22393,2024 8 08,15:43:16.005,-0.301152,-0.6544,0.220702,-0.65754,-1.043788,-0.124516,0.023156,0.797379,0.065009,-1.041544,0,0
22394,2024 8 08,15:43:16.013,-0.30116,-0.654437,0.220599,-0.657534,-1.038561,-0.127216,0.031518,0.793764,0.117608,-0.925383,0,0
22395,2024 8 08,15:43:16.022,-0.301171,-0.654481,0.220504,-0.657517,-1.041264,-0.117243,0.055196,0.627111,-0.155628,-0.916428,0,0
22396,2024 8 08,15:43:16.030,-0.301168,-0.593785,0.385208,-0.639008,-1.043694,-0.10059,-0.01147,0.612097,-0.289597,-0.806267,0,0
22397,2024 8 08,15:43:16.038,-0.301158,-0.654578,0.22034,-0.657481,-1.040925,-0.127385,0.031562,0.718391,-0.249441,-0.633198,0,0
22398,2024 8 08,15:43:16.047,-0.301157,-0.654584,0.220331,-0.657479,-1.040606,-0.128326,0.012116,0.730616,-0.244823,-0.613292,0,0
22399,2024 8 08,15:43:16.055,-0.301141,-0.654626,0.220264,-0.657467,-1.039726,-0.116882,0.048403,0.679708,-0.191776,-0.558304,0,0
22400,2024 8 08,15:43:16.063,-0.301154,-0.654621,0.220221,-0.657481,-1.045816,-0.114871,0.033618,-0.259051,0.643757,-0.188353,0,0
22401,2024 8 08,15:43:16.072,-0.301147,-0.654597,0.220158,-0.657529,-1.039373,-0.136837,0.011204,0.672872,0.309319,-0.132881,0,0
22402,2024 8 08,15:43:16.080,-0.301154,-0.654621,0.220221,-0.657481,-1.038739,-0.114623,0.057652,0.167476,0.205063,-0.123951,0,0
22403,2024 8 08,15:43:16.088,-0.301128,-0.65461,0.220129,-0.657533,-1.037436,-0.143396,0.05609,-0.018862,-0.061695,0.176206,0,0
22404,2024 8 08,15:43:16.097,-0.301123,-0.654611,0.220125,-0.657537,-1.037199,-0.121268,0.031111,-0.052816,-0.110304,0.230902,0,0
22405,2024 8 08,15:43:16.105,-0.301099,-0.654297,0.221031,-0.657556,-1.0422,-0.116888,0.04449,0.134755,0.317079,0.33848,0,0
22406,2024 8 08,15:43:16.113,-0.301089,-0.654597,0.220152,-0.657557,-1.048197,-0.191642,-0.070054,-0.450335,-0.075687,0.45611,0,0
22407,2024 8 08,15:43:16.122,-0.301078,-0.654571,0.220169,-0.657582,-1.038864,-0.127504,0.027913,-0.101025,0.267079,0.386378,0,0
22408,2024 8 08,15:43:16.130,-0.301059,-0.654571,0.220192,-0.657583,-1.042782,-0.127233,0.008086,0.116711,-0.218226,0.370924,0,0
22409,2024 8 08,15:43:16.138,-0.301034,-0.654578,0.220205,-0.657583,-1.040359,-0.121357,0.025963,0.028337,-0.145417,0.321139,0,0
22410,2024 8 08,15:43:16.147,-0.301028,-0.65458,0.220208,-0.657583,-1.039778,-0.070708,0.015721,0.007133,-0.127947,0.309194,0,0
22411,2024 8 08,15:43:16.155,-0.301005,-0.654587,0.220227,-0.65758,-1.043606,-0.125006,0.025632,-0.223849,-0.213883,0.396505,0,0
22412,2024 8 08,15:43:16.163,-0.30097,-0.654585,0.220245,-0.657592,-1.038522,-0.120361,0.018103,-0.060194,-0.057515,0.463602,0,0
22413,2024 8 08,15:43:16.172,-0.300928,-0.654596,0.220273,-0.657591,-1.045641,-0.107803,0.052761,-0.016687,-0.192405,0.613786,0,0
22414,2024 8 08,15:43:16.180,-0.300923,-0.654552,0.220319,-0.657622,-1.040613,-0.120767,0.027038,-0.615437,0.512157,0.742191,0,0
22415,2024 8 08,15:43:16.188,-0.300903,-0.564311,0.396594,-0.658574,-1.039885,-0.114414,0.064582,-0.482438,0.279608,0.821557,0,0
22416,2024 8 08,15:43:16.197,-0.300897,-0.654158,0.221355,-0.657678,-1.039673,-0.127746,0.024201,-0.443861,0.212157,0.844577,0,0
22417,2024 8 08,15:43:16.205,-0.300874,-0.654483,0.220431,-0.657675,-1.047713,-0.115798,0.012549,-0.263584,-0.145508,0.809235,0,0
22418,2024 8 08,15:43:16.213,-0.300873,-0.654429,0.220505,-0.657705,-1.042152,-0.12388,0.030804,-0.459005,0.580166,0.881931,0,0
22419,2024 8 08,15:43:16.222,-0.300856,-0.654394,0.220586,-0.657721,-1.041074,-0.115404,0.054031,-0.685313,-0.184103,0.945964,0,0
22420,2024 8 08,15:43:16.230,-0.300828,-0.654363,0.220654,-0.657741,-1.048576,-0.122156,0.029461,-0.430799,0.18435,0.843856,0,0
22421,2024 8 08,15:43:16.238,-0.300808,-0.654346,0.220693,-0.657754,-1.050756,-0.125825,-0.006892,-0.23943,0.316504,0.785289,0,0
22422,2024 8 08,15:43:16.247,-0.300773,-0.65433,0.220723,-0.657776,-1.041211,-0.121614,0.029276,0.175977,0.00534,0.733314,0,0
22423,2024 8 08,15:43:16.255,-0.300765,-0.654332,0.22073,-0.657775,-1.041692,-0.126068,0.010407,0.142929,-0.05576,0.73245,0,0
22424,2024 8 08,15:43:16.263,-0.300712,-0.654344,0.220777,-0.657772,-1.044664,-0.108913,-0.007981,-0.054696,-0.370677,0.748164,0,0
22425,2024 8 08,15:43:16.272,-0.300649,0.657128,0.2043,0.660344,-1.039109,-0.12881,0.024824,0.236903,-0.199127,0.85582,0,0
22426,2024 8 08,15:43:16.280,-0.300584,-0.654353,0.220867,-0.657791,-1.044141,-0.116275,0.054903,-0.031314,-0.381207,0.96459,0,0
22427,2024 8 08,15:43:16.288,-0.300531,-0.654301,0.22093,-0.657846,-1.036536,-0.131576,0.025855,-0.010268,0.69974,1.34738,0,0
22428,2024 8 08,15:43:16.297,-0.300467,-0.596716,0.386842,-0.635612,-1.036641,-0.133131,0.028952,-0.055943,-0.20438,1.617801,0,0
22429,2024 8 08,15:43:16.305,-0.30045,-0.654258,0.221027,-0.657893,-1.036886,-0.132231,0.028322,-0.053139,-0.213266,1.673833,0,0
22430,2024 8 08,15:43:16.313,-0.300372,-0.654224,0.221132,-0.657928,-1.039546,-0.124267,0.0239,-0.100514,0.243201,1.886458,0,0
22431,2024 8 08,15:43:16.322,-0.300287,-0.654171,0.22126,-0.657976,-1.046423,-0.105651,0.051603,-0.620227,0.037604,2.027985,0,0
22432,2024 8 08,15:43:16.330,-0.300192,-0.654115,0.221371,-0.658038,-1.042902,-0.119457,0.046316,-0.231172,0.292092,1.912267,0,0
22433,2024 8 08,15:43:16.338,-0.300104,-0.654071,0.221496,-0.658079,-1.043362,-0.11041,0.050287,-0.361255,-0.109949,1.923051,0,0
22434,2024 8 08,15:43:16.347,-0.300012,-0.654027,0.221599,-0.65813,-1.040632,-0.123813,0.031533,-0.162895,0.133087,2.099845,0,0
22435,2024 8 08,15:43:16.355,-0.299981,-0.654017,0.221631,-0.658144,-1.040497,-0.12495,0.030848,-0.10245,0.106474,2.156656,0,0
22436,2024 8 08,15:43:16.363,-0.299863,-0.653993,0.221748,-0.658182,-1.042094,-0.126391,0.029531,0.018985,-0.304892,2.384164,0,0
22437,2024 8 08,15:43:16.372,-0.299729,-0.654387,0.225941,-0.656422,-1.038804,-0.128065,0.024047,-0.370086,-0.203714,2.755056,0,0
22438,2024 8 08,15:43:16.380,-0.299602,-0.653879,0.222114,-0.65829,-1.033583,-0.128107,0.023744,-0.746753,0.090747,3.076059,0,0
22439,2024 8 08,15:43:16.388,-0.299486,-0.653791,0.222373,-0.658343,-1.03924,-0.128776,0.025527,-1.477978,-0.133976,3.434756,0,0
22440,2024 8 08,15:43:16.397,-0.299394,-0.653654,0.222685,-0.658416,-1.039097,-0.125209,0.030181,-2.150501,0.446196,3.81645,0,0
22441,2024 8 08,15:43:16.405,-0.299339,-0.653473,0.222983,-0.658519,-1.036497,-0.120229,0.029139,-2.464347,1.220331,4.023848,0,0
22442,2024 8 08,15:43:16.413,-0.299314,-0.653415,0.223089,-0.658552,-1.036575,-0.119791,0.028941,-2.483013,1.218026,4.079241,0,0
22443,2024 8 08,15:43:16.422,-0.299227,-0.653282,0.223376,-0.658627,-1.042158,-0.122033,0.029255,-2.257525,0.287176,4.132051,0,0
22444,2024 8 08,15:43:16.430,-0.29918,-0.653082,0.223731,-0.658725,-1.049999,-0.108121,0.029306,-2.932184,1.429455,4.078904,0,0
22445,2024 8 08,15:43:16.438,-0.299127,-0.652899,0.224053,-0.658822,-1.047068,-0.107961,0.028276,-2.728106,0.586453,3.619852,0,0
22446,2024 8 08,15:43:16.447,-0.299048,-0.652785,0.224348,-0.65887,-1.055735,-0.113491,0.033447,-1.94758,-0.114482,3.266829,0,0
22447,2024 8 08,15:43:16.455,-0.299001,-0.653311,0.227599,-0.657253,-1.060555,0.084909,-0.184603,-1.691821,-0.422836,2.681496,0,0
22448,2024 8 08,15:43:16.463,-0.298984,-0.652675,0.224685,-0.658893,-1.060784,-0.106707,0.02385,-1.624036,-0.499963,2.443665,0,0
22449,2024 8 08,15:43:16.472,-0.298951,-0.65264,0.224849,-0.658887,-1.053163,-0.107141,0.030907,-1.543305,-0.529667,1.899695,0,0
22450,2024 8 08,15:43:16.480,-0.298907,-0.652633,0.224996,-0.658864,-1.048444,-0.109011,0.043268,-0.869151,-1.011748,1.483568,0,0
22451,2024 8 08,15:43:16.488,-0.298852,-0.652652,0.225115,-0.65883,-1.046361,-0.109637,0.035406,-0.411242,-1.092091,1.11137,0,0
22452,2024 8 08,15:43:16.497,-0.298771,-0.652737,0.225211,-0.658749,-1.044618,-0.110341,0.036391,-0.025305,-2.044954,0.815837,0,0
22453,2024 8 08,15:43:16.505,-0.298678,-0.65285,0.225283,-0.658655,-1.038999,-0.111973,0.033624,0.275493,-2.389602,0.719825,0,0
22454,2024 8 08,15:43:16.513,-0.298633,-0.652906,0.225318,-0.658608,-1.036199,-0.112786,0.032245,0.425393,-2.561354,0.671978,0,0
22455,2024 8 08,15:43:16.522,-0.298516,-0.653065,0.2254,-0.658475,-1.047564,-0.114221,0.034128,0.249091,-2.563419,0.671403,0,0
22456,2024 8 08,15:43:16.530,-0.298429,-0.653168,0.227831,-0.657574,-1.031029,-0.117534,0.016402,-0.281917,-2.680422,0.671387,0,0
22457,2024 8 08,15:43:16.538,-0.298349,-0.653313,0.225635,-0.658224,-1.034493,2.167644,0.161689,-0.591901,-2.397228,1.074631,0,0
22458,2024 8 08,15:43:16.547,-0.29824,-0.653433,0.225794,-0.658099,-1.026511,-0.115379,0.036349,-0.60906,-2.949191,1.380774,0,0
22459,2024 8 08,15:43:16.555,-0.298106,-0.653103,0.228133,-0.657681,-1.023275,-0.121963,0.041523,-0.442406,-2.763475,2.073241,0,0
22460,2024 8 08,15:43:16.563,-0.298095,-0.653073,0.228177,-0.657701,-1.023009,-0.122505,0.041948,-0.428707,-2.748211,2.130158,0,0
22461,2024 8 08,15:43:16.572,-0.297948,-0.653655,0.226239,-0.657859,-1.026899,-0.118206,0.034158,-0.590542,-3.671201,2.461842,0,0
22462,2024 8 08,15:43:16.580,-0.297778,-0.653813,0.226553,-0.657671,-1.036756,-0.116027,0.017446,-1.03697,-4.253119,2.712025,0,0
22463,2024 8 08,15:43:16.588,-0.29764,-0.653965,0.226951,-0.657445,-1.042591,-0.111534,0.009097,-2.730222,-4.322779,2.953563,0,0
22464,2024 8 08,15:43:16.597,-0.297519,-0.654097,0.227381,-0.657219,-1.057136,0.243416,0.037567,-2.900769,-4.592873,3.089707,0,0
22465,2024 8 08,15:43:16.605,-0.297498,-0.654125,0.227839,-0.657043,-1.047682,-0.111471,0.010852,-3.543094,-2.674742,2.954702,0,0
22466,2024 8 08,15:43:16.613,-0.297495,-0.654129,0.22791,-0.657015,-1.046224,-0.116537,0.013185,-3.64219,-2.378819,2.933874,0,0
22467,2024 8 08,15:43:16.622,-0.29746,-0.651023,0.227515,-0.660245,-1.045983,-0.098164,0.020457,-3.809051,-3.032218,3.080923,0,0
22468,2024 8 08,15:43:16.630,-0.297435,-0.654141,0.228692,-0.656759,-1.040393,-0.115616,0.04308,-3.442206,-2.404267,2.859165,0,0
22469,2024 8 08,15:43:16.638,-0.29741,-0.654185,0.229105,-0.656582,-1.050306,-0.100378,0.019132,-3.813986,-3.314217,2.524468,0,0
22470,2024 8 08,15:43:16.647,-0.297372,-0.654248,0.229476,-0.656407,-1.052639,-0.108272,0.02138,-2.776282,-3.251432,2.217291,0,0
22471,2024 8 08,15:43:16.655,-0.297346,-0.654325,0.229814,-0.656224,-1.050831,-0.101123,0.024896,-2.419184,-3.286182,1.867754,0,0
22472,2024 8 08,15:43:16.663,-0.29734,-0.654341,0.229887,-0.656185,-1.05044,-0.09958,0.025656,-2.342101,-3.293683,1.792303,0,0
22473,2024 8 08,15:43:16.672,-0.297311,-0.65086,0.227191,-0.660584,-1.049235,-0.102957,0.01726,-2.417846,-3.574699,1.449426,0,0
22474,2024 8 08,15:43:16.680,-0.297295,-0.654561,0.230391,-0.655809,-1.051161,-0.110373,0.020076,-2.20559,-3.732586,1.047022,0,0
22475,2024 8 08,15:43:16.688,-0.297312,-0.654699,0.230653,-0.655571,-1.046537,-0.108614,0.053038,-2.381245,-3.816481,0.630826,0,0
22476,2024 8 08,15:43:16.697,-0.297354,-0.654866,0.230927,-0.655289,-1.051483,-0.119214,0.007976,-2.785042,-4.37689,0.256249,0,0
22477,2024 8 08,15:43:16.705,-0.297418,-0.655047,0.231174,-0.654992,-1.054905,-0.134692,0.024376,-2.534931,-4.300883,-0.1968,0,0
22478,2024 8 08,15:43:16.713,-0.297435,-0.654141,0.228692,-0.656759,-1.055826,-0.10299,0.017746,-2.46763,-4.28043,-0.318709,0,0
22479,2024 8 08,15:43:16.722,-0.297511,-0.655243,0.231408,-0.654671,-1.055734,-0.101629,0.021796,-2.4924,-4.23133,-0.613088,0,0
22480,2024 8 08,15:43:16.730,-0.297606,-0.655411,0.23158,-0.654399,-1.05124,-0.108113,0.0123,-2.327669,-3.873729,-0.868858,0,0
22481,2024 8 08,15:43:16.738,-0.297711,-0.655576,0.231742,-0.654128,-1.050603,-0.109333,0.007478,-2.27939,-3.42909,-0.901339,0,0
22482,2024 8 08,15:43:16.747,-0.297829,-0.655717,0.231892,-0.653879,-1.05848,-0.110709,0.004011,-2.34891,-3.043257,-0.953127,0,0
22483,2024 8 08,15:43:16.755,-0.297985,-0.655818,0.23203,-0.653658,-1.059245,-0.106144,0.008263,-2.619756,-2.300791,-1.176937,0,0
22484,2024 8 08,15:43:16.763,-0.298035,-0.65585,0.232073,-0.653588,-1.059486,-0.104704,0.009605,-2.70522,-2.066511,-1.247559,0,0
22485,2024 8 08,15:43:16.772,-0.298165,-0.655882,0.232145,-0.653472,-1.057284,-0.106519,0.008735,-2.447912,-1.339733,-1.27035,0,0
22486,2024 8 08,15:43:16.780,-0.298256,-0.655897,0.232192,-0.653398,-1.056455,-0.107484,0.008239,-2.336682,-0.938334,-1.273462,0,0
22487,2024 8 08,15:43:16.788,-0.298447,-0.655899,0.23227,-0.653281,-1.057841,-0.107452,0.008919,-2.479348,-0.67746,-1.278358,0,0
22488,2024 8 08,15:43:16.797,-0.298669,-0.655903,0.232341,-0.653151,-1.054404,-0.104225,0.016289,-2.641236,-0.655729,-1.713505,0,0
22489,2024 8 08,15:43:16.805,-0.298894,-0.655924,0.232347,-0.653024,-1.045483,-0.101265,0.018738,-1.905853,-0.625258,-2.276983,0,0
22490,2024 8 08,15:43:16.813,-0.29906,-0.655991,0.232301,-0.652897,-1.062779,-0.098353,0.014918,-0.980698,-1.067481,-2.601642,0,0
22491,2024 8 08,15:43:16.822,-0.299092,-0.656005,0.232278,-0.652878,-1.063293,-0.11321,0.040227,-0.79153,-0.951799,-2.69108,0,0
22492,2024 8 08,15:43:16.830,-0.299251,-0.656071,0.232116,-0.652795,-1.058302,-0.105059,0.010195,0.105002,0.042281,-3.189109,0,0
22493,2024 8 08,15:43:16.838,-0.299424,-0.656133,0.231872,-0.652741,-1.051708,-0.100941,0.017368,0.715167,0.642108,-3.67141,0,0
22494,2024 8 08,15:43:16.847,-0.299576,-0.656206,0.23154,-0.652715,-1.05886,-0.100992,0.011592,1.532452,1.002754,-4.115889,0,0
22495,2024 8 08,15:43:16.855,-0.299718,-0.654454,0.22588,-0.656381,-1.052822,-0.128104,0.018168,2.28475,4.803905,-7.151911,0,0
22496,2024 8 08,15:43:16.863,-0.299877,-0.656327,0.230675,-0.652762,-1.052037,-0.106424,0.014486,2.577926,2.033016,-4.845685,0,0
22497,2024 8 08,15:43:16.872,-0.299997,-0.656395,0.230217,-0.6528,-1.047278,-0.109754,0.003456,3.289533,1.65512,-5.135653,0,0
22498,2024 8 08,15:43:16.880,-0.300035,-0.656416,0.230092,-0.652805,-1.046725,-0.074149,0.016959,3.252022,1.618799,-5.193202,0,0
22499,2024 8 08,15:43:16.888,-0.300191,-0.656495,0.229661,-0.652805,-1.04572,-0.110049,0.019558,2.413063,1.791243,-5.323672,0,0
22500,2024 8 08,15:43:16.897,-0.300384,-0.656559,0.229157,-0.652829,-1.034078,-0.118543,0.009475,2.616111,1.927026,-5.574613,0,0
22501,2024 8 08,15:43:16.905,-0.300617,-0.656671,0.228709,-0.652767,-1.037029,-0.11926,0.014793,1.525635,0.773903,-5.705461,0,0
22502,2024 8 08,15:43:16.913,-0.300892,-0.656777,0.228309,-0.652673,-1.034341,-0.119284,0.015495,0.882537,0.74874,-5.737307,0,0
22503,2024 8 08,15:43:16.922,-0.301143,-0.605769,-0.062423,-0.73365,-1.040751,-0.130217,0.004666,0.669027,-0.125861,-5.785183,0,0
22504,2024 8 08,15:43:16.930,-0.301232,-0.656925,0.22787,-0.652522,-1.042832,-0.12536,-0.01202,0.495664,-0.299312,-5.795378,0,0
22505,2024 8 08,15:43:16.938,-0.301508,-0.657037,0.227616,-0.65237,-1.05151,-0.123439,0.005226,-0.30682,-0.092811,-5.709195,0,0
22506,2024 8 08,15:43:16.947,-0.30183,-0.657088,0.227309,-0.652276,-1.072993,-0.127986,-0.004825,-0.194509,1.174169,-5.186436,0,0
22507,2024 8 08,15:43:16.955,-0.302213,-0.657068,0.226969,-0.652238,-1.054499,-0.122885,0.009142,0.01876,2.60489,-5.44041,0,0
22508,2024 8 08,15:43:16.963,-0.302572,-0.657027,0.226556,-0.652256,-1.054184,-0.111648,0.019792,0.549749,2.942437,-5.73295,0,0
22509,2024 8 08,15:43:16.972,-0.302886,-0.656988,0.226125,-0.652299,-1.055645,-0.116767,0.018532,0.995227,3.646395,-6.271083,0,0
22510,2024 8 08,15:43:16.980,-0.303002,-0.656969,0.22595,-0.652325,-1.059181,-0.117893,0.017767,1.245073,3.953221,-6.390686,0,0
22511,2024 8 08,15:43:16.988,-0.303276,-0.6569,0.22545,-0.65244,-1.078213,-0.115516,0.016211,2.148716,4.814826,-6.414223,0,0
22512,2024 8 08,15:43:16.997,-0.303614,-0.656823,0.224796,-0.652586,-1.072854,-0.109767,0.020408,2.60472,5.312474,-7.385234,0,0
22513,2024 8 08,15:43:17.005,-0.303967,-0.65675,0.223997,-0.65277,-1.07487,-0.122444,0.002538,3.711699,6.166706,-8.271183,0,0
22514,2024 8 08,15:43:17.013,-0.304395,-0.656664,0.223116,-0.652958,-1.061635,-0.079891,0.024221,3.671746,6.690482,-9.636203,0,0
22515,2024 8 08,15:43:17.022,-0.304817,-0.65658,0.222232,-0.653148,-1.051237,-0.097346,0.010677,3.623455,6.706461,-10.558761,0,0
22516,2024 8 08,15:43:17.030,-0.304998,-0.656553,0.221861,-0.653217,-1.049944,-0.128256,0.02109,3.586007,6.638937,-10.875714,0,0
22517,2024 8 08,15:43:17.038,-0.305418,-0.656545,0.221056,-0.653301,-1.063018,-0.12781,0.024127,3.482456,6.036832,-11.324991,0,0
22518,2024 8 08,15:43:17.047,-0.306153,-0.656592,0.219753,-0.65335,-1.079577,-0.119168,0.030257,3.905083,4.581653,-13.178478,0,0
22519,2024 8 08,15:43:17.055,-0.306787,-0.656639,0.218619,-0.653385,-1.094005,-0.116748,0.023083,3.606591,6.015973,-13.962561,0,0
22520,2024 8 08,15:43:17.063,-0.307494,-0.656756,0.217379,-0.653349,-1.087653,-0.126619,0.007846,3.89634,4.86127,-15.806089,0,0
22521,2024 8 08,15:43:17.072,-0.308359,-0.656842,0.216046,-0.653297,-1.08233,-0.142754,0.013395,3.905779,6.393247,-17.7264,0,0
22522,2024 8 08,15:43:17.080,-0.3084,-0.656846,0.215984,-0.653294,-1.082081,-0.143509,0.013655,3.906221,6.465015,-17.81636,0,0
22523,2024 8 08,15:43:17.088,-0.309402,-0.656992,0.214718,-0.653091,-1.047296,-0.125493,0.045731,2.156521,4.098775,-20.02309,0,0
22524,2024 8 08,15:43:17.097,-0.310388,-0.657295,0.213256,-0.652797,-1.088779,-0.136619,0.041434,3.751412,2.309901,-21.243793,0,0
22525,2024 8 08,15:43:17.105,-0.311434,-0.657756,0.211713,-0.652337,-1.092837,-0.161724,0.003323,5.590844,1.495659,-22.611797,0,0
22526,2024 8 08,15:43:17.113,-0.312638,-0.658192,0.210096,-0.651843,-1.09757,-0.140436,0.021147,2.746005,1.846941,-24.9119,0,0
22527,2024 8 08,15:43:17.122,-0.314059,-0.658724,0.208428,-0.651157,-1.12712,-0.150847,0.000105,0.986258,-0.24724,-28.37071,0,0
22528,2024 8 08,15:43:17.130,-0.314236,-0.658791,0.208221,-0.651072,-1.130794,-0.152141,-0.002511,0.767427,-0.507658,-28.800825,0,0
22529,2024 8 08,15:43:17.138,-0.315825,-0.659287,0.206717,-0.650278,-1.128802,-0.156886,0.015407,-0.715952,-0.075861,-32.078045,0,0
22530,2024 8 08,15:43:17.147,-0.317856,-0.659804,0.204937,-0.649327,-1.143263,-0.159225,0.031165,-3.240019,0.346419,-35.225239,0,0
22531,2024 8 08,15:43:17.155,-0.320268,-0.660303,0.202988,-0.648244,-1.118049,-0.163237,0.004134,-5.308801,0.919,-39.465881,0,0
22532,2024 8 08,15:43:17.163,-0.322938,-0.660796,0.200927,-0.647058,-1.143727,-0.174697,-0.003639,-6.507724,1.764669,-42.530045,0,0
22533,2024 8 08,15:43:17.172,-0.325956,-0.66115,0.198725,-0.645862,-1.180281,-0.172029,0.002059,-8.596031,4.282205,-46.038086,0,0
22534,2024 8 08,15:43:17.180,-0.32653,-0.661217,0.198306,-0.645634,-1.187233,-0.171521,0.003142,-8.993234,4.761047,-46.705326,0,0
22535,2024 8 08,15:43:17.188,-0.32951,-0.661535,0.196337,-0.644393,-1.145948,-0.166037,0.01028,-11.95629,2.934574,-52.029274,0,0
22536,2024 8 08,15:43:17.197,-0.333096,-0.661892,0.193855,-0.64293,-1.160444,-0.186153,0.034186,-11.866482,4.44985,-55.046177,0,0
22537,2024 8 08,15:43:17.205,-0.337088,-0.662208,0.191099,-0.641345,-1.122731,-0.177062,0.014672,-11.799867,5.110811,-59.835533,0,0
22538,2024 8 08,15:43:17.213,-0.341193,-0.662655,0.18806,-0.639607,-1.18157,-0.186844,0.016137,-10.950537,4.057292,-63.433895,0,0
22539,2024 8 08,15:43:17.222,-0.345548,-0.663346,0.184812,-0.637494,-1.24173,-0.215549,0.03114,-11.114763,0.646986,-69.327217,0,0
22540,2024 8 08,15:43:17.230,-0.346623,-0.663517,0.18401,-0.636972,-1.25658,-0.222634,0.034843,-11.155301,-0.194817,-70.781929,0,0
22541,2024 8 08,15:43:17.238,-0.350562,-0.522958,0.431283,-0.646233,-1.232816,-0.17076,0.057263,-12.060384,7.776812,-75.269371,0,0
22542,2024 8 08,15:43:17.247,-0.355375,-0.664214,0.17686,-0.633426,-1.267233,-0.173341,0.014354,-9.689956,8.99679,-81.893929,0,0
22543,2024 8 08,15:43:17.255,-0.360684,-0.664788,0.172098,-0.631125,-1.339924,-0.157951,0.038354,-8.082486,9.241521,-90.869194,0,0
22544,2024 8 08,15:43:17.263,-0.366545,-0.665286,0.166478,-0.628718,-1.402166,-0.153636,0.022252,-5.988585,14.282909,-102.077339,0,0
22545,2024 8 08,15:43:17.272,-0.373106,-0.665706,0.159886,-0.626109,-1.516935,-0.169498,-0.026184,-6.069113,19.029364,-116.171234,0,0
22546,2024 8 08,15:43:17.280,-0.375049,-0.66583,0.157935,-0.625337,-1.550915,-0.174195,-0.040524,-6.092955,20.434668,-120.34407,0,0
22547,2024 8 08,15:43:17.288,-0.381211,-0.66599,0.151742,-0.62295,-1.549517,-0.173612,-0.081368,-8.485266,24.669147,-134.373428,0,0
22548,2024 8 08,15:43:17.297,-0.389337,-0.666011,0.143536,-0.619807,-1.633866,-0.151573,-0.082151,-9.891835,29.712183,-150.453171,0,0
22549,2024 8 08,15:43:17.305,-0.399001,-0.665837,0.133867,-0.615965,-1.751817,-0.096385,-0.087971,-13.329735,33.77528,-172.365997,0,0
22550,2024 8 08,15:43:17.313,-0.410095,-0.665422,0.122628,-0.611408,-1.878409,-0.10242,-0.098296,-15.502522,40.326431,-197.291885,0,0
22551,2024 8 08,15:43:17.322,-0.417446,-0.665083,0.115153,-0.608352,-1.965742,-0.093251,-0.102471,-16.839111,44.352558,-213.792267,0,0
22552,2024 8 08,15:43:17.330,-0.430911,-0.664063,0.101142,-0.602522,-2.133587,-0.036623,-0.098554,-17.676764,51.074661,-243.42186,0,0
22553,2024 8 08,15:43:17.338,-0.443476,-0.66286,0.087197,-0.596927,-2.229622,-0.162303,-0.112182,-12.85198,63.233128,-268.345612,0,0
22554,2024 8 08,15:43:17.347,-0.446,-0.66252,0.084184,-0.59581,-2.233831,-0.180843,-0.127138,-11.721014,66.130768,-272.750854,0,0
22555,2024 8 08,15:43:17.355,-0.460724,-0.660261,0.066094,-0.58931,-2.245647,-0.281053,-0.218284,-5.109768,83.321075,-296.665497,0,0
22556,2024 8 08,15:43:17.363,-0.47666,-0.656888,0.045115,-0.582308,-2.299586,-0.419322,-0.215124,0.036571,100.063705,-316.190643,0,0
22557,2024 8 08,15:43:17.372,-0.492833,-0.652288,0.022346,-0.575264,-2.202913,-0.619415,-0.161418,1.060273,119.510109,-327.864014,0,0
22558,2024 8 08,15:43:17.380,-0.508944,-0.646537,-0.001076,-0.568099,-2.131007,-0.614897,-0.11783,-2.892776,125.122452,-329.888489,0,0
22559,2024 8 08,15:43:17.388,-0.522901,-0.640778,-0.021514,-0.561597,-2.007944,-0.573641,-0.086415,-5.174928,128.603882,-328.394379,0,0
22560,2024 8 08,15:43:17.397,-0.526418,-0.639214,-0.026685,-0.559878,-1.987716,-0.551686,-0.070162,-6.336297,128.545486,-327.90683,0,0
22561,2024 8 08,15:43:17.405,-0.540178,-0.632564,-0.047075,-0.552839,-1.941492,-0.426328,-0.013015,-11.847407,126.328003,-325.184906,0,0
22562,2024 8 08,15:43:17.413,-0.554762,-0.624527,-0.069208,-0.545108,-1.852172,-0.28199,-0.169973,-11.597427,130.532898,-319.622864,0,0
22563,2024 8 08,15:43:17.422,-0.568938,-0.616006,-0.09095,-0.536923,-1.669333,-0.054336,-0.319886,-15.259271,125.140854,-314.194977,0,0
22564,2024 8 08,15:43:17.430,-0.582938,-0.607358,-0.111395,-0.527824,-1.433169,0.127053,-0.475005,-24.275543,106.240532,-310.225159,0,0
22565,2024 8 08,15:43:17.438,-0.595833,-0.599726,-0.127945,-0.51841,-1.33975,0.303887,-0.365858,-38.190079,81.42392,-312.860504,0,0
22566,2024 8 08,15:43:17.447,-0.59999,-0.597287,-0.132863,-0.515248,-1.15017,0.397368,-0.425755,-44.241119,74.693794,-313.934784,0,0
22567,2024 8 08,15:43:17.455,-0.613301,-0.589362,-0.146484,-0.504821,0.105763,0.746406,-0.942423,-67.472198,58.474709,-303.291534,0,0
22568,2024 8 08,15:43:17.463,-0.626023,-0.580721,-0.156292,-0.496249,0.964235,0.551065,-0.916281,-74.014091,33.554737,-191.172241,0,0
22569,2024 8 08,15:43:17.472,-0.63312,-0.576587,-0.155823,-0.492297,-0.349258,0.852911,-0.208645,-74.146713,-32.164097,-42.147293,0,0
22570,2024 8 08,15:43:17.480,-0.634486,-0.574229,-0.150328,-0.495022,-0.83334,0.949085,-0.306682,-60.40012,1.935032,60.06144,0,0
22571,2024 8 08,15:43:17.488,-0.632372,-0.572748,-0.144182,-0.501238,-0.863258,0.981562,-0.315114,-42.541439,11.78345,115.299591,0,0
22572,2024 8 08,15:43:17.497,-0.631228,-0.572312,-0.141983,-0.503805,-0.852383,0.975096,-0.321644,-36.007221,17.00065,130.745087,0,0
22573,2024 8 08,15:43:17.505,-0.626231,-0.571754,-0.136386,-0.512114,-0.713295,0.868566,-0.355154,-19.275658,34.608097,147.34552,0,0
22574,2024 8 08,15:43:17.513,-0.619453,-0.571851,-0.130213,-0.521733,-0.52376,0.74709,-0.3899,-5.617763,27.987467,154.140854,0,0
22575,2024 8 08,15:43:17.522,-0.611862,-0.573143,-0.123166,-0.530885,-0.364765,0.675117,-0.416026,3.78871,11.513866,160.304306,0,0
22576,2024 8 08,15:43:17.530,-0.603629,-0.575899,-0.114592,-0.539159,-0.366533,0.637485,-0.393321,9.608179,-16.836575,171.156326,0,0
22577,2024 8 08,15:43:17.538,-0.595533,-0.579597,-0.105377,-0.54605,-0.479256,0.61396,-0.352986,15.168371,-38.598095,184.834778,0,0
22578,2024 8 08,15:43:17.547,-0.592144,-0.58123,-0.101481,-0.548773,-0.522603,0.606591,-0.33742,17.444248,-46.344276,190.671585,0,0
22579,2024 8 08,15:43:17.555,-0.583582,-0.585797,-0.091504,-0.554738,-0.609973,0.596425,-0.304434,22.990978,-57.672413,205.744385,0,0
22580,2024 8 08,15:43:17.563,-0.572424,-0.591681,-0.079003,-0.561904,-0.697388,0.554067,-0.26457,30.226526,-64.162331,223.4944,0,0
22581,2024 8 08,15:43:17.572,-0.559478,-0.598138,-0.065186,-0.569744,-0.72786,0.485311,-0.254339,35.869076,-68.775429,241.151718,0,0
22582,2024 8 08,15:43:17.580,-0.545153,-0.604951,-0.050236,-0.577822,-0.757293,0.397483,-0.24726,39.019669,-75.552109,257.222717,0,0
22583,2024 8 08,15:43:17.588,-0.524292,-0.614523,-0.028417,-0.588776,-0.821719,0.273086,-0.253371,39.485607,-88.387001,276.138184,0,0
22584,2024 8 08,15:43:17.597,-0.524112,-0.614606,-0.028228,-0.588871,-0.822277,0.272007,-0.253424,39.489647,-88.498238,276.302124,0,0
22585,2024 8 08,15:43:17.605,-0.508156,-0.621613,-0.010734,-0.596013,-0.901144,0.192658,-0.243569,33.094765,-101.818848,284.93042,0,0
22586,2024 8 08,15:43:17.613,-0.491545,-0.628706,0.008457,-0.602493,-0.979062,0.105511,0.002081,24.932528,-114.753624,290.866089,0,0
22587,2024 8 08,15:43:17.622,-0.474859,-0.635654,0.02898,-0.60791,-1.08428,0.079715,-0.197635,15.393986,-129.780975,294.650299,0,0
22588,2024 8 08,15:43:17.630,-0.4582,-0.642362,0.05071,-0.61219,-1.207967,0.042783,-0.149705,4.886516,-142.334396,296.976654,0,0
22589,2024 8 08,15:43:17.638,-0.441565,-0.648673,0.073389,-0.615438,-1.345248,0.019051,-0.083053,-3.913572,-151.960632,298.544281,0,0
22590,2024 8 08,15:43:17.647,-0.440031,-0.649255,0.075481,-0.615738,-1.357911,0.016862,-0.076905,-4.725249,-152.848511,298.688873,0,0
22591,2024 8 08,15:43:17.655,-0.424907,-0.654427,0.096617,-0.617858,-1.503405,0.031695,0.011531,-10.781265,-156.276688,299.779846,0,0
22592,2024 8 08,15:43:17.663,-0.408161,-0.659396,0.119771,-0.619772,-1.642682,0.020273,0.077063,-13.294039,-155.033173,300.65036,0,0
22593,2024 8 08,15:43:17.672,-0.390971,-0.663525,0.142908,-0.621524,-1.733504,-0.008,0.096819,-11.94312,-148.696487,301.443054,0,0
22594,2024 8 08,15:43:17.680,-0.373323,-0.666862,0.165717,-0.623125,-1.823119,-0.032632,0.144219,-9.377569,-143.984177,303.310394,0,0
22595,2024 8 08,15:43:17.688,-0.3549,-0.669547,0.18797,-0.624679,-1.956604,-0.128932,0.148969,-1.954537,-138.7836,306.142273,0,0
22596,2024 8 08,15:43:17.697,-0.351901,-0.669984,0.191593,-0.624932,-1.978336,-0.14461,0.149742,-0.746,-137.936905,306.603333,0,0
22597,2024 8 08,15:43:17.705,-0.335473,-0.671611,0.209886,-0.626257,-2.063956,-0.301889,0.115707,6.515949,-132.277313,307.328979,0,0
22598,2024 8 08,15:43:17.713,-0.316375,-0.651141,0.236479,-0.648074,-2.09069,-0.550511,0.089438,13.441988,-127.411354,305.648102,0,0
22599,2024 8 08,15:43:17.722,-0.296718,-0.674054,0.249579,-0.628549,-2.062563,-0.840522,0.075815,17.595215,-127.871017,299.946625,0,0
22600,2024 8 08,15:43:17.730,-0.277069,-0.675263,0.268448,-0.628434,-2.044962,-1.118571,0.102881,20.642834,-135.18689,289.743622,0,0
22601,2024 8 08,15:43:17.738,-0.257709,-0.676914,0.286274,-0.627024,-2.076352,-1.346205,0.165364,23.845554,-145.018738,274.381042,0,0
22602,2024 8 08,15:43:17.747,-0.253388,-0.677282,0.290253,-0.626709,-2.083358,-1.397014,0.17931,24.560406,-147.213226,270.952118,0,0
22603,2024 8 08,15:43:17.755,-0.238009,-0.679211,0.303371,-0.62437,-2.175023,-1.547936,0.241961,29.615669,-152.566269,253.043228,0,0
22604,2024 8 08,15:43:17.763,-0.220803,-0.68177,0.31682,-0.621173,-2.223046,-1.720397,0.329656,38.357277,-149.847488,228.298477,0,0
22605,2024 8 08,15:43:17.772,-0.204073,-0.684343,0.328537,-0.617968,-2.090168,-1.951702,0.378994,45.861092,-138.08403,204.490448,0,0
22606,2024 8 08,15:43:17.780,-0.188392,-0.686675,0.338383,-0.615056,-1.841279,-2.247089,0.4559,50.431057,-124.216782,183.541779,0,0
22607,2024 8 08,15:43:17.788,-0.174206,-0.688909,0.346363,-0.612315,-1.539805,-2.527173,0.569802,51.74044,-114.126221,157.953033,0,0
22608,2024 8 08,15:43:17.797,-0.170299,-0.689525,0.348561,-0.611559,-1.456759,-2.604326,0.601178,52.101131,-111.346611,150.90419,0,0
22609,2024 8 08,15:43:17.805,-0.161051,-0.691917,0.352884,-0.608869,-1.289236,-2.773279,0.70273,48.802063,-112.065498,120.360527,0,0
22610,2024 8 08,15:43:17.813,-0.152256,-0.69582,0.356123,-0.604779,-1.274834,-2.910398,0.795342,42.305115,-114.957657,78.715347,0,0
22611,2024 8 08,15:43:17.822,-0.145823,-0.700721,0.357307,-0.599996,-1.389817,-3.005656,0.856398,33.791409,-106.471779,35.344959,0,0
22612,2024 8 08,15:43:17.830,-0.142594,-0.705389,0.35643,-0.595824,-1.466403,-2.949187,0.862115,23.014328,-77.035736,-1.118824,0,0
22613,2024 8 08,15:43:17.838,-0.14315,-0.708978,0.354101,-0.592827,-4.863501,-2.297548,-1.293433,-1.517931,-45.986183,-35.322819,0,0
22614,2024 8 08,15:43:17.847,-0.154357,-0.714211,0.34861,-0.586881,-3.130518,-1.814795,0.999809,-40.23571,33.169907,-142.823181,0,0
22615,2024 8 08,15:43:17.855,-0.159896,-0.716798,0.345896,-0.583943,-2.274072,-1.576217,2.133136,-59.370171,72.289116,-195.950226,0,0
22616,2024 8 08,15:43:17.863,-0.163607,-0.715455,0.344645,-0.585196,-2.024043,-1.237957,1.703253,-76.31147,98.252563,-197.587067,0,0
22617,2024 8 08,15:43:17.872,-0.189085,-0.706564,0.335614,-0.593548,-0.552904,0.856102,-1.003091,-164.61824,238.122543,-201.241776,1,0
22618,2024 8 08,15:43:17.880,-0.205086,-0.704313,0.326512,-0.596009,-1.113816,0.596909,-0.682178,-46.093697,92.725632,-167.368469,0,0
22619,2024 8 08,15:43:17.888,-0.216417,-0.705164,0.316413,-0.596431,-1.500633,-0.028527,0.399972,3.815586,73.147629,-164.044403,0,0
22620,2024 8 08,15:43:17.897,-0.22709,-0.702821,0.302422,-0.602447,-1.28629,-0.140526,0.255383,29.550964,151.118164,-161.711151,0,0
22621,2024 8 08,15:43:17.905,-0.233849,-0.700648,0.289381,-0.608797,-1.272846,-0.534936,-0.370993,64.549202,126.617508,-138.902206,0,0
22622,2024 8 08,15:43:17.913,-0.235267,-0.700119,0.286902,-0.610037,-1.28037,-0.551283,-0.352774,62.68486,124.742393,-132.169128,0,0
22623,2024 8 08,15:43:17.922,-0.241254,-0.697219,0.277057,-0.615524,-1.292419,-0.39472,0.079866,33.339523,130.742905,-98.188034,0,0
22624,2024 8 08,15:43:17.930,-0.246325,-0.691736,0.267021,-0.624069,-1.032204,-0.137113,-0.080228,47.660294,156.541183,-69.396378,0,0
22625,2024 8 08,15:43:17.938,-0.248388,-0.686504,0.256959,-0.633185,-1.083308,-0.091004,0.048663,75.984055,144.284363,-47.79026,0,0
22626,2024 8 08,15:43:17.947,-0.249293,-0.665625,0.156062,-0.685887,-1.065508,-0.185123,0.106061,69.040916,142.547836,-33.94735,0,0
22627,2024 8 08,15:43:17.955,-0.25035,-0.675512,0.24047,-0.650495,-1.033128,-0.097873,0.032695,54.601688,147.025253,-28.308453,0,0
22628,2024 8 08,15:43:17.963,-0.250611,-0.660467,0.17169,-0.686658,-1.02851,-0.087072,0.004221,52.455936,145.513016,-26.439396,0,0
22629,2024 8 08,15:43:17.972,-0.251208,-0.668851,0.232357,-0.659925,-1.026912,-0.112769,-0.097896,53.945164,129.048859,-19.337864,0,0
22630,2024 8 08,15:43:17.980,-0.251104,-0.664018,0.225961,-0.667027,-0.995831,0.106367,-0.309494,58.152496,110.262497,-13.935286,0,0
22631,2024 8 08,15:43:17.988,-0.251004,-0.659929,0.220327,-0.672987,-0.955562,-0.209751,0.068697,46.863663,89.797409,-13.364281,0,0
22632,2024 8 08,15:43:17.997,-0.251458,-0.65669,0.21613,-0.677342,-0.892073,-0.120506,0.187324,27.790604,65.441269,-13.707246,0,0
22633,2024 8 08,15:43:18.005,-0.251808,-0.654691,0.213343,-0.680034,-0.919044,-0.136141,0.121451,19.381592,43.902473,-11.688021,0,0
22634,2024 8 08,15:43:18.013,-0.251969,-0.654143,0.212569,-0.68075,-0.936542,-0.130819,0.104758,16.198463,37.237206,-11.27478,0,0
22635,2024 8 08,15:43:18.022,-0.252605,-0.65329,0.211246,-0.681745,-1.015083,-0.079999,0.084098,7.085738,22.775631,-11.43638,0,0
22636,2024 8 08,15:43:18.030,-0.253276,-0.65275,0.209992,-0.682401,-1.045307,-0.112496,0.020967,4.864544,14.210226,-11.86193,0,0
22637,2024 8 08,15:43:18.038,-0.254086,-0.652342,0.208944,-0.682811,-1.064274,-0.119015,-0.007332,2.315168,11.581194,-12.077199,0,0
22638,2024 8 08,15:43:18.047,-0.255096,-0.651943,0.208185,-0.683048,-1.06472,-0.090225,0.011662,-3.045064,9.761381,-11.567088,0,0
22639,2024 8 08,15:43:18.055,-0.256095,-0.651543,0.207675,-0.683211,-1.077983,-0.085356,0.01241,-5.877707,9.852822,-11.27922,0,0
22640,2024 8 08,15:43:18.063,-0.256491,-0.651384,0.207498,-0.683268,-1.081178,-0.083837,0.013371,-6.656861,9.789178,-11.141567,0,0
22641,2024 8 08,15:43:18.072,-0.257501,-0.650966,0.207175,-0.683385,-1.079853,-0.080766,0.0209,-6.971629,9.391974,-10.799376,0,0
22642,2024 8 08,15:43:18.080,-0.25866,-0.650448,0.206792,-0.683556,-1.080069,-0.07261,0.036616,-7.281873,10.468814,-11.080326,0,0
22643,2024 8 08,15:43:18.088,-0.259837,-0.649848,0.206321,-0.683822,-1.065634,-0.151824,-0.005223,-6.429435,10.954991,-10.801678,0,0
22644,2024 8 08,15:43:18.097,-0.261023,-0.649304,0.205858,-0.684026,-1.06312,-0.074688,0.047955,-6.217505,10.160599,-11.054748,0,0
22645,2024 8 08,15:43:18.105,-0.262097,-0.648864,0.205414,-0.684167,-1.057759,-0.068746,0.051857,-6.222981,8.983023,-11.670146,0,0
22646,2024 8 08,15:43:18.113,-0.262551,-0.648691,0.205219,-0.684216,-1.05596,-0.087711,0.03223,-6.025523,8.557626,-11.988168,0,0
22647,2024 8 08,15:43:18.122,-0.263513,-0.648405,0.204763,-0.684253,-1.054769,-0.082463,0.035205,-4.886538,7.939454,-12.900667,0,0
22648,2024 8 08,15:43:18.130,-0.265052,-0.648034,0.204038,-0.684228,-1.053758,-0.066164,0.07605,-6.08553,6.070516,-13.720611,0,0
22649,2024 8 08,15:43:18.138,-0.266148,-0.647789,0.20333,-0.684245,-1.017739,-0.089614,0.083277,-3.260613,6.753908,-13.1996,0,0
22650,2024 8 08,15:43:18.147,-0.267078,-0.647637,0.202534,-0.684263,-1.060078,-0.070705,0.065757,-0.611319,5.899075,-13.067652,0,0
22651,2024 8 08,15:43:18.155,-0.267894,-0.64756,0.201576,-0.684299,-1.04354,-0.085508,0.031432,1.228411,6.034088,-13.521587,0,0
22652,2024 8 08,15:43:18.163,-0.267941,-0.647556,0.20152,-0.684301,-1.042587,-0.086362,0.029452,1.33451,6.041874,-13.547766,0,0
22653,2024 8 08,15:43:18.172,-0.268644,-0.612308,0.322976,-0.669773,-1.081364,-0.077046,0.001181,2.06761,6.042428,-13.438008,0,0
22654,2024 8 08,15:43:18.180,-0.269356,-0.647407,0.19947,-0.684487,-1.058226,-0.126,0.013322,5.210594,8.24328,-13.428747,0,0
22655,2024 8 08,15:43:18.188,-0.270202,-0.647204,0.198381,-0.684662,-1.066828,-0.093865,0.014501,1.989674,9.053908,-13.861857,0,0
22656,2024 8 08,15:43:18.197,-0.270994,-0.646886,0.197207,-0.684989,-1.060066,-0.100615,0.048018,4.3653,12.192475,-13.374296,0,0
22657,2024 8 08,15:43:18.205,-0.271808,-0.619477,0.349336,-0.648331,-1.062621,-0.09257,0.093053,3.493377,11.202311,-14.264926,0,0
22658,2024 8 08,15:43:18.213,-0.271917,-0.646487,0.195762,-0.685414,-1.062962,-0.091496,0.099065,3.376978,11.070127,-14.383822,0,0
22659,2024 8 08,15:43:18.222,-0.272643,-0.646149,0.194586,-0.685779,-1.052324,-0.124814,0.042188,3.103207,12.386832,-14.606576,0,0
22660,2024 8 08,15:43:18.230,-0.27348,-0.645832,0.193238,-0.686126,-1.025105,-0.120039,0.056943,4.733842,10.817616,-15.047023,0,0
22661,2024 8 08,15:43:18.238,-0.274363,-0.645666,0.191998,-0.686277,-1.036177,-0.100084,0.125574,1.952839,8.353131,-16.522114,0,0
22662,2024 8 08,15:43:18.247,-0.275344,-0.645399,0.190653,-0.686511,-1.051981,-0.11994,0.035167,2.546082,9.892109,-16.734694,0,0
22663,2024 8 08,15:43:18.255,-0.276409,-0.645211,0.189368,-0.686615,-1.048315,-0.133941,0.094408,1.925634,8.424685,-17.555391,0,0
22664,2024 8 08,15:43:18.263,-0.277567,-0.645148,0.188151,-0.686541,-1.060697,-0.130354,0.078469,0.405233,5.820933,-18.488966,0,0
22665,2024 8 08,15:43:18.272,-0.277808,-0.645135,0.187898,-0.686525,-1.063271,-0.129609,0.075156,0.089201,5.279713,-18.683022,0,0
22666,2024 8 08,15:43:18.280,-0.278986,-0.645142,0.187019,-0.686281,-1.077374,-0.118913,0.082336,-2.942002,4.174529,-20.606159,0,0
22667,2024 8 08,15:43:18.288,-0.280613,-0.645155,0.186022,-0.685875,-1.121831,-0.123921,0.083964,-5.580892,3.598625,-23.318943,0,0
22668,2024 8 08,15:43:18.297,-0.282662,-0.645142,0.184911,-0.685347,-1.119833,-0.114818,0.033661,-7.443179,4.794163,-27.540144,0,0
22669,2024 8 08,15:43:18.305,-0.285035,-0.645222,0.18372,-0.684607,-1.14911,-0.113678,0.084143,-10.576351,2.182955,-31.886244,0,0
22670,2024 8 08,15:43:18.313,-0.287897,-0.645437,0.182495,-0.683533,-1.159047,-0.120207,0.085822,-13.299549,0.309745,-37.652946,0,0
22671,2024 8 08,15:43:18.322,-0.288648,-0.645493,0.182174,-0.683251,-1.161652,-0.121918,0.086263,-14.013406,-0.181297,-39.164627,0,0
22672,2024 8 08,15:43:18.330,-0.291379,-0.645744,0.181059,-0.682149,-1.18831,-0.130096,0.040789,-17.187452,-1.453892,-43.562729,0,0
22673,2024 8 08,15:43:18.338,-0.295072,-0.646238,0.179773,-0.680428,-1.231457,-0.132722,0.038176,-21.452961,-5.10293,-49.513077,0,0
22674,2024 8 08,15:43:18.347,-0.299524,-0.646755,0.178344,-0.67836,-1.241764,-0.127644,0.032969,-26.405039,-4.948324,-56.834267,0,0
22675,2024 8 08,15:43:18.355,-0.304594,-0.647207,0.17668,-0.6761,-1.275328,-0.138361,0.041274,-28.922832,-3.545965,-63.526382,0,0
22676,2024 8 08,15:43:18.363,-0.310306,-0.647593,0.174752,-0.673625,-1.24654,-0.111397,0.078009,-32.954784,-2.493307,-71.041962,0,0
22677,2024 8 08,15:43:18.372,-0.312073,-0.647712,0.174155,-0.672859,-1.237631,-0.103053,0.089376,-34.202496,-2.167556,-73.367699,0,0
22678,2024 8 08,15:43:18.380,-0.316759,-0.647956,0.172099,-0.670955,-1.234152,-0.097454,0.110057,-28.398209,1.261192,-77.060455,0,0
22679,2024 8 08,15:43:18.388,-0.322339,-0.648216,0.169013,-0.668819,-1.279504,-0.073864,0.196062,-22.211723,5.21566,-82.888016,0,0
22680,2024 8 08,15:43:18.397,-0.325952,-0.648367,0.166837,-0.667483,-1.302971,-0.061218,0.233274,-18.008007,8.129739,-87.003105,0,0
22681,2024 8 08,15:43:18.405,-0.332094,-0.648543,0.161995,-0.665471,-1.310382,-0.057904,0.20033,-9.667686,14.577253,-95.876312,0,0
22682,2024 8 08,15:43:18.413,-0.338331,-0.648867,0.156026,-0.663434,-1.329373,-0.076319,0.199973,-0.990913,17.40897,-105.045021,0,0
22683,2024 8 08,15:43:18.422,-0.343843,-0.649342,0.149991,-0.661533,-1.392422,-0.091422,0.13646,5.1414,16.472193,-115.489731,0,0
22684,2024 8 08,15:43:18.430,-0.345015,-0.649481,0.148656,-0.66108,-1.401391,-0.094444,0.129927,5.96141,16.591312,-117.778465,0,0
22685,2024 8 08,15:43:18.438,-0.351592,-0.650297,0.141036,-0.658467,-1.454204,-0.105516,0.100067,9.134167,18.363136,-130.976974,0,0
22686,2024 8 08,15:43:18.447,-0.359306,-0.651041,0.131957,-0.655433,-1.571512,-0.093006,0.0205,8.812374,22.065205,-148.106888,0,0
22687,2024 8 08,15:43:18.455,-0.368265,-0.651978,0.122039,-0.651427,-1.645658,-0.126751,-0.0961,3.87881,17.612383,-168.758408,0,0
22688,2024 8 08,15:43:18.463,-0.378676,-0.652776,0.111195,-0.646568,-1.815406,-0.092035,-0.134631,-1.500893,21.156551,-191.229904,0,0
22689,2024 8 08,15:43:18.472,-0.389081,-0.653096,0.10065,-0.641798,-1.94691,0.012893,-0.069882,-6.398252,27.853756,-214.277451,0,0
22690,2024 8 08,15:43:18.480,-0.392043,-0.609377,0.309195,-0.615922,-1.989786,0.024435,-0.086693,-7.282011,28.674467,-221.075394,0,0
22691,2024 8 08,15:43:18.488,-0.404479,-0.65321,0.08512,-0.634301,-2.194487,0.015038,-0.253667,-10.25894,29.873375,-250.475189,0,0
22692,2024 8 08,15:43:18.497,-0.420195,-0.652542,0.069641,-0.626554,-2.480548,0.036427,-0.318792,-19.402615,41.718849,-287.648682,0,0
22693,2024 8 08,15:43:18.505,-0.438377,-0.650337,0.051398,-0.618023,-2.725275,0.102622,-0.350773,-24.577381,64.519775,-328.11026,0,0
22694,2024 8 08,15:43:18.513,-0.458564,-0.646317,0.030099,-0.608842,-2.888472,0.114477,-0.259786,-26.440783,91.05278,-369.833618,0,0
22695,2024 8 08,15:43:18.522,-0.477656,-0.640897,0.008231,-0.600598,-2.914568,-0.093789,-0.155534,-23.099758,125.694183,-404.105408,0,0
22696,2024 8 08,15:43:18.530,-0.483821,-0.638893,0.000871,-0.597911,-2.922377,-0.155798,-0.095647,-22.467953,134.803177,-413.495544,0,0
22697,2024 8 08,15:43:18.538,-0.502874,-0.63132,-0.02352,-0.589484,-2.903075,-0.33099,0.108381,-21.35129,154.496521,-433.791565,0,0
22698,2024 8 08,15:43:18.547,-0.52412,-0.621035,-0.052886,-0.579749,-2.664043,-0.516587,-0.186305,-14.589088,174.873123,-445.310059,0,1
22699,2024 8 08,15:43:18.555,-0.545318,-0.609725,-0.082389,-0.568577,-2.616441,-0.36914,-0.082874,-16.377518,164.411194,-442.077667,0,0
22700,2024 8 08,15:43:18.563,-0.565525,-0.597575,-0.111455,-0.556624,-2.365172,-0.071927,-0.175752,-17.360867,165.24913,-437.640289,0,0
22701,2024 8 08,15:43:18.572,-0.582836,-0.586255,-0.137164,-0.54513,-2.005335,0.270998,-0.41185,-14.881797,154.937592,-434.439087,0,0
22702,2024 8 08,15:43:18.580,-0.589041,-0.582236,-0.146276,-0.540638,-1.88961,0.391242,-0.4824,-14.070955,147.937424,-433.507874,0,0
22703,2024 8 08,15:43:18.588,-0.604257,-0.572654,-0.167828,-0.527449,-1.652151,0.662325,-0.588878,-13.515963,114.374023,-432.416016,0,0
22704,2024 8 08,15:43:18.597,-0.621806,-0.562165,-0.190592,-0.51015,-1.262936,0.897773,-0.718513,-20.580914,76.989655,-430.144196,0,0
22705,2024 8 08,15:43:18.605,-0.639921,-0.551651,-0.211054,-0.49075,-0.854977,1.023944,-0.759253,-35.924065,38.746857,-413.455139,0,0
22706,2024 8 08,15:43:18.613,-0.657254,-0.541478,-0.227168,-0.471705,0.068007,0.941526,-0.922157,-52.957321,8.846123,-359.026398,0,0
22707,2024 8 08,15:43:18.622,-0.670442,-0.533943,-0.23607,-0.457433,1.030104,0.877135,-0.513211,-70.329788,-26.632275,-238.020782,0,0
22708,2024 8 08,15:43:18.630,-0.67481,-0.531456,-0.238313,-0.453024,1.204216,0.90204,-0.35879,-72.611382,-37.412579,-180.117889,0,0
22709,2024 8 08,15:43:18.638,-0.678319,-0.529495,-0.235305,-0.451736,0.517261,1.180896,-0.132703,-52.904648,-39.616947,-9.963242,0,0
22710,2024 8 08,15:43:18.647,-0.675415,-0.531067,-0.22653,-0.458603,0.152396,1.199573,-0.210309,-31.876202,-27.909336,152.362244,0,0
22711,2024 8 08,15:43:18.655,-0.665982,-0.536285,-0.212684,-0.472485,-0.218183,1.088558,-0.266893,-6.068979,-27.904217,279.931152,0,0
22712,2024 8 08,15:43:18.663,-0.64691,-0.546628,-0.18912,-0.496917,-0.629633,0.850919,-0.391915,19.879404,-31.839102,395.979767,0,0
22713,2024 8 08,15:43:18.672,-0.628228,-0.556326,-0.168243,-0.517202,-0.660979,0.818101,-0.488694,27.607765,-43.455818,411.297577,0,0
22714,2024 8 08,15:43:18.680,-0.627847,-0.556524,-0.167818,-0.517615,-0.661618,0.817432,-0.490665,27.765196,-43.692455,411.609589,0,0
22715,2024 8 08,15:43:18.688,-0.609394,0.29923,0.719331,0.146816,-0.619424,0.662926,-0.564496,29.97422,-65.445946,398.457428,0,0
22716,2024 8 08,15:43:18.697,-0.591076,-0.576306,-0.125042,-0.550256,-0.7691,0.464263,-0.467113,27.854689,-93.083534,373.185577,0,0
22717,2024 8 08,15:43:18.705,-0.573705,-0.586589,-0.102697,-0.562259,-0.867269,0.371117,-0.455123,24.173941,-117.684418,348.790039,0,0
22718,2024 8 08,15:43:18.713,-0.556826,-0.596863,-0.079757,-0.572039,-0.967567,0.381319,-0.340982,20.285255,-132.16217,338.54599,0,0
22719,2024 8 08,15:43:18.722,-0.539517,-0.605962,-0.056911,-0.581692,-1.022936,0.354214,-0.297946,16.271475,-119.393944,340.803802,0,0
22720,2024 8 08,15:43:18.730,-0.521711,-0.61362,-0.034148,-0.591589,-1.082546,0.243097,-0.237868,10.843763,-108.324486,343.732117,0,0
22721,2024 8 08,15:43:18.738,-0.519675,-0.614496,-0.031545,-0.592721,-1.089364,0.230389,-0.230997,10.223015,-107.05851,344.067017,0,0
22722,2024 8 08,15:43:18.747,-0.503922,-0.619886,-0.011326,-0.60129,-1.004545,0.165363,-0.222149,1.009841,-102.173698,340.014435,0,0
22723,2024 8 08,15:43:18.755,-0.48709,-0.625387,0.011596,-0.60936,-0.933996,0.112464,-0.196478,-11.501754,-117.039047,330.390533,0,0
22724,2024 8 08,15:43:18.763,-0.470697,-0.631091,0.035876,-0.615363,-0.979893,0.074302,-0.148888,-23.440207,-140.932404,322.154785,0,0
22725,2024 8 08,15:43:18.772,-0.454716,-0.636837,0.0615,-0.619396,-1.155164,0.064548,-0.135603,-36.151855,-161.868118,318.967041,0,0
22726,2024 8 08,15:43:18.780,-0.438743,-0.64244,0.088247,-0.621866,-1.410689,0.093957,-0.024154,-45.10117,-175.711487,319.367676,0,0
22727,2024 8 08,15:43:18.788,-0.435841,-0.643458,0.093106,-0.622315,-1.457109,0.0993,-0.003907,-46.726978,-178.226395,319.44046,0,0
22728,2024 8 08,15:43:18.797,-0.422085,-0.647469,0.116042,-0.623668,-1.622188,0.101103,0.061747,-48.544304,-176.620972,321.251099,0,0
22729,2024 8 08,15:43:18.805,-0.405966,-0.651107,0.142278,-0.625062,-1.725729,0.08727,0.12373,-50.349968,-170.06218,323.726837,0,0
22730,2024 8 08,15:43:18.813,-0.388866,-0.653994,0.168917,-0.626244,-1.805249,0.001341,0.153902,-48.837135,-166.826599,326.524719,0,0
22731,2024 8 08,15:43:18.822,-0.371155,-0.656254,0.195382,-0.626903,-1.881994,-0.105278,0.152711,-45.460426,-167.140793,327.096588,0,0
22732,2024 8 08,15:43:18.830,-0.35297,-0.658252,0.22147,-0.626616,-2.026947,-0.224186,0.185734,-42.786354,-172.67012,323.759979,0,0
22733,2024 8 08,15:43:18.838,-0.348615,-0.658731,0.227717,-0.626547,-2.061659,-0.252661,0.193642,-42.146008,-173.994202,322.960968,0,0
22734,2024 8 08,15:43:18.847,-0.333556,-0.660206,0.248008,-0.625381,-2.180133,-0.389823,0.238246,-36.114998,-176.220093,315.580658,0,0
22735,2024 8 08,15:43:18.855,-0.315831,-0.661947,0.270609,-0.623276,-2.301307,-0.577239,0.31472,-27.198069,-178.265503,303.057556,0,0
22736,2024 8 08,15:43:18.863,-0.297424,-0.663905,0.292313,-0.620407,-2.421048,-0.829687,0.410237,-14.722914,-178.764221,286.888489,0,0
22737,2024 8 08,15:43:18.872,-0.27893,-0.666025,0.311916,-0.617173,-2.487687,-1.15053,0.503419,1.653919,-173.619553,267.754944,0,0
22738,2024 8 08,15:43:18.880,-0.260653,-0.66827,0.328837,-0.613968,-2.474004,-1.473308,0.567654,20.985701,-164.74646,245.920059,0,0
22739,2024 8 08,15:43:18.888,-0.25536,-0.66892,0.333738,-0.61304,-2.470041,-1.566796,0.586259,26.58486,-162.176498,239.595917,0,0
22740,2024 8 08,15:43:18.897,-0.241379,-0.670802,0.344224,-0.61081,-2.369891,-1.783756,0.633677,40.958641,-151.19458,220.657684,0,0
22741,2024 8 08,15:43:18.905,-0.22545,-0.673086,0.354352,-0.608552,-2.112464,-2.026344,0.664509,55.323975,-139.40889,196.964691,0,0
22742,2024 8 08,15:43:18.913,-0.209619,-0.675874,0.362863,-0.606095,-1.76825,-2.223106,0.733645,64.562683,-135.190811,172.167892,0,0
22743,2024 8 08,15:43:18.922,-0.194341,-0.67955,0.369644,-0.602976,-1.49764,-2.390332,0.867285,71.276703,-140.671188,146.825562,0,0
22744,2024 8 08,15:43:18.930,-0.184845,-0.682114,0.373539,-0.600823,-1.369394,-2.503431,0.963777,75.481979,-144.722595,130.584885,0,0
22745,2024 8 08,15:43:18.938,-0.172427,-0.686861,0.37704,-0.596933,-1.400896,-2.697117,1.157037,81.145363,-153.242294,106.893013,0,0
22746,2024 8 08,15:43:18.947,-0.17054,-0.687735,0.377323,-0.596271,-1.420586,-2.729672,1.168474,81.714714,-151.609802,102.240219,0,0
22747,2024 8 08,15:43:18.955,-0.158573,-0.693475,0.378642,-0.592074,-1.554698,-2.949795,1.206497,84.234856,-134.779236,70.530937,0,0
22748,2024 8 08,15:43:18.963,-0.149467,-0.698443,0.377503,-0.589334,-1.627656,-3.185312,1.084909,79.070244,-90.685112,35.405426,0,0
22749,2024 8 08,15:43:18.972,-0.145264,-0.701992,0.374345,-0.588184,-1.961665,-3.667689,1.144228,48.108597,-47.650944,-8.233803,0,0
22750,2024 8 08,15:43:18.980,-0.150132,-0.706654,0.370198,-0.583938,-4.145087,-5.538989,2.394469,-68.468231,-69.386307,-106.499298,0,0
22751,2024 8 08,15:43:18.988,-0.166244,-0.710537,0.360662,-0.58084,-1.714748,-2.558812,0.701055,-82.32872,106.733978,-218.833099,0,0
22752,2024 8 08,15:43:18.997,-0.171396,-0.710086,0.358536,-0.58115,-1.403856,-1.932008,0.408272,-99.018051,135.955338,-230.116913,1,0
22753,2024 8 08,15:43:19.005,-0.197022,-0.704336,0.349758,-0.585302,-0.935815,0.298648,-0.425752,-183.74646,202.668274,-227.618393,0,0
22754,2024 8 08,15:43:19.013,-0.217821,-0.701057,0.341069,-0.587034,-1.08328,0.78617,-0.446335,-98.809402,124.646751,-192.825043,0,0
22755,2024 8 08,15:43:19.022,-0.23199,-0.702329,0.331597,-0.585539,-1.509453,0.042296,0.247644,-27.755127,46.837463,-181.832291,0,0
22756,2024 8 08,15:43:19.030,-0.242238,-0.703366,0.318166,-0.587594,-1.388013,-0.146515,0.350031,34.792255,96.606415,-173.387772,0,0
22757,2024 8 08,15:43:19.038,-0.247592,-0.704408,0.304856,-0.591192,-1.424661,-0.60441,-0.319354,75.059486,77.571075,-145.691498,0,0
22758,2024 8 08,15:43:19.047,-0.249056,-0.704513,0.301429,-0.592236,-1.410586,-0.64073,-0.380639,76.905792,77.3022,-135.74733,0,0
22759,2024 8 08,15:43:19.055,-0.253196,-0.703785,0.292128,-0.595978,-1.251559,-0.371307,-0.084745,50.157776,97.093994,-98.00296,0,0
22760,2024 8 08,15:43:19.063,-0.256008,-0.701482,0.281942,-0.602351,-1.048618,-0.206731,-0.123154,71.040901,108.537857,-73.346107,0,0
22761,2024 8 08,15:43:19.072,-0.257082,-0.699194,0.271918,-0.609123,-1.054737,-0.242592,-0.090137,78.039627,104.981018,-58.150002,0,0
22762,2024 8 08,15:43:19.080,-0.258152,-0.696485,0.263084,-0.615624,-1.011621,-0.230926,-0.072945,59.173851,100.592628,-47.589237,0,0
22763,2024 8 08,15:43:19.088,-0.259453,-0.693766,0.256578,-0.620889,-1.100037,-0.153472,0.03396,49.003407,95.044342,-38.865753,0,0
22764,2024 8 08,15:43:19.097,-0.259791,-0.692788,0.254384,-0.622753,-1.105148,-0.145763,-0.063309,47.975182,94.245987,-35.813438,0,0
22765,2024 8 08,15:43:19.105,-0.260135,-0.689955,0.248733,-0.628004,-1.010585,-0.143105,-0.088212,54.628811,95.73941,-27.783632,0,0
22766,2024 8 08,15:43:19.113,-0.260268,-0.686844,0.242934,-0.6336,-0.98284,-0.14156,0.085504,47.040169,87.255989,-21.900715,0,0
22767,2024 8 08,15:43:19.122,-0.260639,-0.683711,0.237925,-0.638719,-0.986016,-0.134077,0.04818,36.586895,77.784782,-17.93767,0,0
22768,2024 8 08,15:43:19.130,-0.260896,-0.681045,0.233648,-0.643033,-1.007231,-0.1422,-0.016793,35.423321,64.801918,-15.090848,0,0
22769,2024 8 08,15:43:19.138,-0.261198,-0.679055,0.230375,-0.646196,-1.017831,-0.107436,-0.024715,26.472431,51.850723,-14.773393,0,0
22770,2024 8 08,15:43:19.147,-0.26133,-0.678356,0.229205,-0.647299,-1.019527,-0.100679,-0.027911,23.258121,47.126827,-14.591038,0,0
22771,2024 8 08,15:43:19.155,-0.261729,-0.677155,0.227056,-0.649151,-1.017156,-0.123846,-0.035191,17.607618,37.761929,-13.922873,0,0
22772,2024 8 08,15:43:19.163,-0.262329,-0.676128,0.225059,-0.650674,-1.049264,-0.163812,-0.035239,13.378794,27.857121,-13.596396,0,0
22773,2024 8 08,15:43:19.172,-0.263226,-0.675327,0.223524,-0.651674,-1.057004,-0.127644,-0.021894,3.855479,19.748608,-13.623311,0,0
22774,2024 8 08,15:43:19.180,-0.264339,-0.674694,0.222374,-0.652273,-1.039068,-0.115434,-0.049861,-1.869539,15.172555,-13.587862,0,0
22775,2024 8 08,15:43:19.188,-0.265568,-0.674198,0.221644,-0.652535,-1.052194,-0.111551,-0.044229,-5.922325,10.727099,-12.518991,0,0
22776,2024 8 08,15:43:19.197,-0.266675,-0.673828,0.221156,-0.652633,-1.048028,-0.115627,-0.054757,-6.570508,8.30167,-11.540294,0,0
22777,2024 8 08,15:43:19.205,-0.267226,-0.673643,0.220913,-0.652681,-1.045954,-0.102321,0.07135,-6.893254,7.093991,-11.052978,0,0
22778,2024 8 08,15:43:19.213,-0.268467,-0.609629,0.322106,-0.6727,-1.06447,-0.089633,-0.038193,-8.976455,4.703784,-11.166346,0,0
22779,2024 8 08,15:43:19.222,-0.26967,-0.673192,0.220401,-0.652314,-1.069635,-0.094988,-0.034814,-8.621219,3.529455,-11.520432,0,0
22780,2024 8 08,15:43:19.230,-0.270915,-0.673031,0.220115,-0.652061,-1.078608,0.000536,-0.066174,-8.895063,3.308844,-12.226625,0,0
22781,2024 8 08,15:43:19.238,-0.272278,-0.672878,0.219906,-0.651721,-1.055011,-0.096286,-0.069294,-10.898315,3.183178,-12.606048,0,0
22782,2024 8 08,15:43:19.247,-0.273761,-0.672702,0.219733,-0.651341,-1.072213,-0.430225,0.409375,-12.54675,3.28658,-13.63975,0,0
22783,2024 8 08,15:43:19.255,-0.273882,-0.672687,0.219719,-0.65131,-1.073615,-0.081662,-0.003939,-12.681093,3.295007,-13.723993,0,0
22784,2024 8 08,15:43:19.263,-0.275256,-0.672378,0.219368,-0.651168,-1.060251,-0.126401,-0.077488,-10.244887,6.50656,-14.004042,0,0
22785,2024 8 08,15:43:19.272,-0.276895,-0.672022,0.219074,-0.650939,-1.062257,-0.087819,0.031005,-11.916507,6.635175,-14.624318,0,0
22786,2024 8 08,15:43:19.280,-0.278439,-0.671509,0.218449,-0.65102,-1.06419,-0.090848,-0.035271,-8.83353,11.202957,-15.333401,0,0
22787,2024 8 08,15:43:19.288,-0.279922,-0.670933,0.217571,-0.651271,-1.075724,-0.11673,0.000757,-4.617591,14.098797,-16.000692,0,0
22788,2024 8 08,15:43:19.297,-0.281323,-0.670128,0.216359,-0.6519,-1.042325,-0.127838,-0.047704,-2.007334,19.097528,-15.631974,0,0
22789,2024 8 08,15:43:19.305,-0.281538,-0.670004,0.216172,-0.651997,-1.037192,-0.097789,0.047848,-1.606178,19.865757,-15.575308,0,0
22790,2024 8 08,15:43:19.313,-0.282666,-0.669255,0.215135,-0.652621,-1.036347,-0.150695,-0.002116,-2.544096,20.393812,-14.461623,0,0
22791,2024 8 08,15:43:19.322,-0.283971,-0.668196,0.213961,-0.653524,-1.045318,-0.114432,0.059079,-2.113817,23.311136,-13.423933,0,0
22792,2024 8 08,15:43:19.330,-0.285372,-0.667008,0.212811,-0.654502,-1.04072,-0.12775,0.014553,-3.844429,24.342163,-13.23125,0,0
22793,2024 8 08,15:43:19.338,-0.286755,-0.665689,0.211635,-0.655621,-1.013144,-0.130215,0.022748,-3.216844,26.235386,-12.372018,0,0
22794,2024 8 08,15:43:19.347,-0.288066,-0.664358,0.210482,-0.656766,-1.020072,-0.107047,0.056508,-3.087747,26.052078,-12.09981,0,0
22795,2024 8 08,15:43:19.355,-0.288349,-0.664071,0.210234,-0.657013,-1.021564,-0.102058,0.063779,-3.059945,26.012602,-12.041189,0,0
22796,2024 8 08,15:43:19.363,-0.289246,-0.662966,0.20912,-0.658088,-1.043888,-0.134479,0.026281,0.067443,27.075165,-11.32925,0,0
22797,2024 8 08,15:43:19.372,-0.290305,-0.661766,0.207839,-0.659234,-1.039168,-0.11739,0.043655,0.522929,25.436455,-11.715069,0,0
22798,2024 8 08,15:43:19.380,-0.291337,-0.660628,0.206456,-0.660353,-1.01582,-0.100136,0.047148,1.224984,24.219492,-12.445692,0,0
22799,2024 8 08,15:43:19.388,-0.292212,-0.659713,0.204989,-0.661338,-1.034405,0.309855,0.12621,3.515076,20.54076,-12.899385,0,0
22800,2024 8 08,15:43:19.397,-0.293078,-0.658935,0.203475,-0.662198,-1.037109,-0.116077,0.069113,3.711059,19.761101,-13.995385,0,0
22801,2024 8 08,15:43:19.405,-0.293311,-0.658726,0.203068,-0.662428,-1.037835,-0.105625,0.053185,3.763709,19.551651,-14.289817,0,0
22802,2024 8 08,15:43:19.413,-0.29402,-0.65815,0.201777,-0.663081,-1.072454,-0.121665,0.040144,4.560487,18.928745,-15.153527,0,0
22803,2024 8 08,15:43:19.422,-0.294911,-0.65771,0.200241,-0.663586,-1.107413,-0.129173,0.01016,5.603955,15.356318,-17.11853,0,0
22804,2024 8 08,15:43:19.430,-0.296034,-0.657364,0.198586,-0.663926,-1.105062,-0.12729,0.022807,3.954144,14.140784,-20.45639,0,0
22805,2024 8 08,15:43:19.438,-0.297351,-0.65715,0.196764,-0.664092,-1.143711,-0.110242,0.060242,3.374581,11.63149,-24.570078,0,0
22806,2024 8 08,15:43:19.447,-0.298928,-0.657077,0.194712,-0.66406,-1.14629,-0.131616,0.034829,3.279368,10.859084,-29.122236,0,0
22807,2024 8 08,15:43:19.455,-0.299425,-0.653666,0.226839,-0.65697,-1.147103,-0.138352,0.026819,3.249361,10.615657,-30.556871,0,0
22808,2024 8 08,15:43:19.463,-0.301045,-0.654256,0.221123,-0.657591,-1.177663,-0.150296,0.032382,0.470657,7.971764,-35.580067,0,0
22809,2024 8 08,15:43:19.472,-0.302219,-0.657275,0.191134,-0.663415,-1.195101,-0.157002,0.029564,-1.348946,6.481288,-38.970947,0,0
22810,2024 8 08,15:43:19.480,-0.305027,-0.657557,0.188751,-0.662531,-1.217032,-0.159419,-0.006335,-5.044546,4.625465,-45.713108,0,0
22811,2024 8 08,15:43:19.488,-0.308573,-0.65809,0.186395,-0.661024,-1.258597,-0.143837,-0.007794,-11.539003,-0.159043,-53.872227,0,0
22812,2024 8 08,15:43:19.497,-0.312896,-0.652714,0.248266,-0.643758,-1.226909,-0.146215,0.016217,-16.671455,-2.262235,-64.116081,0,0
22813,2024 8 08,15:43:19.505,-0.317056,-0.659487,0.181506,-0.656967,-1.225707,-0.139623,0.002425,-17.176744,-3.799268,-69.566895,0,0
22814,2024 8 08,15:43:19.513,-0.317952,-0.659647,0.180948,-0.656525,-1.233903,-0.13403,0.01541,-16.943012,-3.677326,-70.623627,0,0
22815,2024 8 08,15:43:19.522,-0.322633,-0.660455,0.177826,-0.654275,-1.294433,-0.099258,0.107577,-14.467533,-1.100887,-76.235634,0,0
22816,2024 8 08,15:43:19.530,-0.327821,-0.66111,0.173634,-0.652153,-1.345494,-0.08426,0.134394,-8.714771,6.523069,-84.92836,0,0
22817,2024 8 08,15:43:19.538,-0.333395,-0.661897,0.168456,-0.64988,-1.347181,-0.078169,0.106653,-3.517188,7.144567,-96.226334,0,0
22818,2024 8 08,15:43:19.547,-0.339261,-0.662972,0.162274,-0.647311,-1.459872,-0.082074,0.108544,1.632014,7.706375,-108.464867,0,0
22819,2024 8 08,15:43:19.555,-0.345007,-0.663997,0.156056,-0.644754,-1.525013,-0.069873,0.108422,1.698144,9.999991,-123.038277,0,0
22820,2024 8 08,15:43:19.563,-0.346724,-0.664321,0.154263,-0.643929,-1.547834,-0.067954,0.092677,0.909798,9.129411,-127.630936,0,0
22821,2024 8 08,15:43:19.572,-0.353871,-0.665706,0.147108,-0.640253,-1.645234,-0.062883,-0.008512,-4.691196,1.851091,-147.301712,0,0
22822,2024 8 08,15:43:19.580,-0.363198,-0.667321,0.13835,-0.635258,-1.727492,-0.036162,-0.025481,-9.074957,3.195409,-171.054764,0,0
22823,2024 8 08,15:43:19.588,-0.374174,-0.668829,0.128086,-0.629402,-1.900143,0.00372,-0.061387,-14.407604,5.617311,-198.125839,0,0
22824,2024 8 08,15:43:19.597,-0.387023,-0.670127,0.116162,-0.62249,-2.085809,0.057618,-0.141754,-18.913765,10.437874,-230.575912,0,0
22825,2024 8 08,15:43:19.605,-0.400015,-0.671011,0.103991,-0.61546,-2.292418,0.122039,-0.172682,-22.509024,15.142461,-264.349304,0,0
22826,2024 8 08,15:43:19.613,-0.404553,-0.671195,0.09972,-0.613014,-2.369282,0.137223,-0.187866,-24.157698,17.657328,-276.177155,0,0
22827,2024 8 08,15:43:19.622,-0.419727,-0.671129,0.085287,-0.604884,-2.647063,0.170664,-0.245104,-30.882587,30.089706,-315.818848,0,0
22828,2024 8 08,15:43:19.630,-0.439224,-0.669955,0.066059,-0.594509,-2.979579,0.264411,-0.21609,-34.814117,48.285858,-365.745514,0,0
22829,2024 8 08,15:43:19.638,-0.461002,-0.667385,0.042489,-0.582793,-3.137154,0.150613,-0.022299,-26.758659,72.628403,-415.124725,0,0
22830,2024 8 08,15:43:19.647,-0.483532,-0.663124,0.014569,-0.570478,-3.046014,0.015409,0.089952,-10.508385,104.668915,-453.312927,0,0
22831,2024 8 08,15:43:19.655,-0.503353,-0.658238,-0.01371,-0.559004,-2.852856,-0.280822,-0.083773,8.40671,124.979965,-477.49646,0,0
22832,2024 8 08,15:43:19.663,-0.510541,-0.656298,-0.02432,-0.554635,-2.815774,-0.364053,-0.111408,13.437457,129.942184,-482.980042,0,1
22833,2024 8 08,15:43:19.672,-0.527521,-0.650581,-0.051407,-0.543237,-2.859578,-0.419719,-0.045512,15.427851,132.27153,-478.058533,0,0
22834,2024 8 08,15:43:19.680,-0.546054,-0.642247,-0.082496,-0.530641,-2.661202,-0.322922,-0.248413,12.374112,150.656464,-464.883301,0,0
22835,2024 8 08,15:43:19.688,-0.564207,-0.631867,-0.113869,-0.518054,-2.284245,0.056334,-0.333172,2.02935,157.623474,-451.497986,0,0
22836,2024 8 08,15:43:19.697,-0.581529,-0.620603,-0.144271,-0.504739,-1.813324,-0.615378,0.242979,-2.95136,145.617859,-441.276703,0,0
22837,2024 8 08,15:43:19.705,-0.598326,-0.609771,-0.17252,-0.489208,-1.475442,0.813167,-0.668367,-5.231762,108.35437,-436.169952,0,0
22838,2024 8 08,15:43:19.713,-0.613564,-0.600338,-0.196218,-0.473028,-1.163755,1.101843,-0.710174,-10.042521,73.331253,-437.496613,0,0
22839,2024 8 08,15:43:19.722,-0.619943,-0.596443,-0.205673,-0.465982,-0.98364,1.119783,-0.797751,-13.362247,58.262756,-436.694794,0,0
22840,2024 8 08,15:43:19.730,-0.633837,-0.381706,0.609617,-0.284462,-0.240717,0.66446,-1.254225,-33.28088,22.001553,-416.899292,0,0
22841,2024 8 08,15:43:19.738,-0.656532,-0.574827,-0.241481,-0.424525,1.677033,0.412118,-1.069236,-113.432526,-47.717701,-294.241852,0,0
22842,2024 8 08,15:43:19.747,-0.668031,-0.568702,-0.237793,-0.41685,0.415815,1.276299,-0.294438,-114.543388,-90.672905,-45.345291,0,0
22843,2024 8 08,15:43:19.755,-0.670675,-0.566748,-0.225628,-0.421993,-0.285216,1.366184,-0.18387,-108.655884,-42.855034,143.00827,0,0
22844,2024 8 08,15:43:19.763,-0.666013,-0.567105,-0.209014,-0.437157,-0.770167,1.27921,-0.245982,-80.542458,-14.571791,275.713135,0,0
22845,2024 8 08,15:43:19.772,-0.665798,-0.567122,-0.208249,-0.437856,-0.792521,1.275201,-0.248846,-79.246574,-13.268078,281.83017,0,0
22846,2024 8 08,15:43:19.780,-0.656101,-0.568953,-0.190856,-0.457532,-0.744604,1.03545,-0.234104,-54.992561,17.764805,343.485046,0,0
22847,2024 8 08,15:43:19.788,-0.643089,-0.571471,-0.172325,-0.479644,-0.571376,0.873076,-0.32567,-39.180504,19.042107,365.718994,0,0
22848,2024 8 08,15:43:19.797,-0.629094,-0.574773,-0.153253,-0.500268,-0.402249,0.747922,-0.473678,-29.358944,0.051121,359.135559,0,0
22849,2024 8 08,15:43:19.805,-0.61542,-0.579008,-0.133559,-0.517728,-0.387622,0.604294,-0.526045,-23.674976,-35.229126,337.914673,0,0
22850,2024 8 08,15:43:19.813,-0.602487,-0.584304,-0.113039,-0.531684,-0.428267,0.544696,-0.457585,-21.385458,-71.730789,316.648346,0,0
22851,2024 8 08,15:43:19.822,-0.600887,-0.584959,-0.1105,-0.533411,-0.433295,0.537322,-0.449115,-21.102201,-76.246727,314.017303,0,0
22852,2024 8 08,15:43:19.830,-0.589711,-0.590674,-0.091557,-0.543004,-0.539961,0.575808,-0.273821,-15.816728,-100.548309,305.868195,0,0
22853,2024 8 08,15:43:19.838,-0.576293,-0.597694,-0.070004,-0.552792,-0.699174,0.597866,-0.220188,-4.120931,-112.729858,311.182159,0,0
22854,2024 8 08,15:43:19.847,-0.560915,-0.605285,-0.047558,-0.562609,-0.874099,0.545084,-0.162735,8.149837,-117.993721,327.352692,0,0
22855,2024 8 08,15:43:19.855,-0.5436,-0.61286,-0.024546,-0.572748,-0.960769,0.439874,-0.137053,16.964062,-116.684662,344.66684,0,0
22856,2024 8 08,15:43:19.863,-0.524797,-0.620129,-0.001026,-0.582859,-1.014977,0.302256,-0.151383,20.616163,-119.507217,356.303467,0,0
22857,2024 8 08,15:43:19.872,-0.521231,-0.621508,0.003435,-0.584776,-1.025258,0.276155,-0.154101,21.308821,-120.042542,358.510468,0,0
22858,2024 8 08,15:43:19.880,-0.504751,-0.627454,0.023953,-0.592223,-1.066939,0.153598,-0.153105,17.744167,-133.470535,359.912994,0,0
22859,2024 8 08,15:43:19.888,-0.485739,-0.634346,0.04861,-0.599121,-1.127354,0.051918,-0.135035,9.017044,-155.236938,357.546692,0,0
22860,2024 8 08,15:43:19.897,-0.466305,-0.641646,0.075181,-0.603959,-1.330183,0.010123,-0.046604,-0.309209,-182.107834,352.992554,0,0
22861,2024 8 08,15:43:19.905,-0.446778,-0.649025,0.102697,-0.606734,-1.622073,0.022835,0.071152,-7.168547,-199.187103,347.315765,0,0
22862,2024 8 08,15:43:19.913,-0.427113,-0.655587,0.130075,-0.608561,-1.896672,0.047115,0.202857,-8.430922,-196.049255,342.760223,0,0
22863,2024 8 08,15:43:19.922,-0.422268,-0.657204,0.13682,-0.609011,-1.964326,0.053097,0.235305,-8.741935,-195.276184,341.637878,0,0
22864,2024 8 08,15:43:19.930,-0.406104,-0.661084,0.158077,-0.610535,-2.051415,0.073603,0.298016,-5.911617,-180.351715,340.680145,0,0
22865,2024 8 08,15:43:19.938,-0.3866,-0.610052,0.309713,-0.618429,-2.122517,0.043604,0.351717,0.764292,-161.504913,342.773193,0,0
22866,2024 8 08,15:43:19.947,-0.365941,-0.666222,0.206176,-0.61579,-2.127844,-0.068866,0.283354,4.504359,-142.948654,344.786102,0,0
22867,2024 8 08,15:43:19.955,-0.344785,-0.667156,0.229866,-0.618559,-2.194065,-0.262005,0.200178,4.988977,-138.748672,344.267944,0,0
22868,2024 8 08,15:43:19.963,-0.323696,-0.667514,0.253285,-0.6204,-2.291182,-0.474741,0.095783,-0.006341,-141.048294,338.941132,0,0
22869,2024 8 08,15:43:19.972,-0.317461,-0.66762,0.260209,-0.620944,-2.319896,-0.53764,0.064917,-1.48328,-141.72821,337.366211,0,0
22870,2024 8 08,15:43:19.980,-0.301461,-0.667465,0.278352,-0.621123,-2.409997,-0.815966,0.024071,-9.592921,-143.944046,329.436188,0,0
22871,2024 8 08,15:43:19.988,-0.283476,-0.666764,0.299459,-0.620418,-2.423079,-1.125787,-0.009496,-20.35527,-142.644287,317.735535,0,0
22872,2024 8 08,15:43:19.997,-0.265736,-0.665695,0.32092,-0.618633,-2.415107,-1.410208,0.037537,-28.326542,-142.804779,302.580688,0,0
22873,2024 8 08,15:43:20.005,-0.248846,-0.664413,0.341385,-0.616074,-2.375527,-1.640889,0.119016,-28.809069,-138.233627,283.540649,0,0
22874,2024 8 08,15:43:20.013,-0.238333,-0.596282,0.344081,-0.685021,-2.335521,-1.764832,0.183889,-27.900764,-135.376053,270.454346,0,0
22875,2024 8 08,15:43:20.022,-0.225027,-0.662569,0.36928,-0.611541,-2.207341,-1.822624,0.337422,-20.653761,-131.696884,247.660309,0,0
22876,2024 8 08,15:43:20.030,-0.222754,-0.662475,0.371638,-0.611016,-2.15705,-1.839125,0.377596,-18.211166,-130.964035,242.63504,0,0
22877,2024 8 08,15:43:20.038,-0.208823,-0.662191,0.385438,-0.607674,-1.80117,-1.949837,0.646993,-1.265858,-128.203323,209.987,0,0
22878,2024 8 08,15:43:20.047,-0.194813,-0.663459,0.396636,-0.603725,-1.393435,-2.070462,0.951028,20.288282,-139.462799,174.371399,0,0
22879,2024 8 08,15:43:20.055,-0.180254,-0.6672,0.404837,-0.598655,-1.302533,-2.200206,1.189682,48.065369,-164.842789,141.757339,0,0
22880,2024 8 08,15:43:20.063,-0.16493,-0.673259,0.409833,-0.592861,-1.577153,-2.491,1.359547,76.668388,-178.844604,110.680626,0,0
22881,2024 8 08,15:43:20.072,-0.15188,-0.679006,0.411551,-0.58862,-1.826366,-2.858711,1.271589,98.294609,-157.852997,85.057831,0,0
22882,2024 8 08,15:43:20.080,-0.149059,-0.680164,0.411541,-0.588021,-1.859003,-2.940959,1.242555,101.599884,-146.643311,79.009079,0,0
22883,2024 8 08,15:43:20.088,-0.139019,-0.68385,0.409788,-0.587425,-1.854581,-3.226151,1.086675,106.980118,-79.270103,53.522461,0,0
22884,2024 8 08,15:43:20.097,-0.132439,-0.685318,0.405577,-0.590156,-1.624826,-3.224837,0.774863,97.608276,-6.991928,20.02903,0,0
22885,2024 8 08,15:43:20.105,-0.131632,-0.686969,0.399481,-0.592536,-1.938292,-2.652632,0.354734,60.291245,11.157873,-45.470947,0,0
22886,2024 8 08,15:43:20.113,-0.146204,-0.694627,0.39101,-0.585671,-1.996979,-1.926502,1.628184,-81.389771,-23.468878,-256.283203,0,0
22887,2024 8 08,15:43:20.122,-0.173785,-0.69484,0.383981,-0.582527,-1.336794,0.01606,-1.7995,-249.546646,130.246857,-295.949554,1,0
22888,2024 8 08,15:43:20.130,-0.18119,-0.69512,0.381949,-0.581359,-1.258133,0.410981,-2.214011,-262.196381,144.850555,-293.265472,0,0
22889,2024 8 08,15:43:20.138,-0.200815,-0.696811,0.375629,-0.576933,-1.473376,0.760317,-0.945775,-152.636292,72.97744,-231.589752,0,0
22890,2024 8 08,15:43:20.147,-0.219902,-0.697794,0.366833,-0.57442,-1.453588,0.399287,0.232595,-89.861145,91.402328,-218.177811,0,0
22891,2024 8 08,15:43:20.155,-0.234727,-0.697789,0.352282,-0.57765,-1.400236,-0.140667,0.306947,1.044754,134.700882,-206.476624,0,0
22892,2024 8 08,15:43:20.163,-0.245795,-0.696399,0.335958,-0.584408,-1.541868,-0.421688,-0.047312,55.792423,155.230499,-169.31131,0,0
22893,2024 8 08,15:43:20.172,-0.253786,-0.69273,0.321221,-0.593581,-1.288052,-0.33775,0.020576,61.769859,175.708405,-119.581573,0,0
22894,2024 8 08,15:43:20.180,-0.258316,-0.689014,0.309242,-0.602304,-1.101214,0.11595,0.139655,80.392502,155.023575,-89.496361,0,0
22895,2024 8 08,15:43:20.188,-0.259528,-0.649437,0.322442,-0.63787,-1.058783,-0.200942,-0.002603,85.58181,147.297714,-80.106644,0,0
22896,2024 8 08,15:43:20.197,-0.260607,-0.685445,0.295628,-0.612185,-1.066243,-0.085787,-0.003543,88.695419,126.913193,-63.064152,0,0
22897,2024 8 08,15:43:20.205,-0.261541,-0.682612,0.286403,-0.619294,-1.053131,-0.229132,-0.107013,73.543243,111.265549,-47.56781,0,0
22898,2024 8 08,15:43:20.213,-0.262619,-0.679627,0.278533,-0.625686,-1.015135,-0.147578,-0.153793,60.356247,98.097343,-39.100693,0,0
22899,2024 8 08,15:43:20.222,-0.263328,-0.677081,0.271719,-0.631133,-1.031257,-0.186237,-0.101594,52.035099,82.123642,-31.266533,0,0
22900,2024 8 08,15:43:20.230,-0.263766,-0.674807,0.266385,-0.635658,-1.027839,-0.176481,-0.077186,47.246017,76.820602,-23.31196,0,0
22901,2024 8 08,15:43:20.238,-0.26393,-0.673894,0.264385,-0.637407,-1.027664,-0.165811,-0.065066,44.928368,74.490005,-20.61705,0,0
22902,2024 8 08,15:43:20.247,-0.264232,-0.671842,0.260633,-0.640981,-1.032251,-0.113831,-0.026442,38.182384,68.379082,-17.386822,0,0
22903,2024 8 08,15:43:20.255,-0.264487,-0.669609,0.256671,-0.644798,-1.027321,-0.107262,0.011331,34.106956,62.402405,-15.311081,0,0
22904,2024 8 08,15:43:20.263,-0.264734,-0.667524,0.253016,-0.648295,-1.013269,-0.131024,0.038723,30.246094,54.255699,-13.01667,0,0
22905,2024 8 08,15:43:20.272,-0.265138,-0.665616,0.249925,-0.651286,-1.03512,-0.118158,0.087737,23.048477,47.245171,-12.029438,0,0
22906,2024 8 08,15:43:20.280,-0.265761,-0.663306,0.246151,-0.654833,-1.056017,-0.111371,0.033529,15.078728,38.582832,-11.539583,0,0
22907,2024 8 08,15:43:20.288,-0.265766,-0.663288,0.246121,-0.65486,-1.056181,-0.096592,-0.000309,15.016135,38.514801,-11.535736,0,0
22908,2024 8 08,15:43:20.297,-0.266361,-0.661927,0.243903,-0.656823,-1.025181,-0.088895,-0.018345,11.667841,34.579212,-11.946667,0,0
22909,2024 8 08,15:43:20.305,-0.267146,-0.660617,0.242104,-0.658486,-1.040217,-0.077302,-0.013454,7.782821,29.399691,-10.747356,0,0
22910,2024 8 08,15:43:20.313,-0.268067,-0.659397,0.240595,-0.659886,-1.041448,-0.095399,-0.034176,3.365077,26.682003,-10.970502,0,0
22911,2024 8 08,15:43:20.322,-0.269166,-0.658273,0.23946,-0.660973,-1.041529,-0.127632,0.021995,-1.135899,23.190683,-10.142538,0,0
22912,2024 8 08,15:43:20.330,-0.270288,-0.642524,0.377529,-0.60957,-1.039763,-0.129483,0.049267,-2.984589,20.092529,-9.413052,0,0
22913,2024 8 08,15:43:20.338,-0.270391,-0.657114,0.238488,-0.661977,-1.039602,-0.078594,-0.021573,-3.153842,19.808886,-9.346266,0,0
22914,2024 8 08,15:43:20.347,-0.271455,-0.656326,0.237927,-0.662525,-1.04949,-0.071292,-0.00513,-5.486251,16.38792,-9.231646,0,0
22915,2024 8 08,15:43:20.355,-0.272712,-0.655531,0.237455,-0.662964,-1.044269,-0.070017,-0.011287,-8.04087,14.025167,-9.90855,0,0
22916,2024 8 08,15:43:20.363,-0.274142,-0.654806,0.237187,-0.663187,-1.060362,-0.078653,0.006361,-11.249559,11.88869,-10.362069,0,0
22917,2024 8 08,15:43:20.372,-0.275675,-0.654115,0.23697,-0.66331,-1.051036,-0.072419,0.005936,-12.422088,11.124603,-11.35581,0,0
22918,2024 8 08,15:43:20.380,-0.277321,-0.653429,0.236798,-0.663362,-1.052074,-0.075557,-0.009633,-13.160439,10.550024,-11.965117,0,0
22919,2024 8 08,15:43:20.388,-0.277588,-0.653318,0.236771,-0.66337,-1.052242,-0.076066,-0.012159,-13.280221,10.456811,-12.063965,0,0
22920,2024 8 08,15:43:20.397,-0.279063,-0.652769,0.236629,-0.663342,-1.059428,-0.059058,0.008079,-14.046403,10.341294,-12.925921,0,0
22921,2024 8 08,15:43:20.405,-0.280664,-0.652133,0.236354,-0.66339,-1.042295,-0.068893,0.023175,-12.273212,10.958012,-12.789592,0,0
22922,2024 8 08,15:43:20.413,-0.282157,-0.651452,0.235937,-0.663574,-1.046344,-0.061881,0.040441,-8.925586,13.112606,-12.23017,0,0
22923,2024 8 08,15:43:20.422,-0.283494,-0.650637,0.235307,-0.664027,-1.056358,-0.085724,-0.033771,-6.329824,15.752699,-11.111251,0,0
22924,2024 8 08,15:43:20.430,-0.28476,-0.649822,0.23472,-0.664491,-1.043742,-0.089674,0.025293,-6.059975,15.701062,-10.02167,0,0
22925,2024 8 08,15:43:20.438,-0.285042,-0.649641,0.23459,-0.664594,-1.040933,-0.090553,0.038447,-5.999879,15.689563,-9.779018,0,0
22926,2024 8 08,15:43:20.447,-0.286055,-0.648853,0.234085,-0.665106,-1.037696,-0.124954,0.070081,-6.078246,17.440708,-9.399667,0,0
22927,2024 8 08,15:43:20.455,-0.287252,-0.647929,0.233552,-0.665678,-1.031808,-0.075769,0.029796,-6.872513,17.360954,-9.080202,0,0
22928,2024 8 08,15:43:20.463,-0.288489,-0.646989,0.233054,-0.666231,-1.038632,-0.375195,0.210273,-8.06269,16.214005,-9.180732,0,0
22929,2024 8 08,15:43:20.472,-0.289759,-0.704479,0.302422,-0.572959,-1.055726,-0.05116,0.077525,-8.013709,12.798183,-9.786036,0,0
22930,2024 8 08,15:43:20.480,-0.290842,-0.645595,0.232098,-0.666894,-1.060639,-0.080496,0.047999,-4.079476,11.490301,-10.167825,0,0
22931,2024 8 08,15:43:20.488,-0.29114,-0.645423,0.231941,-0.666985,-1.06199,-0.088564,0.039879,-2.997436,11.130591,-10.272829,0,0
22932,2024 8 08,15:43:20.497,-0.291867,-0.645111,0.231312,-0.667188,-1.080295,-0.085333,0.045507,-1.097165,10.554883,-10.905677,0,0
22933,2024 8 08,15:43:20.505,-0.29271,-0.644718,0.23038,-0.66752,-1.084939,-0.074508,0.003854,0.648719,11.750825,-12.154988,0,0
22934,2024 8 08,15:43:20.513,-0.293513,-0.644341,0.229206,-0.667936,-1.084977,-0.065206,0.051768,4.373132,13.203753,-12.780954,0,0
22935,2024 8 08,15:43:20.522,-0.294251,-0.643996,0.227834,-0.668413,-1.086656,-0.120785,0.059571,5.179906,13.189982,-14.014918,0,0
22936,2024 8 08,15:43:20.530,-0.294825,-0.64371,0.226211,-0.668986,-1.089493,-0.075166,0.003335,9.846559,14.010654,-14.154325,0,0
22937,2024 8 08,15:43:20.538,-0.295009,-0.643618,0.225691,-0.66917,-1.090403,-0.082697,-0.013589,11.343437,14.273893,-14.19904,0,0
22938,2024 8 08,15:43:20.547,-0.295158,-0.643544,0.225188,-0.669344,-1.091379,-0.087009,-0.004901,12.296444,14.370972,-14.196442,0,0
22939,2024 8 08,15:43:20.555,-0.295606,-0.643309,0.223359,-0.669986,-1.088477,-0.089715,0.091639,13.476198,14.82821,-14.348801,0,0
22940,2024 8 08,15:43:20.563,-0.296177,-0.642949,0.221295,-0.670763,-1.057284,-0.106519,0.008735,12.370708,17.464333,-16.553307,0,0
22941,2024 8 08,15:43:20.572,-0.296755,-0.642979,0.219362,-0.671115,-1.113822,-0.084984,0.067786,11.707474,8.56977,-18.747881,0,0
22942,2024 8 08,15:43:20.580,-0.29763,-0.651219,0.227682,-0.659917,-1.160311,-0.061684,0.08584,9.703344,13.274961,-22.523516,0,0
22943,2024 8 08,15:43:20.588,-0.298703,-0.642903,0.215268,-0.671648,-1.164714,-0.095389,0.067427,8.068381,13.416177,-27.486851,0,0
22944,2024 8 08,15:43:20.597,-0.299015,-0.642903,0.214827,-0.67165,-1.164441,-0.094473,0.070626,7.615623,13.110903,-28.60887,0,0
22945,2024 8 08,15:43:20.605,-0.300777,-0.643015,0.212641,-0.671451,-1.169342,-0.073603,0.092083,5.096955,10.017992,-34.500984,0,0
22946,2024 8 08,15:43:20.613,-0.303015,-0.643587,0.210138,-0.670684,-1.230371,-0.079962,0.046806,1.876662,2.307386,-42.973534,0,0
22947,2024 8 08,15:43:20.622,-0.305958,-0.644576,0.20752,-0.669209,-1.275464,-0.100736,0.04456,-2.303712,-3.172945,-53.086231,0,0
22948,2024 8 08,15:43:20.630,-0.309714,-0.645915,0.20472,-0.667046,-1.301899,-0.096068,0.034902,-7.952391,-8.884335,-64.086342,0,0
22949,2024 8 08,15:43:20.638,-0.314267,-0.64762,0.201704,-0.664173,-1.319176,-0.062179,0.068333,-11.779969,-13.752781,-75.562851,0,0
22950,2024 8 08,15:43:20.647,-0.318657,-0.649304,0.198604,-0.661369,-1.37629,-0.078428,0.086383,-10.397177,-13.940945,-83.857567,0,0
22951,2024 8 08,15:43:20.655,-0.320007,-0.649773,0.197615,-0.660553,-1.378422,-0.078166,0.090126,-10.143283,-13.102933,-86.453537,0,0
22952,2024 8 08,15:43:20.663,-0.325019,-0.651301,0.193706,-0.657744,-1.338345,-0.06082,0.093909,-9.081675,-6.73903,-95.637108,0,0
22953,2024 8 08,15:43:20.672,-0.33079,-0.6529,0.188497,-0.654781,-1.37071,-0.055709,0.085564,-3.914279,-1.372319,-103.104187,0,0
22954,2024 8 08,15:43:20.680,-0.33714,-0.654714,0.182481,-0.651418,-1.496822,-0.02079,0.108879,-3.571357,-2.913002,-116.518173,0,0
22955,2024 8 08,15:43:20.688,-0.344522,-0.656671,0.175486,-0.647483,-1.574731,-0.03625,0.040272,-4.15324,-0.364145,-135.309525,0,0
22956,2024 8 08,15:43:20.697,-0.352083,-0.658327,0.168372,-0.643619,-1.703068,-0.005029,0.073121,-6.286429,3.003443,-153.583313,0,0
22957,2024 8 08,15:43:20.705,-0.354848,-0.658863,0.16579,-0.642229,-1.750551,0.000465,0.053211,-7.471669,4.485403,-160.440338,0,0
22958,2024 8 08,15:43:20.713,-0.363759,-0.660241,0.157635,-0.637825,-1.907664,0.006099,-0.116241,-13.109074,9.142233,-183.352188,0,0
22959,2024 8 08,15:43:20.722,-0.375663,-0.661775,0.147214,-0.631743,-2.138857,0.093594,-0.126907,-19.966999,8.993036,-214.233322,0,0
22960,2024 8 08,15:43:20.730,-0.389782,-0.663225,0.134501,-0.624395,-2.466448,0.153656,-0.221265,-23.199869,17.140184,-251.794006,0,0
22961,2024 8 08,15:43:20.738,-0.406331,-0.664083,0.118974,-0.615937,-2.730218,0.256818,-0.356292,-25.631927,30.68903,-297.094421,0,0
22962,2024 8 08,15:43:20.747,-0.423102,-0.664114,0.102441,-0.607543,-3.036057,0.266033,-0.404514,-28.109812,51.742016,-340.837219,0,0
22963,2024 8 08,15:43:20.755,-0.429851,0.657048,0.036,0.618083,-3.120687,0.260411,-0.406024,-28.542799,61.144371,-357.59967,0,0
22964,2024 8 08,15:43:20.763,-0.44778,-0.661631,0.076191,-0.596173,-3.14924,0.196172,-0.307675,-26.477034,90.215401,-396.344727,0,0
22965,2024 8 08,15:43:20.772,-0.469478,-0.657477,0.050384,-0.586467,-3.111802,0.075712,-0.117562,-19.589935,121.994354,-431.958466,0,0
22966,2024 8 08,15:43:20.780,-0.492224,-0.572391,0.222627,-0.616688,-2.922148,-0.152358,-0.035304,-4.100426,149.212387,-460.324341,0,0
22967,2024 8 08,15:43:20.788,-0.514668,-0.643999,-0.012006,-0.564762,-2.721978,-0.188007,0.045383,-0.471812,159.192474,-469.241852,0,1
22968,2024 8 08,15:43:20.797,-0.534196,-0.636001,-0.041465,-0.554373,-2.581785,-0.119796,-0.029422,0.013626,168.991745,-461.997284,0,0
22969,2024 8 08,15:43:20.805,-0.542211,-0.632414,-0.053797,-0.550048,-2.504036,-0.074235,-0.061314,-0.374312,173.442307,-458.404846,0,0
22970,2024 8 08,15:43:20.813,-0.557817,-0.623537,-0.079345,-0.541182,-2.220693,0.125613,-0.157612,-3.682661,182.677078,-448.299927,0,0
22971,2024 8 08,15:43:20.822,-0.581227,-0.60842,-0.119397,-0.526968,-1.617478,0.550158,-0.537123,-2.940201,181.354187,-435.604584,0,0
22972,2024 8 08,15:43:20.830,-0.598766,-0.597087,-0.148698,-0.512648,-1.293414,0.87129,-0.594021,-2.396614,132.028122,-434.955902,0,0
22973,2024 8 08,15:43:20.838,-0.615869,-0.587193,-0.175247,-0.495108,-1.105292,0.993949,-0.535871,-0.688256,83.919899,-434.645508,0,0
22974,2024 8 08,15:43:20.847,-0.633481,-0.57809,-0.198294,-0.474454,-0.115852,0.971614,-1.307232,-22.640642,30.095104,-428.881317,0,0
22975,2024 8 08,15:43:20.855,-0.634483,-0.577572,-0.199606,-0.473278,-0.059518,0.970342,-1.35115,-23.890522,27.030537,-428.553131,0,0
22976,2024 8 08,15:43:20.863,-0.65082,-0.568364,-0.213132,-0.455952,2.200128,0.675782,-1.148697,-78.436234,-10.384247,-323.412872,0,0
22977,2024 8 08,15:43:20.872,-0.662939,-0.563689,-0.212324,-0.444573,0.320161,1.096045,-0.264836,-101.556732,-110.148788,-96.349152,0,0
22978,2024 8 08,15:43:20.880,-0.666336,0.176316,0.718663,0.091807,-0.560987,1.319894,-0.217767,-87.391693,-40.184105,93.052521,0,0
22979,2024 8 08,15:43:20.888,-0.662169,-0.561619,-0.189591,-0.458391,-0.856611,1.307446,-0.304735,-63.092468,-3.540466,223.720596,0,0
22980,2024 8 08,15:43:20.897,-0.652121,-0.562337,-0.17534,-0.47714,-0.81973,1.095941,-0.23921,-39.182865,46.792351,301.335114,0,0
22981,2024 8 08,15:43:20.905,-0.650786,-0.562432,-0.173446,-0.479631,-0.81483,1.067837,-0.230503,-36.005859,53.480362,311.648193,0,0
22982,2024 8 08,15:43:20.913,-0.638462,-0.563388,-0.161151,-0.49886,-0.520014,0.865514,-0.376094,-21.819187,55.731236,335.502899,0,0
22983,2024 8 08,15:43:20.922,-0.623764,-0.565498,-0.146263,-0.519175,-0.34019,0.737831,-0.4641,-12.051722,35.885273,339.872986,0,0
22984,2024 8 08,15:43:20.930,-0.608818,-0.568679,-0.129964,-0.537437,-0.251755,0.622008,-0.589348,-9.524449,-0.576889,331.4841,0,0
22985,2024 8 08,15:43:20.938,-0.594113,-0.573321,-0.11182,-0.552811,-0.371004,0.547301,-0.552576,-8.384668,-40.362793,324.361359,0,0
22986,2024 8 08,15:43:20.947,-0.579107,-0.579129,-0.092109,-0.566135,-0.536719,0.537207,-0.457789,-4.65536,-69.352554,325.66333,0,0
22987,2024 8 08,15:43:20.955,-0.576143,-0.580276,-0.088216,-0.568766,-0.569447,0.10634,-0.038197,-3.918833,-75.077942,325.920441,0,0
22988,2024 8 08,15:43:20.963,-0.562514,-0.58591,-0.070586,-0.57889,-0.775528,0.560332,-0.34983,3.616716,-85.457878,336.59552,0,0
22989,2024 8 08,15:43:20.972,-0.545164,-0.592475,-0.049891,-0.590733,-0.945593,0.255295,-0.003582,13.109551,-84.886559,351.33371,0,0
22990,2024 8 08,15:43:20.980,-0.525795,-0.59887,-0.028491,-0.603064,-0.992265,0.340509,-0.330895,20.557938,-80.247673,362.479736,0,0
22991,2024 8 08,15:43:20.988,-0.505453,-0.604809,-0.00702,-0.615004,-0.947023,0.190797,-0.381742,22.771288,-82.279251,363.037079,0,0
22992,2024 8 08,15:43:20.997,-0.485255,-0.610831,0.014594,-0.62509,-0.961391,0.060126,-0.423593,20.088654,-99.756592,348.780518,0,0
22993,2024 8 08,15:43:21.005,-0.480142,-0.612356,0.020066,-0.627643,-0.965029,0.027046,-0.434187,19.409533,-104.181053,345.171417,0,0
22994,2024 8 08,15:43:21.013,-0.464969,-0.617944,0.037402,-0.632685,-1.061458,-0.057211,-0.401821,15.416382,-130.272293,319.825928,0,0
22995,2024 8 08,15:43:21.022,-0.448263,-0.625532,0.057752,-0.63566,-1.249273,-0.075752,-0.374483,11.530799,-161.662369,291.883179,0,0
22996,2024 8 08,15:43:21.030,-0.431315,-0.634274,0.078778,-0.636413,-1.47294,-0.043434,-0.305458,14.006573,-182.799652,276.345917,0,0
22997,2024 8 08,15:43:21.038,-0.413389,-0.64321,0.099726,-0.636366,-1.701324,-0.016684,-0.215012,23.722988,-185.416702,278.805878,0,0
22998,2024 8 08,15:43:21.047,-0.393765,-0.651472,0.120235,-0.636825,-1.865194,-0.068219,-0.157538,38.797993,-174.179382,291.747772,0,0
22999,2024 8 08,15:43:21.055,-0.387847,-0.653964,0.126421,-0.636963,-1.914616,-0.083761,-0.140204,43.344501,-170.790283,295.65094,0,0
23000,2024 8 08,15:43:21.063,-0.370594,-0.659546,0.141783,-0.638142,-1.93587,-0.235712,-0.153115,57.288345,-160.359589,306.032928,0,0
23001,2024 8 08,15:43:21.072,-0.348949,-0.665802,0.159503,-0.639526,-1.912687,-0.441864,-0.203539,69.176262,-159.031418,312.480621,0,0
23002,2024 8 08,15:43:21.080,-0.325336,-0.672541,0.177719,-0.640017,-1.966,-0.664009,-0.25465,77.534447,-169.69902,312.940674,0,0
23003,2024 8 08,15:43:21.088,-0.310222,-0.676904,0.189229,-0.640021,-2.015317,-0.806629,-0.283773,82.03878,-177.288544,312.057281,0,0
23004,2024 8 08,15:43:21.096,-0.285495,-0.684355,0.207143,-0.638043,-2.177247,-1.054365,-0.302173,84.24572,-193.063461,303.420166,0,0
23005,2024 8 08,15:43:21.105,-0.260992,-0.691943,0.224402,-0.634501,-2.30598,-1.377471,-0.269703,83.431648,-201.280197,291.429718,0,0
23006,2024 8 08,15:43:21.113,-0.2402,-0.698222,0.238772,-0.630659,-2.394485,-1.667727,-0.273246,79.853142,-199.848969,281.274658,0,0
23007,2024 8 08,15:43:21.121,-0.236179,-0.699363,0.241514,-0.629828,-2.406293,-1.720589,-0.255206,79.048775,-198.480469,279.192322,0,0
23008,2024 8 08,15:43:21.130,-0.214815,-0.705157,0.256006,-0.625238,-2.429586,-1.98489,-0.135541,74.128059,-187.561432,267.125519,0,0
23009,2024 8 08,15:43:21.138,-0.194028,-0.709987,0.270141,-0.620605,-2.245349,-2.17619,-0.075972,65.806442,-168.665314,249.297836,0,0
23010,2024 8 08,15:43:21.146,-0.175403,-0.71415,0.283147,-0.615564,-1.905358,-2.332979,0.145101,52.60849,-160.253708,224.045822,0,0
23011,2024 8 08,15:43:21.155,-0.159059,-0.718505,0.294821,-0.609435,-1.567849,-2.494993,0.47125,39.889668,-164.848389,193.930878,0,0
23012,2024 8 08,15:43:21.163,-0.146106,-0.723007,0.304094,-0.602807,-1.396495,-2.596573,0.733001,31.746016,-177.95462,168.242645,0,0
23013,2024 8 08,15:43:21.171,-0.142863,-0.724317,0.306338,-0.600883,-1.404561,-2.622838,0.793787,30.784945,-180.547806,162.048767,0,0
23014,2024 8 08,15:43:21.180,-0.131203,-0.729692,0.314002,-0.593003,-1.620213,-2.733303,0.99146,31.676661,-181.571106,139.762817,0,0
23015,2024 8 08,15:43:21.188,-0.120317,-0.73454,0.320309,-0.585926,-1.784885,-2.925717,1.128418,34.473648,-140.965271,111.679924,0,0
23016,2024 8 08,15:43:21.196,-0.112793,-0.736888,0.323953,-0.582491,-1.64092,-3.111634,1.038803,32.733017,-70.531921,78.252533,0,0
23017,2024 8 08,15:43:21.205,-0.109131,-0.737162,0.325217,-0.582157,-1.256816,-3.099636,0.846234,22.894238,-18.28677,44.154022,0,0
23018,2024 8 08,15:43:21.213,-0.108264,-0.737028,0.325258,-0.582472,-1.124315,-2.884791,0.71681,8.576255,-2.767306,17.565954,0,0
23019,2024 8 08,15:43:21.221,-0.108402,-0.737072,0.325208,-0.58242,-1.966413,-2.619322,0.07879,1.380806,-1.752491,8.835559,0,0
23020,2024 8 08,15:43:21.230,-0.112714,-0.738102,0.324506,-0.58063,-6.896011,-1.141031,-3.179243,-35.882244,-0.815269,-34.226685,0,0
23021,2024 8 08,15:43:21.238,-0.131866,-0.740507,0.321587,-0.574956,-3.122877,-0.519315,0.505834,-108.510345,106.567978,-163.435608,0,0
23022,2024 8 08,15:43:21.246,-0.15923,-0.73135,0.315592,-0.582916,-0.820853,0.984996,-0.701082,-195.975525,247.437515,-195.9823,1,0
23023,2024 8 08,15:43:21.255,-0.178034,-0.727397,0.307564,-0.586803,-1.072721,0.497572,-0.93988,-80.121346,114.50647,-176.155823,0,0
23024,2024 8 08,15:43:21.263,-0.190801,-0.727643,0.299127,-0.586948,-1.492353,0.122828,0.463888,-25.637894,80.602112,-180.387207,0,0
23025,2024 8 08,15:43:21.271,-0.195077,-0.727344,0.295349,-0.587871,-1.567708,0.018039,0.743344,-6.496466,83.745995,-180.734711,0,0
23026,2024 8 08,15:43:21.280,-0.203591,-0.724696,0.282265,-0.594581,-1.382659,-0.125498,0.285104,37.146088,152.098267,-172.064163,0,0
23027,2024 8 08,15:43:21.288,-0.210051,-0.721947,0.26766,-0.602364,-1.237714,-0.439312,-0.233264,69.418953,130.472061,-139.059845,0,0
23028,2024 8 08,15:43:21.296,-0.214893,-0.719672,0.255747,-0.608552,-1.225258,-0.372758,0.048065,53.316837,113.609749,-103.343575,0,0
23029,2024 8 08,15:43:21.305,-0.217765,-0.716694,0.245367,-0.615303,-1.081441,-0.345567,-0.092568,66.097977,106.66938,-74.236229,0,0
23030,2024 8 08,15:43:21.313,-0.218963,-0.714515,0.237226,-0.620618,-1.099585,0.191475,0.19809,63.971722,88.889832,-55.91967,0,0
23031,2024 8 08,15:43:21.321,-0.219371,-0.713649,0.23411,-0.622684,-1.095268,-0.251101,0.0305,62.082844,82.874184,-49.89703,0,0
23032,2024 8 08,15:43:21.330,-0.219914,-0.711835,0.228328,-0.6267,-1.03574,-0.196166,-0.063205,52.716629,75.636932,-44.204731,0,0
23033,2024 8 08,15:43:21.338,-0.22076,-0.709857,0.222652,-0.630675,-1.038949,-0.130669,-0.072177,44.70015,66.960251,-39.069172,0,0
23034,2024 8 08,15:43:21.346,-0.221215,-0.707914,0.217106,-0.634621,-1.037978,-0.135403,-0.085324,44.213276,63.059601,-32.749123,0,0
23035,2024 8 08,15:43:21.355,-0.22134,-0.705351,0.209868,-0.639877,-1.021104,-0.162965,-0.117046,41.03014,56.244457,-25.788578,0,0
23036,2024 8 08,15:43:21.363,-0.221671,-0.703446,0.205704,-0.643204,-1.099518,-0.088428,-0.02147,32.16227,53.402367,-22.527082,0,0
23037,2024 8 08,15:43:21.371,-0.221677,-0.703409,0.205623,-0.643269,-1.101053,-0.086969,-0.019599,31.988672,53.346729,-22.463236,0,0
23038,2024 8 08,15:43:21.380,-0.221848,-0.701363,0.201663,-0.646686,-1.046784,-0.114312,-0.11982,30.822058,54.969765,-19.849541,0,0
