frame,date,time,quaternion_x,quaternion_y,quaternion_z,quaternion_w,accel_x,accel_y,accel_z,gyro_x,gyro_y,gyro_z,HS,TO
21160,2024 10 23,05:27:06.317,-0.336145,-0.659334,0.221435,-0.635021,-1.046907,0.096683,-0.064455,22.094727,3.051758,69.091797,0,0
21161,2024 10 23,05:27:06.326,-0.338537,-0.661373,0.216405,-0.633362,-1.034211,0.075686,-0.050783,22.033691,1.89209,66.955566,0,0
21162,2024 10 23,05:27:06.334,-0.34084,-0.663307,0.211573,-0.631735,-1.027863,0.051759,-0.052248,20.812988,2.075195,64.51416,0,0
21163,2024 10 23,05:27:06.342,-0.343039,-0.66513,0.206982,-0.630146,-1.026887,0.034669,-0.047853,19.40918,2.197266,61.584473,0,0
21164,2024 10 23,05:27:06.351,-0.345143,-0.666852,0.20264,-0.628587,-1.010285,0.01709,-0.04004,17.944336,2.563477,58.776855,0,0
21165,2024 10 23,05:27:06.359,-0.345143,-0.666852,0.20264,-0.628587,-1.010285,0.01709,-0.04004,17.944336,2.563477,58.776855,0,0
21166,2024 10 23,05:27:06.367,-0.347171,-0.668536,0.198562,-0.62698,-1.003449,-0.001953,-0.041993,16.357422,4.211426,56.640625,0,0
21167,2024 10 23,05:27:06.376,-0.349171,-0.670203,0.194758,-0.625281,-1.028352,-0.025391,-0.057131,14.160156,5.859375,54.870605,0,0
21168,2024 10 23,05:27:06.384,-0.351207,-0.671669,0.191229,-0.623655,-1.053743,-0.06592,-0.074221,10.864258,3.601074,52.185059,0,0
21169,2024 10 23,05:27:06.392,-0.353297,-0.672726,0.187878,-0.622353,-1.052767,-0.128422,-0.059572,8.850098,-1.220703,49.743652,0,0
21170,2024 10 23,05:27:06.401,-0.355453,-0.673495,0.184618,-0.621268,-1.047395,-0.198248,-0.075686,7.263184,-5.004883,48.400879,0,0
21171,2024 10 23,05:27:06.409,-0.355453,-0.673495,0.184618,-0.621268,-1.047395,-0.198248,-0.075686,7.263184,-5.004883,48.400879,0,0
21172,2024 10 23,05:27:06.417,-0.357494,-0.673881,0.181387,-0.62063,-0.983917,-0.281747,-0.055177,7.8125,-10.620117,44.189453,0,0
21173,2024 10 23,05:27:06.426,-0.359069,-0.674053,0.178492,-0.620373,-0.907254,-0.337901,-0.043947,9.155273,-11.71875,35.522461,0,0
21174,2024 10 23,05:27:06.434,-0.359938,-0.674247,0.176173,-0.620321,-0.870144,-0.341319,-0.049806,10.742188,-8.300781,25.268555,0,0
21175,2024 10 23,05:27:06.442,-0.358167,-0.675313,0.176693,-0.620039,-1.57915,-0.4756,-1.036164,14.221191,26.489258,-29.23584,0,0
21176,2024 10 23,05:27:06.451,-0.357355,-0.669475,0.178902,-0.626175,-1.25248,-1.14066,-0.024415,-5.67627,-87.890625,-65.917969,0,0
21177,2024 10 23,05:27:06.459,-0.357355,-0.669475,0.178902,-0.626175,-1.25248,-1.14066,-0.024415,-5.67627,-87.890625,-65.917969,0,0
21178,2024 10 23,05:27:06.467,-0.354368,-0.664393,0.183235,-0.632005,-1.35551,-1.501511,-0.525407,-26.367188,-48.76709,-85.754395,0,0
21179,2024 10 23,05:27:06.476,-0.349509,-0.659364,0.185989,-0.639133,-1.041047,-0.424818,-0.92288,29.23584,-85.083008,-83.007813,0,0
21180,2024 10 23,05:27:06.484,-0.343908,-0.654432,0.183188,-0.647987,-0.721213,0.808618,0.275887,65.368652,-88.134766,-57.617188,0,0
21181,2024 10 23,05:27:06.492,-0.340785,-0.652105,0.18396,-0.651754,-1.070833,0.561052,0.053224,-4.699707,-27.770996,-53.527832,0,0
21182,2024 10 23,05:27:06.501,-0.339036,-0.647708,0.187201,-0.656113,-1.047884,0.222663,-0.196783,-20.751953,-59.387207,-67.138672,0,0
21183,2024 10 23,05:27:06.509,-0.339036,-0.647708,0.187201,-0.656113,-1.047884,0.222663,-0.196783,-20.751953,-59.387207,-67.138672,0,0
21184,2024 10 23,05:27:06.517,-0.336994,-0.643602,0.189664,-0.660484,-1.024445,0.22071,0.10303,-8.544922,-39.0625,-55.175781,0,0
21185,2024 10 23,05:27:06.526,-0.33724,-0.640116,0.192824,-0.662827,-1.087924,0.059084,-0.277352,-38.330078,-35.217285,-32.348633,0,0
21186,2024 10 23,05:27:06.534,-0.33827,-0.636735,0.194367,-0.665104,-0.846706,0.086428,-0.112796,-21.66748,-34.057617,-15.991211,0,0
21187,2024 10 23,05:27:06.542,-0.338188,-0.635015,0.195383,-0.666491,-0.789087,0.186041,-0.30958,-6.958008,-15.50293,-18.554688,0,0
21188,2024 10 23,05:27:06.551,-0.337135,-0.6339,0.1963,-0.667816,-0.920438,0.241218,0.121097,-0.793457,-9.094238,-23.4375,0,0
21189,2024 10 23,05:27:06.559,-0.337135,-0.6339,0.1963,-0.667816,-0.920438,0.241218,0.121097,-0.793457,-9.094238,-23.4375,0,0
21190,2024 10 23,05:27:06.567,-0.336798,-0.633018,0.198198,-0.668261,-0.951689,0.08301,-0.267098,-17.39502,-3.295898,-19.165039,0,0
21191,2024 10 23,05:27:06.576,-0.335986,-0.631768,0.19911,-0.66958,-0.83401,0.153325,-0.145024,3.051758,-14.221191,-20.935059,0,0
21192,2024 10 23,05:27:06.584,-0.334583,-0.631466,0.19986,-0.670344,-0.885769,0.201666,-0.079592,2.502441,3.112793,-19.53125,0,0
21193,2024 10 23,05:27:06.592,-0.333316,-0.631379,0.201132,-0.670676,-0.898465,0.156743,-0.188971,0.610352,3.662109,-21.240234,0,0
21194,2024 10 23,05:27:06.601,-0.331605,-0.631397,0.202179,-0.671193,-0.885769,0.145512,-0.147465,6.408691,6.591797,-22.705078,0,0
21195,2024 10 23,05:27:06.609,-0.32965,-0.632039,0.203292,-0.671216,-0.90286,0.121097,-0.178716,9.460449,15.930176,-21.30127,0,0
21196,2024 10 23,05:27:06.617,-0.32965,-0.632039,0.203292,-0.671216,-0.90286,0.121097,-0.178716,9.460449,15.930176,-21.30127,0,0
21197,2024 10 23,05:27:06.626,-0.3272,-0.633133,0.204066,-0.671148,-0.936552,0.169927,-0.0918,16.906738,18.310547,-21.911621,0,0
21198,2024 10 23,05:27:06.634,-0.324663,-0.634422,0.204881,-0.670914,-0.955107,0.169927,-0.11182,16.296387,21.179199,-21.606445,0,0
21199,2024 10 23,05:27:06.642,-0.322192,-0.635732,0.205724,-0.670608,-0.950224,0.148442,-0.113773,15.50293,21.42334,-20.812988,0,0
21200,2024 10 23,05:27:06.651,-0.319701,-0.637136,0.206469,-0.670239,-0.962432,0.149419,-0.084964,17.028809,22.399902,-19.65332,0,0
21201,2024 10 23,05:27:06.659,-0.317293,-0.638545,0.207125,-0.669839,-0.974639,0.152348,-0.072268,16.296387,21.42334,-18.249512,0,0
21202,2024 10 23,05:27:06.667,-0.317293,-0.638545,0.207125,-0.669839,-0.974639,0.152348,-0.072268,16.296387,21.42334,-18.249512,0,0
21203,2024 10 23,05:27:06.676,-0.315046,-0.639831,0.207688,-0.669498,-0.993194,0.161138,-0.074709,15.808105,18.859863,-16.906738,0,0
21204,2024 10 23,05:27:06.684,-0.312968,-0.640897,0.208122,-0.669319,-1.003937,0.17481,-0.043458,15.136719,15.258789,-15.74707,0,0
21205,2024 10 23,05:27:06.692,-0.311123,-0.641796,0.208568,-0.669179,-0.989776,0.162603,-0.049806,12.207031,13.244629,-14.831543,0,0
21206,2024 10 23,05:27:06.701,-0.309401,-0.642577,0.208977,-0.6691,-0.989288,0.16895,-0.038087,12.023926,11.474609,-14.343262,0,0
21207,2024 10 23,05:27:06.709,-0.307796,-0.643256,0.209431,-0.669046,-0.999542,0.166021,-0.057619,9.887695,10.681152,-13.977051,0,0
21208,2024 10 23,05:27:06.717,-0.307796,-0.643256,0.209431,-0.669046,-0.999542,0.166021,-0.057619,9.887695,10.681152,-13.977051,0,0
21209,2024 10 23,05:27:06.726,-0.306313,-0.643831,0.209905,-0.669025,-0.993194,0.165532,-0.054201,8.972168,9.643555,-13.73291,0,0
21210,2024 10 23,05:27:06.734,-0.304982,-0.644334,0.210444,-0.66898,-0.989776,0.153813,-0.059572,6.530762,9.033203,-12.756348,0,0
21211,2024 10 23,05:27:06.742,-0.303798,-0.6448,0.210983,-0.668899,-0.994171,0.138676,-0.057619,5.859375,8.728027,-11.59668,0,0
21212,2024 10 23,05:27:06.751,-0.302624,-0.64523,0.21142,-0.668879,-1.008332,0.158696,-0.021973,6.408691,7.202148,-11.169434,0,0
21213,2024 10 23,05:27:06.759,-0.301631,-0.645534,0.211854,-0.668897,-0.990753,0.147465,-0.055177,4.638672,5.371094,-10.192871,0,0
21214,2024 10 23,05:27:06.767,-0.301631,-0.645534,0.211854,-0.668897,-0.990753,0.147465,-0.055177,4.638672,5.371094,-10.192871,0,0
21215,2024 10 23,05:27:06.776,-0.300725,-0.645691,0.212226,-0.669034,-0.966826,0.142094,-0.06006,4.638672,3.295898,-9.82666,0,0
21216,2024 10 23,05:27:06.784,-0.299853,-0.645825,0.212587,-0.669183,-0.956084,0.142582,-0.064455,4.02832,3.295898,-9.70459,0,0
21217,2024 10 23,05:27:06.792,-0.299033,-0.645976,0.212994,-0.669273,-0.946806,0.133305,-0.067873,3.723145,4.150391,-9.399414,0,0
21218,2024 10 23,05:27:06.801,-0.298162,-0.646269,0.213359,-0.669263,-0.953154,0.136235,-0.053224,4.516602,6.04248,-8.728027,0,0
21219,2024 10 23,05:27:06.809,-0.29738,-0.646535,0.213753,-0.669229,-0.957549,0.138188,-0.049318,2.929688,5.004883,-8.056641,0,0
21220,2024 10 23,05:27:06.817,-0.29738,-0.646535,0.213753,-0.669229,-0.957549,0.138188,-0.049318,2.929688,5.004883,-8.056641,0,0
21221,2024 10 23,05:27:06.826,-0.296666,-0.646771,0.214118,-0.669201,-0.959014,0.138676,-0.049318,3.662109,5.187988,-7.69043,0,0
21222,2024 10 23,05:27:06.834,-0.295981,-0.646985,0.214443,-0.669194,-0.95706,0.134281,-0.036622,3.051758,3.967285,-7.263184,0,0
21223,2024 10 23,05:27:06.842,-0.295368,-0.64715,0.21479,-0.669194,-0.970733,0.128422,-0.044435,2.075195,3.601074,-6.958008,0,0
21224,2024 10 23,05:27:06.851,-0.294758,-0.647237,0.215052,-0.669294,-0.978057,0.150395,-0.039552,2.990723,1.831055,-6.958008,0,0
21225,2024 10 23,05:27:06.859,-0.294265,-0.64717,0.215319,-0.66949,-0.969268,0.132817,-0.039064,1.403809,-0.488281,-6.713867,0,0
21226,2024 10 23,05:27:06.867,-0.294265,-0.64717,0.215319,-0.66949,-0.969268,0.132817,-0.039064,1.403809,-0.488281,-6.713867,0,0
21227,2024 10 23,05:27:06.876,-0.293841,-0.64703,0.215571,-0.669731,-0.971709,0.133305,-0.054201,1.403809,-1.220703,-6.469727,0,0
21228,2024 10 23,05:27:06.884,-0.293469,-0.646757,0.215762,-0.670096,-0.964873,0.122562,-0.039552,1.220703,-3.78418,-6.347656,0,0
21229,2024 10 23,05:27:06.892,-0.293091,-0.646392,0.215879,-0.670575,-0.95706,0.122074,-0.048341,1.89209,-5.615234,-6.469727,0,0
21230,2024 10 23,05:27:06.901,-0.292716,-0.645899,0.215936,-0.671196,-0.949248,0.118656,-0.052248,2.197266,-7.8125,-6.835938,0,0
21231,2024 10 23,05:27:06.909,-0.292328,-0.64535,0.215974,-0.67188,-0.95706,0.126469,-0.061525,2.441406,-8.483887,-7.141113,0,0
21232,2024 10 23,05:27:06.917,-0.292328,-0.64535,0.215974,-0.67188,-0.95706,0.126469,-0.061525,2.441406,-8.483887,-7.141113,0,0
21233,2024 10 23,05:27:06.926,-0.291951,-0.644745,0.216026,-0.672608,-0.955107,0.126957,-0.063967,1.89209,-9.033203,-7.507324,0,0
21234,2024 10 23,05:27:06.934,-0.291608,-0.644102,0.216108,-0.673346,-0.953642,0.123539,-0.073733,1.403809,-9.399414,-7.507324,0,0
21235,2024 10 23,05:27:06.942,-0.291283,-0.643469,0.216202,-0.674061,-0.944853,0.128422,-0.074221,1.220703,-8.728027,-7.385254,0,0
21236,2024 10 23,05:27:06.951,-0.290966,-0.642884,0.216353,-0.674707,-0.955107,0.122562,-0.073733,0.976563,-7.629395,-7.507324,0,0
21237,2024 10 23,05:27:06.959,-0.290602,-0.642326,0.216522,-0.675341,-0.96585,0.13184,-0.060549,0.854492,-7.629395,-7.8125,0,0
21238,2024 10 23,05:27:06.967,-0.290286,-0.641744,0.216753,-0.675956,-0.968291,0.124027,-0.075686,0.12207,-7.385254,-7.93457,0,0
21239,2024 10 23,05:27:06.976,-0.290286,-0.641744,0.216753,-0.675956,-0.968291,0.124027,-0.075686,0.12207,-7.385254,-7.93457,0,0
21240,2024 10 23,05:27:06.984,-0.289966,-0.641153,0.216995,-0.676576,-0.973174,0.122074,-0.07178,-0.305176,-7.507324,-8.056641,0,0
21241,2024 10 23,05:27:06.992,-0.289644,-0.640597,0.217271,-0.677152,-0.973174,0.125492,-0.063478,-0.427246,-6.652832,-8.056641,0,0
21242,2024 10 23,05:27:07.001,-0.289337,-0.640064,0.217572,-0.677691,-0.9888,0.117679,-0.046388,-0.305176,-6.164551,-7.93457,0,0
21243,2024 10 23,05:27:07.009,-0.289005,-0.639487,0.217864,-0.678283,-0.984893,0.117191,-0.057619,-1.159668,-7.751465,-8.178711,0,0
21244,2024 10 23,05:27:07.017,-0.288755,-0.6388,0.218167,-0.678939,-0.979522,0.124027,-0.074221,-1.159668,-8.422852,-8.361816,0,0
21245,2024 10 23,05:27:07.026,-0.288755,-0.6388,0.218167,-0.678939,-0.979522,0.124027,-0.074221,-1.159668,-8.422852,-8.361816,0,0
21246,2024 10 23,05:27:07.034,-0.288377,-0.638269,0.218526,-0.679483,-1.030793,0.13477,-0.062014,-0.915527,-5.493164,-8.850098,0,0
21247,2024 10 23,05:27:07.042,-0.287897,-0.637683,0.218944,-0.680102,-1.022492,0.143071,0.007324,-0.061035,-7.324219,-11.59668,0,0
21248,2024 10 23,05:27:07.051,-0.287439,-0.636906,0.219587,-0.680817,-1.033235,0.123051,-0.038575,-2.01416,-7.995605,-13.671875,0,0
21249,2024 10 23,05:27:07.059,-0.286752,-0.635991,0.220294,-0.681732,-1.016144,0.152348,-0.067385,0.366211,-10.192871,-17.578125,0,0
21250,2024 10 23,05:27:07.067,-0.285961,-0.634951,0.221314,-0.682703,-0.999542,0.139653,-0.058596,-4.760742,-8.544922,-20.446777,0,0
21251,2024 10 23,05:27:07.076,-0.285961,-0.634951,0.221314,-0.682703,-0.999542,0.139653,-0.058596,-4.760742,-8.544922,-20.446777,0,0
21252,2024 10 23,05:27:07.084,-0.284916,-0.634314,0.222844,-0.683234,-1.141636,0.173345,-0.145512,-6.652832,0.183105,-23.803711,0,0
21253,2024 10 23,05:27:07.092,-0.283292,-0.633569,0.224773,-0.683969,-1.07474,0.185064,0.044435,-3.662109,-2.502441,-35.15625,0,0
21254,2024 10 23,05:27:07.101,-0.281611,-0.632547,0.227741,-0.684627,-1.113804,0.152348,-0.094729,-15.136719,3.234863,-41.687012,0,0
21255,2024 10 23,05:27:07.109,-0.279307,-0.631399,0.231261,-0.685449,-1.131871,0.142582,-0.093265,-10.375977,0.061035,-52.79541,0,0
21256,2024 10 23,05:27:07.117,-0.276185,-0.629888,0.235017,-0.686826,-1.185095,0.196783,-0.079592,-6.408691,-0.366211,-63.781738,0,0
21257,2024 10 23,05:27:07.126,-0.276185,-0.629888,0.235017,-0.686826,-1.185095,0.196783,-0.079592,-6.408691,-0.366211,-63.781738,0,0
21258,2024 10 23,05:27:07.134,-0.272538,-0.627793,0.239516,-0.688644,-1.187536,0.155278,-0.097659,-12.573242,-7.751465,-76.23291,0,0
21259,2024 10 23,05:27:07.142,-0.268206,-0.625118,0.244378,-0.691066,-1.230018,0.197272,-0.141118,-10.925293,-12.329102,-87.463379,0,0
21260,2024 10 23,05:27:07.151,-0.263096,-0.622028,0.250085,-0.693771,-1.313028,0.229011,-0.145024,-10.437012,-11.657715,-102.905273,0,0
21261,2024 10 23,05:27:07.159,-0.257183,-0.618325,0.256646,-0.696896,-1.367229,0.195807,-0.168462,-14.465332,-17.150879,-120.300293,0,0
21262,2024 10 23,05:27:07.167,-0.250307,-0.613733,0.264329,-0.700578,-1.392132,0.182134,-0.106449,-14.953613,-20.019531,-140.319824,0,0
21263,2024 10 23,05:27:07.176,-0.250307,-0.613733,0.264329,-0.700578,-1.392132,0.182134,-0.106449,-14.953613,-20.019531,-140.319824,0,0
21264,2024 10 23,05:27:07.184,-0.241869,-0.609014,0.272673,-0.70445,-1.447798,0.237312,-0.08887,-7.69043,-13.61084,-158.325195,0,0
21265,2024 10 23,05:27:07.192,-0.23191,-0.603672,0.281725,-0.708822,-1.578661,0.334971,-0.081545,-4.394531,-20.202637,-179.931641,0,0
21266,2024 10 23,05:27:07.201,-0.22093,-0.597157,0.291543,-0.71386,-1.571825,0.321787,-0.145512,-4.943848,-28.991699,-199.584961,0,0
21267,2024 10 23,05:27:07.209,-0.208279,-0.589094,0.302469,-0.719792,-1.646535,0.334971,-0.002441,-4.882813,-36.987305,-229.675293,0,0
21268,2024 10 23,05:27:07.217,-0.193602,-0.580432,0.314559,-0.72572,-1.828181,0.402844,-0.056154,2.746582,-32.836914,-257.629395,0,0
21269,2024 10 23,05:27:07.226,-0.193602,-0.580432,0.314559,-0.72572,-1.828181,0.402844,-0.056154,2.746582,-32.836914,-257.629395,0,0
21270,2024 10 23,05:27:07.234,-0.177099,-0.570206,0.327523,-0.732277,-1.947325,0.467299,0.184576,-0.488281,-44.677734,-286.804199,0,0
21271,2024 10 23,05:27:07.242,-0.160115,-0.558398,0.342921,-0.738214,-2.205634,0.267098,0.125492,-25.085449,-45.227051,-310.72998,0,0
21272,2024 10 23,05:27:07.251,-0.142013,-0.544566,0.359312,-0.744429,-2.125553,0.278329,0.403821,-22.460938,-64.025879,-335.693359,0,0
21273,2024 10 23,05:27:07.259,-0.123809,-0.528894,0.377426,-0.749995,-2.297433,0.255867,0.245125,-53.344727,-65.551758,-349.79248,0,0
21274,2024 10 23,05:27:07.267,-0.106343,-0.512054,0.396496,-0.754508,-2.825282,0.114261,-0.384777,-64.51416,-80.444336,-351.928711,0,0
21275,2024 10 23,05:27:07.276,-0.106343,-0.512054,0.396496,-0.754508,-2.825282,0.114261,-0.384777,-64.51416,-80.444336,-351.928711,0,0
21276,2024 10 23,05:27:07.284,-0.090008,-0.49051,0.414162,-0.761425,-1.840876,0.101077,-0.013672,-42.907715,-150.756836,-363.525391,0,0
21277,2024 10 23,05:27:07.292,-0.073363,-0.467873,0.43253,-0.767223,-1.309122,-0.154302,0.248054,-58.959961,-109.680176,-366.943359,0,0
21278,2024 10 23,05:27:07.301,-0.05085,-0.448954,0.447897,-0.77152,-1.433149,0.211921,0.244636,-2.319336,-66.223145,-387.145996,0,0
21279,2024 10 23,05:27:07.309,-0.027034,-0.428483,0.462593,-0.77568,-1.147984,0.294443,0.498062,6.04248,-73.913574,-402.587891,0,0
21280,2024 10 23,05:27:07.317,-0.002464,-0.408773,0.476609,-0.778294,-0.913114,0.136723,0.415052,5.249023,-48.706055,-393.798828,0,0
21281,2024 10 23,05:27:07.326,-0.002464,-0.408773,0.476609,-0.778294,-0.913114,0.136723,0.415052,5.249023,-48.706055,-393.798828,0,0
21282,2024 10 23,05:27:07.334,0.023176,-0.390867,0.486985,-0.780725,-0.834986,0.239753,0.59035,54.931641,-31.066895,-373.352051,0,0
21283,2024 10 23,05:27:07.342,0.047885,-0.374279,0.494876,-0.782764,-0.841334,0.491714,0.223151,63.110352,-22.644043,-346.679688,0,0
21284,2024 10 23,05:27:07.351,0.069282,-0.357082,0.499017,-0.786559,-0.551286,0.621113,0.822779,82.15332,-66.223145,-292.724609,0,0
21285,2024 10 23,05:27:07.359,0.082833,-0.345426,0.502811,-0.788036,-0.567888,0.837428,-0.340342,46.813965,-26.672363,-173.64502,0,0
21286,2024 10 23,05:27:07.367,0.087175,-0.338532,0.500998,-0.791705,-0.097171,1.257851,0.425794,54.992676,-58.59375,-40.405273,0,0
21287,2024 10 23,05:27:07.376,0.081037,-0.338265,0.498484,-0.794055,0.026856,1.047884,0.186041,-3.173828,-37.963867,97.961426,0,0
21288,2024 10 23,05:27:07.384,0.081037,-0.338265,0.498484,-0.794055,0.026856,1.047884,0.186041,-3.173828,-37.963867,97.961426,0,0
21289,2024 10 23,05:27:07.392,0.067069,-0.344729,0.494084,-0.795326,-0.290536,0.881863,0.199713,-13.61084,-18.676758,201.843262,0,0
21290,2024 10 23,05:27:07.401,0.048425,-0.354746,0.488675,-0.795617,-0.4214,0.654317,0.339366,-37.17041,-9.765625,255.371094,0,0
21291,2024 10 23,05:27:07.409,0.028114,-0.36641,0.483193,-0.794656,-0.417005,0.411634,0.361339,-43.945313,0.549316,270.629883,0,0
21292,2024 10 23,05:27:07.417,0.008467,-0.378444,0.477599,-0.792847,-0.284188,0.320811,0.423841,-44.494629,11.84082,262.817383,0,0
21293,2024 10 23,05:27:07.426,-0.009307,-0.390645,0.472352,-0.790059,-0.206549,0.22071,0.375988,-44.372559,29.47998,243.469238,0,0
21294,2024 10 23,05:27:07.434,-0.009307,-0.390645,0.472352,-0.790059,-0.206549,0.22071,0.375988,-44.372559,29.47998,243.469238,0,0
21295,2024 10 23,05:27:07.442,-0.024368,-0.40334,0.467453,-0.786264,-0.322275,0.225105,0.320322,-40.649414,55.053711,220.153809,0,0
21296,2024 10 23,05:27:07.451,-0.037374,-0.416381,0.463212,-0.781451,-0.539079,0.292978,0.175787,-44.311523,70.251465,201.599121,0,0
21297,2024 10 23,05:27:07.459,-0.049943,-0.429089,0.459354,-0.776133,-0.767113,0.41554,0.100101,-50.292969,67.810059,197.570801,0,0
21298,2024 10 23,05:27:07.467,-0.064327,-0.440862,0.455629,-0.770653,-0.908231,0.447768,0.028321,-62.927246,46.325684,210.876465,0,0
21299,2024 10 23,05:27:07.476,-0.081402,-0.451499,0.451301,-0.765408,-0.842799,0.388195,0.090335,-69.519043,21.606445,233.215332,0,0
21300,2024 10 23,05:27:07.484,-0.081402,-0.451499,0.451301,-0.765408,-0.842799,0.388195,0.090335,-69.519043,21.606445,233.215332,0,0
21301,2024 10 23,05:27:07.492,-0.100491,-0.462144,0.445833,-0.759972,-0.743187,0.254402,0.120609,-67.749023,16.113281,257.69043,0,0
21302,2024 10 23,05:27:07.501,-0.120177,-0.473708,0.438768,-0.754083,-0.69924,0.157231,0.160161,-55.664063,25.634766,275.512695,0,0
21303,2024 10 23,05:27:07.509,-0.139156,-0.486645,0.430128,-0.747531,-0.739769,0.063478,0.160161,-39.0625,43.273926,284.118652,0,0
21304,2024 10 23,05:27:07.517,-0.156667,-0.500908,0.420014,-0.740361,-0.876003,0.086428,0.131352,-18.920898,62.561035,286.010742,0,0
21305,2024 10 23,05:27:07.526,-0.172927,-0.515796,0.40887,-0.732718,-1.042024,0.106449,0.057619,-5.126953,72.998047,284.301758,0,0
21306,2024 10 23,05:27:07.534,-0.172927,-0.515796,0.40887,-0.732718,-1.042024,0.106449,0.057619,-5.126953,72.998047,284.301758,0,0
21307,2024 10 23,05:27:07.542,-0.188221,-0.530786,0.396934,-0.724764,-1.199255,0.15186,0.008789,4.333496,77.331543,281.494141,0,0
21308,2024 10 23,05:27:07.551,-0.203104,-0.545379,0.38441,-0.716616,-1.318888,0.178228,-0.030763,8.422852,74.21875,280.517578,0,0
21309,2024 10 23,05:27:07.559,-0.217987,-0.559283,0.371451,-0.708314,-1.417524,0.180181,-0.04297,8.972168,68.115234,280.761719,0,0
21310,2024 10 23,05:27:07.567,-0.23305,-0.572408,0.358077,-0.69987,-1.436079,0.15186,-0.020997,8.422852,61.401367,282.592773,0,0
21311,2024 10 23,05:27:07.576,-0.248056,-0.585202,0.344276,-0.690999,-1.467818,0.131352,0.015137,10.437012,62.5,285.461426,0,0
21312,2024 10 23,05:27:07.584,-0.248056,-0.585202,0.344276,-0.690999,-1.467818,0.131352,0.015137,10.437012,62.5,285.461426,0,0
21313,2024 10 23,05:27:07.592,-0.262802,-0.597959,0.33007,-0.681494,-1.530808,0.120609,0.045412,12.817383,66.833496,287.963867,0,0
21314,2024 10 23,05:27:07.601,-0.277158,-0.610738,0.315624,-0.671241,-1.621632,0.089358,0.062014,14.709473,73.120117,288.94043,0,0
21315,2024 10 23,05:27:07.609,-0.290992,-0.623452,0.301026,-0.660314,-1.69097,0.04297,0.078616,16.906738,78.491211,288.024902,0,0
21316,2024 10 23,05:27:07.617,-0.304251,-0.63608,0.286417,-0.64869,-1.767144,-0.019044,0.078616,18.066406,85.021973,286.315918,0,0
21317,2024 10 23,05:27:07.626,-0.31694,-0.648523,0.271984,-0.636389,-1.844295,-0.120609,0.085452,17.456055,91.186523,282.836914,0,0
21318,2024 10 23,05:27:07.634,-0.31694,-0.648523,0.271984,-0.636389,-1.844295,-0.120609,0.085452,17.456055,91.186523,282.836914,0,0
21319,2024 10 23,05:27:07.642,-0.329004,-0.660668,0.257944,-0.62349,-1.918027,-0.252449,0.086428,16.357422,96.557617,277.099609,0,0
21320,2024 10 23,05:27:07.651,-0.340306,-0.672347,0.244442,-0.610238,-1.956603,-0.435072,0.088382,15.441895,100.036621,268.005371,0,0
21321,2024 10 23,05:27:07.659,-0.350639,-0.68362,0.231511,-0.596757,-2.063051,-0.619648,0.082522,17.456055,104.248047,257.995605,0,0
21322,2024 10 23,05:27:07.667,-0.360194,-0.69422,0.219019,-0.583394,-2.262764,-0.860378,-0.023927,17.150879,99.182129,248.718262,0,0
21323,2024 10 23,05:27:07.676,-0.369063,-0.70309,0.206414,-0.571709,-2.151921,-1.214881,-0.023927,22.399902,71.411133,234.25293,0,0
21324,2024 10 23,05:27:07.684,-0.369063,-0.70309,0.206414,-0.571709,-2.151921,-1.214881,-0.023927,22.399902,71.411133,234.25293,0,0
21325,2024 10 23,05:27:07.692,-0.376457,-0.710774,0.19384,-0.5617,-1.92584,-1.548875,-0.090335,34.240723,60.302734,215.393066,0,0
21326,2024 10 23,05:27:07.701,-0.381582,-0.718315,0.181917,-0.552562,-1.747612,-1.779351,-0.295419,51.269531,62.316895,191.894531,0,0
21327,2024 10 23,05:27:07.709,-0.384285,-0.725982,0.171053,-0.544074,-1.707572,-1.846248,-0.579119,64.331055,70.43457,165.100098,0,0
21328,2024 10 23,05:27:07.717,-0.385599,-0.732863,0.162291,-0.536551,-1.720267,-1.986877,-0.946806,57.006836,66.162109,131.652832,0,0
21329,2024 10 23,05:27:07.726,-0.386094,-0.737806,0.15572,-0.531342,-1.714408,-2.219794,-1.096713,46.020508,44.98291,95.214844,0,0
21330,2024 10 23,05:27:07.734,-0.386094,-0.737806,0.15572,-0.531342,-1.714408,-2.219794,-1.096713,46.020508,44.98291,95.214844,0,0
21331,2024 10 23,05:27:07.742,-0.386018,-0.740687,0.151094,-0.528719,-1.79107,-2.428297,-1.077181,35.217285,18.920898,62.316895,0,0
21332,2024 10 23,05:27:07.751,-0.385264,-0.741205,0.147791,-0.529476,-1.71099,-2.452223,-0.807642,28.808594,-19.775391,28.320313,0,0
21333,2024 10 23,05:27:07.759,-0.381978,-0.740551,0.146444,-0.533134,-3.96643,-1.876034,-0.843287,49.072266,-26.000977,-30.212402,0,0
21334,2024 10 23,05:27:07.767,-0.375391,-0.734597,0.151941,-0.544392,-2.284738,-2.333567,-1.49321,-45.654297,-167.297363,-148.4375,0,0
21335,2024 10 23,05:27:07.776,-0.370386,-0.716869,0.156119,-0.569684,-0.353038,-0.77102,-0.661641,35.400391,-291.381836,-198.364258,1,0
21336,2024 10 23,05:27:07.784,-0.358691,-0.703927,0.154919,-0.593151,-0.648946,1.507859,0.569842,88.684082,-236.938477,-184.936523,0,0
21337,2024 10 23,05:27:07.792,-0.358691,-0.703927,0.154919,-0.593151,-0.648946,1.507859,0.569842,88.684082,-236.938477,-184.936523,0,0
21338,2024 10 23,05:27:07.801,-0.35545,-0.692142,0.16315,-0.606611,-1.016633,1.355022,0.65627,-109.008789,-128.173828,-167.724609,0,0
21339,2024 10 23,05:27:07.809,-0.357707,-0.678961,0.178534,-0.615779,-0.956084,0.78518,-0.848659,-150.390625,-105.957031,-179.504395,0,0
21340,2024 10 23,05:27:07.817,-0.357758,-0.66506,0.194702,-0.625936,-1.0889,-0.368175,-0.789087,-157.226563,-96.496582,-195.983887,0,0
21341,2024 10 23,05:27:07.826,-0.354779,-0.655836,0.207745,-0.63313,-1.443892,-0.717307,-0.96878,-64.51416,-58.959961,-154.602051,0,0
21342,2024 10 23,05:27:07.834,-0.350094,-0.650407,0.212401,-0.639758,-1.354534,-0.080569,0.074709,0.427246,-47.119141,-86.242676,0,0
21343,2024 10 23,05:27:07.842,-0.350094,-0.650407,0.212401,-0.639758,-1.354534,-0.080569,0.074709,0.427246,-47.119141,-86.242676,0,0
21344,2024 10 23,05:27:07.851,-0.349356,-0.646446,0.215281,-0.643205,-1.169469,0.099612,-0.188482,-24.719238,-46.630859,-40.95459,0,0
21345,2024 10 23,05:27:07.859,-0.349406,-0.642268,0.216542,-0.646929,-0.997101,0.334483,0.186529,-20.324707,-51.269531,-32.653809,0,0
21346,2024 10 23,05:27:07.867,-0.350974,-0.638099,0.219408,-0.649235,-0.943388,-0.012696,-0.227058,-48.400879,-40.527344,-28.564453,0,0
21347,2024 10 23,05:27:07.876,-0.351958,-0.63403,0.221041,-0.65213,-0.776879,-0.095706,-0.351085,-16.723633,-46.630859,-23.803711,0,0
21348,2024 10 23,05:27:07.884,-0.351302,-0.631896,0.220805,-0.65463,-0.937529,0.182623,0.103519,5.67627,-26.916504,-15.441895,0,0
21349,2024 10 23,05:27:07.892,-0.351302,-0.631896,0.220805,-0.65463,-0.937529,0.182623,0.103519,5.67627,-26.916504,-15.441895,0,0
21350,2024 10 23,05:27:07.901,-0.351163,-0.630192,0.221095,-0.656246,-0.9429,0.177252,-0.188971,-6.408691,-26.550293,-15.014648,0,0
21351,2024 10 23,05:27:07.909,-0.350466,-0.628025,0.221207,-0.658654,-0.857936,0.216803,-0.144536,4.943848,-29.296875,-23.498535,0,0
21352,2024 10 23,05:27:07.917,-0.348946,-0.626635,0.22189,-0.660552,-0.89114,0.244636,-0.292489,4.455566,-14.099121,-29.785156,0,0
21353,2024 10 23,05:27:07.926,-0.346891,-0.625638,0.223184,-0.662142,-0.929716,0.22071,-0.143071,3.90625,-4.455566,-35.400391,0,0
21354,2024 10 23,05:27:07.934,-0.344903,-0.625225,0.225255,-0.66287,-0.998566,0.113773,-0.213874,-2.197266,6.774902,-33.447266,0,0
21355,2024 10 23,05:27:07.942,-0.344903,-0.625225,0.225255,-0.66287,-0.998566,0.113773,-0.213874,-2.197266,6.774902,-33.447266,0,0
21356,2024 10 23,05:27:07.951,-0.3427,-0.624996,0.226833,-0.663689,-1.032258,0.162114,-0.066408,7.446289,3.90625,-31.188965,0,0
21357,2024 10 23,05:27:07.959,-0.34076,-0.624621,0.228175,-0.664581,-1.023469,0.155766,-0.063967,2.441406,-0.549316,-28.259277,0,0
21358,2024 10 23,05:27:07.967,-0.339336,-0.623923,0.229376,-0.66555,-0.988311,0.121586,-0.108402,1.037598,-4.943848,-23.986816,0,0
21359,2024 10 23,05:27:07.976,-0.338162,-0.623216,0.230205,-0.666524,-0.993194,0.14893,-0.070315,1.525879,-6.469727,-19.592285,0,0
21360,2024 10 23,05:27:07.984,-0.337429,-0.622396,0.230936,-0.667408,-1.023469,0.146001,-0.050295,-1.831055,-8.544922,-15.686035,0,0
21361,2024 10 23,05:27:07.992,-0.337429,-0.622396,0.230936,-0.667408,-1.023469,0.146001,-0.050295,-1.831055,-8.544922,-15.686035,0,0
21362,2024 10 23,05:27:08.001,-0.337015,-0.621399,0.231485,-0.668355,-1.018098,0.160161,-0.073733,-2.502441,-12.451172,-13.183594,0,0
21363,2024 10 23,05:27:08.009,-0.336669,-0.62029,0.231892,-0.669418,-0.961943,0.147465,-0.103519,-2.868652,-14.160156,-12.512207,0,0
21364,2024 10 23,05:27:08.017,-0.336423,-0.619227,0.232284,-0.670389,-0.950224,0.133305,-0.142094,-2.075195,-12.023926,-11.047363,0,0
21365,2024 10 23,05:27:08.026,-0.336008,-0.618312,0.232468,-0.671378,-0.929228,0.148442,-0.08594,0.12207,-12.268066,-10.864258,0,0
21366,2024 10 23,05:27:08.034,-0.335644,-0.61751,0.232758,-0.672197,-0.93997,0.133305,-0.083499,-0.488281,-9.338379,-10.375977,0,0
21367,2024 10 23,05:27:08.042,-0.335644,-0.61751,0.232758,-0.672197,-0.93997,0.133305,-0.083499,-0.488281,-9.338379,-10.375977,0,0
21368,2024 10 23,05:27:08.051,-0.335297,-0.616724,0.232999,-0.673008,-0.912137,0.133305,-0.115238,0.183105,-10.192871,-9.70459,0,0
21369,2024 10 23,05:27:08.059,-0.334878,-0.616097,0.233209,-0.673717,-0.926298,0.159185,-0.12598,2.13623,-6.469727,-9.94873,0,0
21370,2024 10 23,05:27:08.067,-0.334453,-0.615509,0.233595,-0.674332,-0.923368,0.109867,-0.099612,-1.708984,-5.981445,-9.521484,0,0
21371,2024 10 23,05:27:08.076,-0.333888,-0.61514,0.233868,-0.674853,-0.938994,0.142094,-0.101077,1.77002,-3.356934,-9.82666,0,0
21372,2024 10 23,05:27:08.084,-0.332958,-0.614998,0.234312,-0.675288,-0.948271,0.150395,-0.075686,4.150391,0.549316,-14.404297,0,0
21373,2024 10 23,05:27:08.092,-0.332958,-0.614998,0.234312,-0.675288,-0.948271,0.150395,-0.075686,4.150391,0.549316,-14.404297,0,0
21374,2024 10 23,05:27:08.101,-0.332108,-0.614641,0.234983,-0.675798,-0.966826,0.146001,-0.119633,1.342773,-1.586914,-14.221191,0,0
21375,2024 10 23,05:27:08.109,-0.331169,-0.614306,0.23576,-0.676294,-0.914579,0.11182,-0.10596,-0.976563,-0.366211,-16.235352,0,0
21376,2024 10 23,05:27:08.117,-0.330174,-0.614114,0.236635,-0.676648,-0.974151,0.147465,-0.149907,1.77002,2.685547,-15.991211,0,0
21377,2024 10 23,05:27:08.126,-0.32918,-0.613809,0.237507,-0.677104,-0.933134,0.109867,-0.083499,-1.098633,-0.610352,-16.784668,0,0
21378,2024 10 23,05:27:08.134,-0.328114,-0.613617,0.238484,-0.677451,-0.953642,0.123051,-0.118168,0.061035,3.479004,-17.089844,0,0
21379,2024 10 23,05:27:08.142,-0.328114,-0.613617,0.238484,-0.677451,-0.953642,0.123051,-0.118168,0.061035,3.479004,-17.089844,0,0
21380,2024 10 23,05:27:08.151,-0.327057,-0.613345,0.239376,-0.677894,-0.966826,0.113285,-0.133793,2.01416,-0.366211,-17.333984,0,0
21381,2024 10 23,05:27:08.159,-0.325976,-0.612806,0.240099,-0.678646,-0.94583,0.115238,-0.100589,1.037598,-3.662109,-18.005371,0,0
21382,2024 10 23,05:27:08.167,-0.324932,-0.612319,0.240948,-0.679286,-0.940458,0.086428,-0.143071,0.427246,-2.929688,-17.76123,0,0
21383,2024 10 23,05:27:08.176,-0.323727,-0.611804,0.241604,-0.680091,-0.927274,0.106449,-0.131352,4.577637,-3.540039,-18.676758,0,0
21384,2024 10 23,05:27:08.184,-0.322569,-0.611277,0.242292,-0.68087,-0.943876,0.10303,-0.150884,2.929688,-3.601074,-18.310547,0,0
21385,2024 10 23,05:27:08.192,-0.321383,-0.610719,0.242971,-0.681689,-0.948759,0.109867,-0.129887,2.929688,-4.272461,-19.165039,0,0
21386,2024 10 23,05:27:08.201,-0.321383,-0.610719,0.242971,-0.681689,-0.948759,0.109867,-0.129887,2.929688,-4.272461,-19.165039,0,0
21387,2024 10 23,05:27:08.209,-0.320157,-0.610182,0.243683,-0.682492,-0.974151,0.113285,-0.137211,3.112793,-3.479004,-19.348145,0,0
21388,2024 10 23,05:27:08.217,-0.318869,-0.609598,0.244422,-0.683353,-0.970244,0.096194,-0.110843,3.234863,-4.882813,-20.385742,0,0
21389,2024 10 23,05:27:08.226,-0.317559,-0.608929,0.245168,-0.684291,-0.991241,0.10596,-0.112308,3.662109,-5.371094,-21.30127,0,0
21390,2024 10 23,05:27:08.234,-0.31613,-0.608208,0.246003,-0.685294,-1.003937,0.123539,-0.126957,3.540039,-5.92041,-23.803711,0,0
21391,2024 10 23,05:27:08.242,-0.314565,-0.607326,0.247005,-0.686435,-0.982452,0.112308,-0.126957,2.441406,-6.835938,-27.34375,0,0
21392,2024 10 23,05:27:08.251,-0.314565,-0.607326,0.247005,-0.686435,-0.982452,0.112308,-0.126957,2.441406,-6.835938,-27.34375,0,0
21393,2024 10 23,05:27:08.259,-0.312796,-0.606454,0.248265,-0.687558,-0.980499,0.117191,-0.158696,1.708984,-4.882813,-30.151367,0,0
21394,2024 10 23,05:27:08.267,-0.310845,-0.605584,0.2498,-0.688654,-0.996124,0.125004,-0.17481,1.708984,-2.197266,-33.935547,0,0
21395,2024 10 23,05:27:08.276,-0.308504,-0.604801,0.251709,-0.689698,-1.0347,0.143559,-0.173833,0.854492,0.976563,-39.550781,0,0
21396,2024 10 23,05:27:08.284,-0.305954,-0.603888,0.254077,-0.690765,-1.057161,0.142094,-0.169927,-1.89209,1.89209,-45.288086,0,0
21397,2024 10 23,05:27:08.292,-0.302903,-0.60306,0.2571,-0.691714,-1.100131,0.171392,-0.187017,-3.967285,8.178711,-53.588867,0,0
21398,2024 10 23,05:27:08.301,-0.302903,-0.60306,0.2571,-0.691714,-1.100131,0.171392,-0.187017,-3.967285,8.178711,-53.588867,0,0
21399,2024 10 23,05:27:08.309,-0.299466,-0.602137,0.260823,-0.69262,-1.181188,0.151372,-0.162603,-6.652832,10.192871,-62.072754,0,0
21400,2024 10 23,05:27:08.317,-0.295317,-0.600959,0.265029,-0.693827,-1.207556,0.15186,-0.058596,-5.737305,8.361816,-73.120117,0,0
21401,2024 10 23,05:27:08.326,-0.290682,-0.599397,0.269873,-0.695266,-1.285684,0.158696,-0.087893,-7.446289,8.117676,-83.679199,0,0
21402,2024 10 23,05:27:08.334,-0.285146,-0.597344,0.275349,-0.697176,-1.321818,0.119633,-0.068361,-7.385254,3.90625,-99.853516,0,0
21403,2024 10 23,05:27:08.342,-0.278574,-0.59463,0.281553,-0.699671,-1.322794,0.159185,-0.145024,-4.516602,1.464844,-117.06543,0,0
21404,2024 10 23,05:27:08.351,-0.278574,-0.59463,0.281553,-0.699671,-1.322794,0.159185,-0.145024,-4.516602,1.464844,-117.06543,0,0
21405,2024 10 23,05:27:08.359,-0.27101,-0.591259,0.28838,-0.702711,-1.323771,0.177252,-0.148442,-3.845215,-2.807617,-133.728027,0,0
21406,2024 10 23,05:27:08.367,-0.262162,-0.58723,0.29592,-0.706303,-1.343791,0.225593,-0.107913,-1.464844,-4.211426,-153.320313,0,0
21407,2024 10 23,05:27:08.376,-0.252189,-0.582582,0.304548,-0.710105,-1.439009,0.247078,-0.165532,-5.371094,-3.356934,-172.851563,0,0
21408,2024 10 23,05:27:08.384,-0.24079,-0.577141,0.314057,-0.71435,-1.502976,0.265633,-0.161138,-1.586914,-6.652832,-195.922852,0,0
21409,2024 10 23,05:27:08.392,-0.227268,-0.570938,0.324487,-0.719088,-1.715873,0.340342,-0.139653,5.249023,-3.723145,-226.257324,0,0
21410,2024 10 23,05:27:08.401,-0.227268,-0.570938,0.324487,-0.719088,-1.715873,0.340342,-0.139653,5.249023,-3.723145,-226.257324,0,0
21411,2024 10 23,05:27:08.409,-0.211282,-0.563459,0.335853,-0.724621,-1.797906,0.362804,-0.032716,13.977051,-12.878418,-261.108398,0,0
21412,2024 10 23,05:27:08.417,-0.193097,-0.55406,0.34815,-0.731111,-1.883847,0.417005,0.008301,18.066406,-23.4375,-295.471191,0,0
21413,2024 10 23,05:27:08.426,-0.172488,-0.542909,0.361684,-0.738026,-2.190496,0.501968,-0.008789,18.981934,-27.648926,-333.251953,0,0
21414,2024 10 23,05:27:08.434,-0.150432,-0.529743,0.377066,-0.74469,-2.460036,0.561541,0.079104,3.90625,-34.851074,-364.379883,0,0
21415,2024 10 23,05:27:08.442,-0.128263,-0.513879,0.394949,-0.750661,-2.374096,0.417982,0.193365,-27.954102,-53.466797,-392.700195,0,0
21416,2024 10 23,05:27:08.451,-0.128263,-0.513879,0.394949,-0.750661,-2.374096,0.417982,0.193365,-27.954102,-53.466797,-392.700195,0,0
21417,2024 10 23,05:27:08.459,-0.106096,-0.495775,0.4156,-0.755134,-2.419996,0.373058,0.082522,-61.401367,-51.147461,-412.414551,0,0
21418,2024 10 23,05:27:08.467,-0.084985,-0.476623,0.438397,-0.757243,-3.013764,0.241218,-0.885769,-105.102539,-55.236816,-413.452148,0,0
21419,2024 10 23,05:27:08.476,-0.065667,-0.452112,0.459836,-0.761468,-2.07477,0.021973,-0.003418,-82.336426,-139.160156,-422.790527,0,0
21420,2024 10 23,05:27:08.484,-0.044879,-0.428243,0.480562,-0.763972,-1.583544,0.199225,0.180181,-61.584473,-75.317383,-428.222656,0,0
21421,2024 10 23,05:27:08.492,-0.019849,-0.40557,0.499393,-0.765327,-1.522019,0.299814,0.315928,-44.006348,-59.997559,-447.998047,0,0
21422,2024 10 23,05:27:08.501,-0.019849,-0.40557,0.499393,-0.765327,-1.522019,0.299814,0.315928,-44.006348,-59.997559,-447.998047,0,0
21423,2024 10 23,05:27:08.509,0.007217,-0.382718,0.515902,-0.766368,-1.261757,0.320811,0.491226,-11.474609,-43.212891,-451.293945,0,1
21424,2024 10 23,05:27:08.517,0.034716,-0.361861,0.530151,-0.766023,-0.677755,0.048341,0.690939,4.760742,-17.51709,-423.339844,0,0
21425,2024 10 23,05:27:08.526,0.061899,-0.345034,0.538642,-0.76615,-0.357433,0.315928,0.55031,64.086914,21.484375,-362.976074,0,0
21426,2024 10 23,05:27:08.534,0.083948,-0.332139,0.538013,-0.770181,0.489761,0.962432,1.889218,140.197754,-10.498047,-220.458984,0,0
21427,2024 10 23,05:27:08.542,0.092697,-0.336528,0.53376,-0.770231,-0.860866,1.61626,-0.938017,78.552246,135.986328,20.935059,0,0
21428,2024 10 23,05:27:08.551,0.092697,-0.336528,0.53376,-0.770231,-0.860866,1.61626,-0.938017,78.552246,135.986328,20.935059,0,0
21429,2024 10 23,05:27:08.559,0.08862,-0.346447,0.52229,-0.774167,-1.267128,1.806696,0.250984,89.904785,17.700195,166.809082,0,0
21430,2024 10 23,05:27:08.567,0.070696,-0.355033,0.513291,-0.77813,-1.030793,1.197791,0.14893,-8.117676,-47.424316,260.498047,0,0
21431,2024 10 23,05:27:08.576,0.046554,-0.363356,0.505886,-0.780951,-0.562029,0.553728,0.090335,-13.916016,-84.899902,295.10498,0,0
21432,2024 10 23,05:27:08.584,0.022076,-0.370908,0.496984,-0.784185,0.019044,0.450697,0.601093,-10.375977,-76.538086,298.034668,0,0
21433,2024 10 23,05:27:08.592,0.000614,-0.381074,0.488773,-0.784783,0.126957,0.227058,0.425794,-12.573242,-17.51709,278.808594,0,0
21434,2024 10 23,05:27:08.601,-0.015728,-0.393776,0.480079,-0.78372,-0.129887,0.292978,0.428724,5.737305,39.550781,248.168945,0,0
21435,2024 10 23,05:27:08.609,-0.015728,-0.393776,0.480079,-0.78372,-0.129887,0.292978,0.428724,5.737305,39.550781,248.168945,0,0
21436,2024 10 23,05:27:08.617,-0.028717,-0.407928,0.471634,-0.781237,-0.401868,0.45851,0.274911,7.324219,68.847656,226.44043,0,0
21437,2024 10 23,05:27:08.626,-0.040911,-0.421805,0.463801,-0.778007,-0.607929,0.584002,0.124516,-2.685547,68.115234,216.73584,0,0
21438,2024 10 23,05:27:08.634,-0.054049,-0.434686,0.456562,-0.774389,-0.73928,0.612812,0.105472,-15.930176,53.894043,218.75,0,0
21439,2024 10 23,05:27:08.642,-0.069064,-0.446431,0.449662,-0.770541,-0.684103,0.50734,0.127934,-29.785156,35.217285,229.919434,0,0
21440,2024 10 23,05:27:08.651,-0.085422,-0.458019,0.442308,-0.766346,-0.601093,0.365734,0.150395,-30.883789,33.38623,244.873047,0,0
21441,2024 10 23,05:27:08.659,-0.085422,-0.458019,0.442308,-0.766346,-0.601093,0.365734,0.150395,-30.883789,33.38623,244.873047,0,0
21442,2024 10 23,05:27:08.667,-0.102064,-0.470648,0.433754,-0.761532,-0.595233,0.293466,0.196783,-21.30127,46.142578,260.375977,0,0
21443,2024 10 23,05:27:08.676,-0.118426,-0.484846,0.423632,-0.755934,-0.672384,0.239753,0.159673,-6.774902,63.964844,275.20752,0,0
21444,2024 10 23,05:27:08.684,-0.134204,-0.500558,0.411691,-0.749627,-0.825709,0.252937,0.124516,10.803223,81.604004,287.780762,0,0
21445,2024 10 23,05:27:08.692,-0.14948,-0.517289,0.398296,-0.742582,-1.033723,0.25782,0.021485,23.071289,91.97998,296.203613,0,0
21446,2024 10 23,05:27:08.701,-0.164494,-0.534038,0.383655,-0.735223,-1.15775,0.252449,-0.039064,32.226563,91.064453,301.086426,0,0
21447,2024 10 23,05:27:08.709,-0.164494,-0.534038,0.383655,-0.735223,-1.15775,0.252449,-0.039064,32.226563,91.064453,301.086426,0,0
21448,2024 10 23,05:27:08.717,-0.179462,-0.550552,0.368057,-0.727475,-1.227088,0.24073,-0.122562,37.719727,90.942383,306.884766,0,0
21449,2024 10 23,05:27:08.726,-0.194531,-0.566922,0.351569,-0.719136,-1.336955,0.2837,-0.153813,40.95459,91.85791,314.39209,0,0
21450,2024 10 23,05:27:08.734,-0.210012,-0.58286,0.334544,-0.710105,-1.445845,0.291513,-0.205573,37.17041,88.317871,320.556641,0,0
21451,2024 10 23,05:27:08.742,-0.225886,-0.597981,0.31724,-0.700537,-1.525437,0.316904,-0.173833,32.287598,84.533691,323.181152,0,0
21452,2024 10 23,05:27:08.751,-0.24205,-0.612417,0.30002,-0.690178,-1.629933,0.277352,-0.165532,25.390625,83.557129,324.462891,0,0
21453,2024 10 23,05:27:08.759,-0.24205,-0.612417,0.30002,-0.690178,-1.629933,0.277352,-0.165532,25.390625,83.557129,324.462891,0,0
21454,2024 10 23,05:27:08.767,-0.258333,-0.626303,0.282803,-0.678993,-1.765191,0.218757,-0.138676,20.324707,85.81543,326.721191,0,0
21455,2024 10 23,05:27:08.776,-0.274665,-0.639706,0.265648,-0.666908,-1.926817,0.093265,-0.118656,15.808105,87.768555,328.308105,0,0
21456,2024 10 23,05:27:08.784,-0.290821,-0.652418,0.248509,-0.654231,-2.029359,-0.076174,-0.075198,13.244629,87.158203,327.148438,0,0
21457,2024 10 23,05:27:08.792,-0.306464,-0.664465,0.23148,-0.641079,-2.094302,-0.255379,-0.041993,13.671875,87.890625,323.059082,0,0
21458,2024 10 23,05:27:08.801,-0.32125,-0.675988,0.21477,-0.627465,-2.188543,-0.416028,-0.023927,14.587402,91.61377,314.941406,0,0
21459,2024 10 23,05:27:08.809,-0.32125,-0.675988,0.21477,-0.627465,-2.188543,-0.416028,-0.023927,14.587402,91.61377,314.941406,0,0
21460,2024 10 23,05:27:08.817,-0.335043,-0.68684,0.19882,-0.61357,-2.270089,-0.627461,-0.043947,13.122559,93.87207,301.757813,0,0
21461,2024 10 23,05:27:08.826,-0.347594,-0.696955,0.183937,-0.599665,-2.325755,-0.886258,-0.032716,12.695313,95.825195,283.38623,0,0
21462,2024 10 23,05:27:08.834,-0.358727,-0.706297,0.170474,-0.586002,-2.356517,-1.158727,-0.051759,11.779785,97.65625,260.986328,0,0
21463,2024 10 23,05:27:08.842,-0.368488,-0.714888,0.158386,-0.57277,-2.340892,-1.439985,-0.063967,10.986328,96.252441,239.929199,0,0
21464,2024 10 23,05:27:08.851,-0.377081,-0.722537,0.147385,-0.560381,-2.20954,-1.773003,-0.12891,11.108398,88.928223,219.726563,0,0
21465,2024 10 23,05:27:08.859,-0.377081,-0.722537,0.147385,-0.560381,-2.20954,-1.773003,-0.12891,11.108398,88.928223,219.726563,0,0
21466,2024 10 23,05:27:08.867,-0.384238,-0.729217,0.137612,-0.549241,-2.004456,-2.122623,-0.271981,13.916016,80.993652,192.871094,0,0
21467,2024 10 23,05:27:08.876,-0.389145,-0.735182,0.129704,-0.539677,-1.710501,-2.288644,-0.552751,20.935059,76.782227,152.46582,0,0
21468,2024 10 23,05:27:08.884,-0.391328,-0.740336,0.124598,-0.532204,-1.439009,-2.501053,-0.920438,26.672363,71.350098,98.510742,0,0
21469,2024 10 23,05:27:08.892,-0.391308,-0.745193,0.123041,-0.525762,-1.982482,-2.961028,-1.302286,23.376465,89.233398,55.847168,0,0
21470,2024 10 23,05:27:08.901,-0.388445,-0.749239,0.122532,-0.522243,-2.376049,-2.719321,-1.039094,45.837402,44.799805,17.63916,0,0
21471,2024 10 23,05:27:08.909,-0.388445,-0.749239,0.122532,-0.522243,-2.376049,-2.719321,-1.039094,45.837402,44.799805,17.63916,0,0
21472,2024 10 23,05:27:08.917,-0.385366,-0.748303,0.12196,-0.525985,-1.694876,-2.576251,-0.604999,26.550293,-48.583984,-23.31543,0,0
21473,2024 10 23,05:27:08.926,-0.3805,-0.745979,0.121807,-0.53282,-1.189978,-2.221259,-0.126957,48.706055,-61.523438,-52.307129,0,0
21474,2024 10 23,05:27:08.934,-0.363146,-0.749043,0.125514,-0.539728,-3.173925,-0.164556,-2.75106,196.838379,24.902344,-203.125,0,0
21475,2024 10 23,05:27:08.942,-0.358682,-0.727519,0.128392,-0.570594,-0.692892,0.221686,1.635304,0.671387,-454.833984,-209.350586,0,0
21476,2024 10 23,05:27:08.951,-0.345049,-0.714012,0.128443,-0.595509,-0.416517,2.167058,1.449263,1.831055,-210.9375,-216.369629,0,0
21477,2024 10 23,05:27:08.959,-0.345784,-0.703153,0.147267,-0.603591,-1.257851,0.417493,-1.018098,1.831055,-210.9375,-216.369629,0,0
21478,2024 10 23,05:27:08.967,-0.345784,-0.703153,0.147267,-0.603591,-1.257851,0.417493,-1.018098,-140.50293,-58.898926,-200.683594,0,0
21479,2024 10 23,05:27:08.976,-0.341694,-0.688225,0.161246,-0.619348,-0.982452,0.807642,0.764183,-97.351074,-180.725098,-236.083984,1,0
21480,2024 10 23,05:27:08.984,-0.341868,-0.673937,0.180625,-0.629531,-1.462935,-0.722678,-1.397015,-190.979004,-89.355469,-212.341309,0,0
21481,2024 10 23,05:27:08.992,-0.33837,-0.663696,0.192953,-0.638579,-1.530808,-0.492691,-0.563494,-32.409668,-75.683594,-156.921387,0,0
21482,2024 10 23,05:27:09.001,-0.333806,-0.65881,0.197886,-0.644503,-1.388714,-0.02295,-0.128422,-10.498047,-45.227051,-84.716797,0,0
21483,2024 10 23,05:27:09.009,-0.333397,-0.653401,0.201554,-0.649068,-1.101596,0.188971,-0.166021,-38.818359,-63.232422,-53.466797,0,0
21484,2024 10 23,05:27:09.017,-0.333397,-0.653401,0.201554,-0.649068,-1.101596,0.188971,-0.166021,-38.818359,-63.232422,-53.466797,0,0
21485,2024 10 23,05:27:09.026,-0.333545,-0.649568,0.204703,-0.651848,-1.082064,0.19483,-0.035157,-32.348633,-25.756836,-38.635254,0,0
21486,2024 10 23,05:27:09.034,-0.333611,-0.646357,0.207881,-0.653997,-0.948759,0.145024,-0.226081,-29.785156,-35.03418,-40.527344,0,0
21487,2024 10 23,05:27:09.042,-0.333977,-0.642207,0.210782,-0.656963,-0.707053,-0.009766,-0.203131,-33.203125,-37.353516,-38.879395,0,0
21488,2024 10 23,05:27:09.051,-0.333219,-0.640265,0.213122,-0.658487,-0.832057,-0.078127,-0.298349,-8.117676,-9.338379,-30.395508,0,0
21489,2024 10 23,05:27:09.059,-0.331201,-0.639349,0.213792,-0.660176,-0.886258,0.086917,-0.044923,12.756348,-11.59668,-26.855469,0,0
21490,2024 10 23,05:27:09.067,-0.331201,-0.639349,0.213792,-0.660176,-0.886258,0.086917,-0.044923,12.756348,-11.59668,-26.855469,0,0
21491,2024 10 23,05:27:09.076,-0.329338,-0.63907,0.214279,-0.661218,-0.986358,0.160649,-0.081545,10.742188,-1.647949,-21.179199,0,0
21492,2024 10 23,05:27:09.084,-0.327483,-0.638427,0.214661,-0.662636,-0.901883,0.216315,-0.146001,13.427734,-11.169434,-25.634766,0,0
21493,2024 10 23,05:27:09.092,-0.32526,-0.638012,0.215422,-0.663882,-0.963897,0.213874,-0.096683,10.192871,0.183105,-29.296875,0,0
21494,2024 10 23,05:27:09.101,-0.323101,-0.637906,0.216744,-0.664608,-1.006867,0.16895,-0.116214,6.408691,4.089355,-29.418945,0,0
21495,2024 10 23,05:27:09.109,-0.320934,-0.637748,0.218043,-0.665384,-1.05472,0.185064,-0.029786,6.958008,3.540039,-29.23584,0,0
21496,2024 10 23,05:27:09.117,-0.320934,-0.637748,0.218043,-0.665384,-1.05472,0.185064,-0.029786,6.958008,3.540039,-29.23584,0,0
21497,2024 10 23,05:27:09.126,-0.319104,-0.637472,0.219387,-0.666087,-1.083041,0.166997,-0.038087,2.929688,0.488281,-26.550293,0,0
21498,2024 10 23,05:27:09.134,-0.317783,-0.636614,0.22048,-0.667177,-1.002472,0.145512,-0.046876,0.061035,-9.399414,-23.620605,0,0
21499,2024 10 23,05:27:09.142,-0.316794,-0.63566,0.221433,-0.668241,-0.954619,0.127934,-0.103519,-1.037598,-8.666992,-20.080566,0,0
21500,2024 10 23,05:27:09.151,-0.31593,-0.634885,0.222226,-0.669122,-0.963897,0.121586,-0.075686,0.0,-6.713867,-16.784668,0,0
21501,2024 10 23,05:27:09.159,-0.315167,-0.634222,0.222806,-0.669917,-0.955107,0.135746,-0.082522,0.793457,-7.141113,-14.160156,0,0
21502,2024 10 23,05:27:09.167,-0.315167,-0.634222,0.222806,-0.669917,-0.955107,0.135746,-0.082522,0.793457,-7.141113,-14.160156,0,0
21503,2024 10 23,05:27:09.176,-0.314551,-0.633594,0.223292,-0.670639,-0.957549,0.12598,-0.102054,0.244141,-6.591797,-12.084961,0,0
21504,2024 10 23,05:27:09.184,-0.313964,-0.633102,0.223638,-0.671264,-0.96585,0.137211,-0.070315,1.586914,-5.249023,-10.192871,0,0
21505,2024 10 23,05:27:09.192,-0.313372,-0.632678,0.223921,-0.671845,-0.980499,0.145024,-0.068361,2.319336,-5.249023,-10.070801,0,0
21506,2024 10 23,05:27:09.201,-0.31274,-0.632214,0.224144,-0.672502,-0.987335,0.146977,-0.056642,2.868652,-6.225586,-10.253906,0,0
21507,2024 10 23,05:27:09.209,-0.31214,-0.631675,0.224313,-0.67323,-0.998566,0.161626,-0.054689,2.563477,-8.056641,-9.94873,0,0
21508,2024 10 23,05:27:09.217,-0.31214,-0.631675,0.224313,-0.67323,-0.998566,0.161626,-0.054689,2.563477,-8.056641,-9.94873,0,0
21509,2024 10 23,05:27:09.226,-0.311703,-0.630949,0.224505,-0.674049,-0.969268,0.146977,-0.061525,0.244141,-10.498047,-9.70459,0,0
21510,2024 10 23,05:27:09.234,-0.311421,-0.630112,0.224758,-0.674878,-0.950224,0.133793,-0.072756,-0.549316,-10.803223,-9.521484,0,0
21511,2024 10 23,05:27:09.242,-0.31117,-0.629287,0.224944,-0.6757,-0.991241,0.17188,-0.113285,-0.854492,-11.108398,-8.178711,0,0
21512,2024 10 23,05:27:09.251,-0.310834,-0.628438,0.225193,-0.676561,-0.954131,0.139653,-0.04004,-2.13623,-11.657715,-10.070801,0,0
21513,2024 10 23,05:27:09.259,-0.310551,-0.627594,0.225621,-0.677332,-0.934599,0.144536,-0.099612,-2.319336,-9.460449,-11.169434,0,0
21514,2024 10 23,05:27:09.267,-0.310551,-0.627594,0.225621,-0.677332,-0.934599,0.144536,-0.099612,-2.319336,-9.460449,-11.169434,0,0
21515,2024 10 23,05:27:09.276,-0.310295,-0.626789,0.226149,-0.678018,-0.960479,0.128422,-0.095218,-1.89209,-7.995605,-10.192871,0,0
21516,2024 10 23,05:27:09.284,-0.309914,-0.626028,0.226524,-0.67877,-0.961455,0.131352,-0.076662,-2.01416,-9.643555,-10.620117,0,0
21517,2024 10 23,05:27:09.292,-0.309457,-0.625209,0.227034,-0.679563,-0.920438,0.124516,-0.103519,-1.647949,-9.338379,-12.878418,0,0
21518,2024 10 23,05:27:09.301,-0.309084,-0.624338,0.227623,-0.680336,-0.944853,0.112796,-0.109378,-1.77002,-8.239746,-12.268066,0,0
21519,2024 10 23,05:27:09.309,-0.308503,-0.623603,0.228115,-0.681108,-0.977081,0.115726,-0.074709,-0.427246,-8.422852,-13.061523,0,0
21520,2024 10 23,05:27:09.317,-0.308503,-0.623603,0.228115,-0.681108,-0.977081,0.115726,-0.074709,-0.427246,-8.422852,-13.061523,0,0
21521,2024 10 23,05:27:09.326,-0.307914,-0.622622,0.228588,-0.682114,-0.976592,0.155766,-0.096683,-0.793457,-12.451172,-14.831543,0,0
21522,2024 10 23,05:27:09.334,-0.307444,-0.621439,0.229268,-0.683175,-0.956084,0.0918,-0.082034,-4.333496,-13.48877,-15.869141,0,0
21523,2024 10 23,05:27:09.342,-0.306802,-0.620355,0.229845,-0.684254,-0.93997,0.123051,-0.153813,0.427246,-12.756348,-16.113281,0,0
21524,2024 10 23,05:27:09.351,-0.306067,-0.619273,0.23043,-0.685366,-0.927274,0.107913,-0.094729,-0.610352,-11.474609,-17.028809,0,0
21525,2024 10 23,05:27:09.359,-0.305349,-0.618336,0.231176,-0.68628,-0.96292,0.116703,-0.12891,-1.647949,-8.972168,-17.089844,0,0
21526,2024 10 23,05:27:09.367,-0.304543,-0.617352,0.231952,-0.687261,-0.944365,0.116214,-0.130375,-1.159668,-9.643555,-18.737793,0,0
21527,2024 10 23,05:27:09.376,-0.304543,-0.617352,0.231952,-0.687261,-0.944365,0.116214,-0.130375,-1.159668,-9.643555,-18.737793,0,0
21528,2024 10 23,05:27:09.384,-0.30351,-0.616512,0.232897,-0.688153,-0.955596,0.102054,-0.13477,-0.549316,-6.04248,-21.179199,0,0
21529,2024 10 23,05:27:09.392,-0.302342,-0.615667,0.233924,-0.689074,-0.972686,0.135746,-0.160161,-0.183105,-6.225586,-22.277832,0,0
21530,2024 10 23,05:27:09.401,-0.301064,-0.614893,0.235253,-0.689872,-0.974639,0.132328,-0.113773,-3.051758,-2.258301,-25.817871,0,0
21531,2024 10 23,05:27:09.409,-0.299656,-0.614277,0.236997,-0.690436,-1.053255,0.133793,-0.116703,-4.821777,1.831055,-28.015137,0,0
21532,2024 10 23,05:27:09.417,-0.29788,-0.613616,0.238958,-0.691117,-1.07474,0.135746,-0.091311,-3.173828,0.427246,-34.118652,0,0
21533,2024 10 23,05:27:09.426,-0.29788,-0.613616,0.238958,-0.691117,-1.07474,0.135746,-0.091311,-3.173828,0.427246,-34.118652,0,0
21534,2024 10 23,05:27:09.434,-0.295907,-0.612499,0.241132,-0.692199,-1.070833,0.129398,-0.06299,-4.821777,-4.272461,-39.0625,0,0
21535,2024 10 23,05:27:09.442,-0.293517,-0.611369,0.243621,-0.693343,-1.126011,0.165532,-0.192877,-3.540039,-2.075195,-46.203613,0,0
21536,2024 10 23,05:27:09.451,-0.290695,-0.609619,0.246461,-0.695067,-1.054231,0.145512,-0.073244,-5.126953,-9.765625,-55.847168,0,0
21537,2024 10 23,05:27:09.459,-0.287505,-0.608073,0.250091,-0.69645,-1.160192,0.207038,-0.308603,-8.483887,2.258301,-62.561035,0,0
21538,2024 10 23,05:27:09.467,-0.283761,-0.606007,0.2544,-0.698223,-1.150426,0.157231,-0.101077,-10.498047,-4.760742,-75.98877,0,0
21539,2024 10 23,05:27:09.476,-0.283761,-0.606007,0.2544,-0.698223,-1.150426,0.157231,-0.101077,-10.498047,-4.760742,-75.98877,0,0
21540,2024 10 23,05:27:09.484,-0.279227,-0.604096,0.259473,-0.699838,-1.249062,0.201178,-0.155278,-12.268066,4.516602,-85.876465,0,0
21541,2024 10 23,05:27:09.492,-0.274103,-0.60158,0.265477,-0.701777,-1.298868,0.173833,-0.126957,-14.038086,0.183105,-101.257324,0,0
21542,2024 10 23,05:27:09.501,-0.268095,-0.598377,0.272236,-0.704243,-1.347697,0.125492,-0.122074,-17.63916,-5.004883,-117.553711,0,0
21543,2024 10 23,05:27:09.509,-0.260935,-0.594431,0.279793,-0.707305,-1.424848,0.144536,-0.095706,-12.634277,-7.995605,-137.451172,0,0
21544,2024 10 23,05:27:09.517,-0.252019,-0.590058,0.287807,-0.710975,-1.587451,0.268075,-0.039552,-3.90625,-9.216309,-159.240723,0,0
21545,2024 10 23,05:27:09.526,-0.252019,-0.590058,0.287807,-0.710975,-1.587451,0.268075,-0.039552,-3.90625,-9.216309,-159.240723,0,0
21546,2024 10 23,05:27:09.534,-0.241723,-0.584621,0.296587,-0.71542,-1.811579,0.412122,-0.043458,-2.563477,-18.493652,-182.861328,0,0
21547,2024 10 23,05:27:09.542,-0.23014,-0.577536,0.306433,-0.720824,-1.825739,0.398938,0.047365,-4.333496,-33.447266,-212.646484,0,0
21548,2024 10 23,05:27:09.551,-0.216551,-0.568794,0.317756,-0.727056,-1.901425,0.41261,-0.090335,-3.845215,-37.536621,-246.704102,0,0
21549,2024 10 23,05:27:09.559,-0.200202,-0.558479,0.329741,-0.734364,-1.96588,0.520035,0.019532,9.82666,-48.88916,-283.874512,0,0
21550,2024 10 23,05:27:09.567,-0.181811,-0.5462,0.343327,-0.742116,-2.193915,0.566912,0.035157,-0.976563,-54.443359,-320.068359,0,0
21551,2024 10 23,05:27:09.576,-0.181811,-0.5462,0.343327,-0.742116,-2.193915,0.566912,0.035157,-0.976563,-54.443359,-320.068359,0,0
21552,2024 10 23,05:27:09.584,-0.162176,-0.532285,0.359251,-0.749207,-2.458571,0.558611,0.022462,-17.272949,-55.541992,-351.257324,0,0
21553,2024 10 23,05:27:09.592,-0.141408,-0.516024,0.377358,-0.75586,-2.392651,0.423353,0.278817,-35.400391,-66.894531,-384.094238,0,0
21554,2024 10 23,05:27:09.601,-0.120069,-0.497956,0.397167,-0.761499,-2.521561,0.527848,0.291025,-54.931641,-67.260742,-399.719238,0,0
21555,2024 10 23,05:27:09.609,-0.099501,-0.478513,0.41832,-0.765593,-2.91464,0.44142,-0.54152,-84.533691,-82.641602,-406.982422,0,0
21556,2024 10 23,05:27:09.617,-0.079617,-0.453148,0.438196,-0.772206,-1.821345,0.186529,0.143559,-58.288574,-162.536621,-427.79541,0,0
21557,2024 10 23,05:27:09.626,-0.079617,-0.453148,0.438196,-0.772206,-1.821345,0.186529,0.143559,-58.288574,-162.536621,-427.79541,0,0
21558,2024 10 23,05:27:09.634,-0.057481,-0.427756,0.457618,-0.777371,-1.327677,0.290536,0.477554,-37.475586,-100.402832,-439.39209,0,0
21559,2024 10 23,05:27:09.642,-0.030884,-0.404809,0.474667,-0.78094,-1.335978,0.28077,0.381848,-13.793945,-74.890137,-452.819824,0,1
21560,2024 10 23,05:27:09.651,-0.002825,-0.381038,0.488663,-0.784863,-1.211951,0.2837,0.817408,28.198242,-73.730469,-449.768066,0,0
21561,2024 10 23,05:27:09.659,0.025172,-0.358717,0.499258,-0.788308,-1.034211,0.354991,0.424329,52.612305,-64.27002,-420.532227,0,0
21562,2024 10 23,05:27:09.667,0.048284,-0.335459,0.506258,-0.792994,0.191412,0.785668,0.350597,80.505371,-115.905762,-353.942871,0,0
21563,2024 10 23,05:27:09.676,0.048284,-0.335459,0.506258,-0.792994,0.191412,0.785668,0.350597,80.505371,-115.905762,-353.942871,0,0
21564,2024 10 23,05:27:09.684,0.061699,-0.315197,0.50431,-0.80157,1.128452,0.978057,2.523515,131.896973,-131.347656,-169.86084,0,0
21565,2024 10 23,05:27:09.692,0.067603,-0.320746,0.495955,-0.804102,0.122074,1.353557,-0.671407,134.277344,134.460449,67.749023,0,0
21566,2024 10 23,05:27:09.701,0.062477,-0.333556,0.476793,-0.810867,-0.373547,1.937559,0.907743,190.368652,64.208984,226.135254,0,0
21567,2024 10 23,05:27:09.709,0.048578,-0.352545,0.459004,-0.814044,-0.930692,1.544481,-0.014649,77.331543,107.60498,312.744141,0,0
21568,2024 10 23,05:27:09.717,0.029327,-0.37033,0.444381,-0.815182,-0.799829,1.109409,-0.074221,57.556152,48.278809,323.913574,0,0
21569,2024 10 23,05:27:09.726,0.029327,-0.37033,0.444381,-0.815182,-0.799829,1.109409,-0.074221,57.556152,48.278809,323.913574,0,0
21570,2024 10 23,05:27:09.734,0.008943,-0.384146,0.43175,-0.816054,-0.333506,0.955596,0.454115,11.901855,24.780273,302.124023,0,0
21571,2024 10 23,05:27:09.742,-0.009913,-0.39789,0.424008,-0.813513,-0.24366,0.499527,0.172857,-31.616211,52.001953,264.160156,0,0
21572,2024 10 23,05:27:09.751,-0.025496,-0.41174,0.418152,-0.809302,-0.243171,0.534684,0.359386,-36.621094,78.369141,229.797363,0,0
21573,2024 10 23,05:27:09.759,-0.039378,-0.426882,0.414094,-0.802961,-0.399915,0.594745,0.213874,-59.936523,107.60498,217.590332,0,0
21574,2024 10 23,05:27:09.767,-0.053318,-0.443025,0.410876,-0.795026,-0.642598,0.682638,0.166509,-71.594238,120.483398,222.167969,0,0
21575,2024 10 23,05:27:09.776,-0.068737,-0.459399,0.407974,-0.785993,-0.817896,0.641133,0.162114,-89.599609,117.980957,236.999512,0,0
21576,2024 10 23,05:27:09.784,-0.068737,-0.459399,0.407974,-0.785993,-0.817896,0.641133,0.162114,-89.599609,117.980957,236.999512,0,0
21577,2024 10 23,05:27:09.792,-0.086149,-0.475642,0.404913,-0.776137,-0.943876,0.494156,0.124516,-99.67041,110.595703,256.408691,0,0
21578,2024 10 23,05:27:09.801,-0.105002,-0.491717,0.400971,-0.765775,-1.019562,0.337413,0.130375,-100.158691,105.712891,273.254395,0,0
21579,2024 10 23,05:27:09.809,-0.124563,-0.507791,0.395862,-0.754934,-1.082553,0.179205,0.071291,-93.688965,104.248047,286.315918,0,0
21580,2024 10 23,05:27:09.817,-0.144092,-0.523923,0.389096,-0.743872,-1.088412,0.070803,0.034669,-78.308105,105.224609,296.447754,0,0
21581,2024 10 23,05:27:09.826,-0.162944,-0.540632,0.3806,-0.732332,-1.158238,0.028809,-0.074709,-59.997559,115.722656,304.626465,0,0
21582,2024 10 23,05:27:09.834,-0.162944,-0.540632,0.3806,-0.732332,-1.158238,0.028809,-0.074709,-59.997559,115.722656,304.626465,0,0
21583,2024 10 23,05:27:09.842,-0.180917,-0.557914,0.370509,-0.720225,-1.347697,0.043458,-0.161138,-43.823242,124.450684,310.241699,0,0
21584,2024 10 23,05:27:09.851,-0.198455,-0.574917,0.359239,-0.707837,-1.570849,0.036622,-0.269539,-35.339355,119.567871,312.37793,0,0
21585,2024 10 23,05:27:09.859,-0.216124,-0.590345,0.347016,-0.695962,-1.701224,-0.041017,-0.302255,-30.334473,97.65625,311.889648,0,0
21586,2024 10 23,05:27:09.867,-0.234053,-0.603752,0.333779,-0.685051,-1.745659,-0.15479,-0.281747,-24.841309,71.289063,311.096191,0,0
21587,2024 10 23,05:27:09.876,-0.251849,-0.615372,0.31944,-0.675165,-1.718314,-0.256355,-0.180181,-14.770508,49.194336,308.71582,0,0
21588,2024 10 23,05:27:09.884,-0.251849,-0.615372,0.31944,-0.675165,-1.718314,-0.256355,-0.180181,-14.770508,49.194336,308.71582,0,0
21589,2024 10 23,05:27:09.892,-0.26895,-0.625938,0.304086,-0.665882,-1.718314,-0.326182,-0.080081,-2.01416,39.245605,305.969238,0,0
21590,2024 10 23,05:27:09.901,-0.28501,-0.636096,0.287872,-0.65672,-1.787652,-0.373058,-0.020508,10.864258,36.987305,303.222656,0,0
21591,2024 10 23,05:27:09.909,-0.30019,-0.645938,0.271101,-0.647422,-1.846248,-0.472671,-0.007324,18.371582,37.109375,301.086426,0,0
21592,2024 10 23,05:27:09.917,-0.314892,-0.655441,0.254216,-0.637663,-1.878964,-0.615253,-0.044923,18.737793,39.794922,300.354004,0,0
21593,2024 10 23,05:27:09.926,-0.329262,-0.664596,0.237673,-0.627224,-1.891171,-0.713889,-0.013672,13.916016,45.715332,296.875,0,0
21594,2024 10 23,05:27:09.934,-0.329262,-0.664596,0.237673,-0.627224,-1.891171,-0.713889,-0.013672,13.916016,45.715332,296.875,0,0
21595,2024 10 23,05:27:09.942,-0.343173,-0.673162,0.222592,-0.616066,-1.901914,-0.854518,0.023927,0.610352,53.649902,280.944824,0,0
21596,2024 10 23,05:27:09.951,-0.356109,-0.680835,0.210035,-0.604595,-1.849666,-1.042512,0.077639,-13.549805,63.110352,251.89209,0,0
21597,2024 10 23,05:27:09.959,-0.367431,-0.688012,0.200434,-0.592841,-1.831599,-1.231971,0.087405,-23.193359,78.857422,218.444824,0,0
21598,2024 10 23,05:27:09.967,-0.376994,-0.694731,0.193412,-0.581219,-1.896542,-1.438032,0.026368,-26.733398,86.608887,186.584473,0,0
21599,2024 10 23,05:27:09.976,-0.385033,-0.700612,0.188027,-0.57056,-1.891171,-1.704642,-0.084475,-26.672363,81.054688,160.15625,0,0
21600,2024 10 23,05:27:09.984,-0.385033,-0.700612,0.188027,-0.57056,-1.891171,-1.704642,-0.084475,-26.672363,81.054688,160.15625,0,0
21601,2024 10 23,05:27:09.992,-0.39163,-0.705374,0.183449,-0.561623,-1.70806,-1.991272,-0.153325,-19.042969,66.650391,136.169434,0,0
21602,2024 10 23,05:27:10.001,-0.396198,-0.709824,0.179414,-0.554065,-1.510788,-2.141179,-0.337413,-2.624512,63.293457,112.854004,0,0
21603,2024 10 23,05:27:10.009,-0.398185,-0.714295,0.175944,-0.547973,-1.427778,-2.246162,-0.490738,18.493652,59.692383,83.740234,0,0
21604,2024 10 23,05:27:10.017,-0.392975,-0.720069,0.176836,-0.543876,-2.995209,-2.050355,-2.143132,68.17627,95.153809,-31.188965,0,0
21605,2024 10 23,05:27:10.026,-0.392835,-0.710858,0.18017,-0.554888,-2.1695,-3.085055,-0.396008,-32.836914,-176.391602,-93.017578,0,0
21606,2024 10 23,05:27:10.034,-0.392835,-0.710858,0.18017,-0.554888,-2.1695,-3.085055,-0.396008,-32.836914,-176.391602,-93.017578,0,0
21607,2024 10 23,05:27:10.042,-0.388947,-0.699608,0.18528,-0.570036,-1.933164,-3.146092,-1.621143,-46.936035,-156.738281,-152.587891,0,0
21608,2024 10 23,05:27:10.051,-0.382385,-0.684882,0.191731,-0.58988,-0.941435,-1.631886,-1.964904,24.780273,-224.243164,-206.115723,1,0
21609,2024 10 23,05:27:10.059,-0.367924,-0.672291,0.187265,-0.614482,-0.278817,1.684133,0.839869,172.790527,-245.97168,-185.424805,0,0
21610,2024 10 23,05:27:10.067,-0.364327,-0.663385,0.194455,-0.623998,-1.174841,0.640156,0.488296,-118.408203,-52.79541,-136.047363,0,0
21611,2024 10 23,05:27:10.076,-0.363422,-0.655433,0.205903,-0.629234,-1.43852,0.033692,-0.756859,-57.495117,-69.335938,-137.329102,0,0
21612,2024 10 23,05:27:10.084,-0.363422,-0.655433,0.205903,-0.629234,-1.43852,0.033692,-0.756859,-57.495117,-69.335938,-137.329102,0,0
21613,2024 10 23,05:27:10.092,-0.360501,-0.646653,0.212606,-0.637712,-1.102573,0.089358,0.187017,-55.114746,-75.378418,-116.943359,0,0
21614,2024 10 23,05:27:10.101,-0.35951,-0.641494,0.219956,-0.640982,-1.304239,-0.229011,-0.522965,-56.030273,-28.686523,-76.660156,0,0
21615,2024 10 23,05:27:10.109,-0.359103,-0.636113,0.223194,-0.645437,-0.813013,0.016602,-0.305673,-20.202637,-58.654785,-52.91748,0,0
21616,2024 10 23,05:27:10.117,-0.357511,-0.633367,0.225175,-0.648327,-1.010285,0.16895,-0.041505,-7.446289,-16.967773,-42.175293,0,0
21617,2024 10 23,05:27:10.126,-0.35595,-0.63175,0.227228,-0.650045,-1.157262,0.104984,-0.037111,-4.943848,-16.479492,-36.743164,0,0
21618,2024 10 23,05:27:10.134,-0.35595,-0.63175,0.227228,-0.650045,-1.157262,0.104984,-0.037111,-4.943848,-16.479492,-36.743164,0,0
21619,2024 10 23,05:27:10.142,-0.354965,-0.628682,0.228274,-0.653184,-0.924833,0.077639,-0.153325,-5.371094,-44.311523,-34.423828,0,0
21620,2024 10 23,05:27:10.151,-0.354098,-0.626148,0.228731,-0.655924,-0.94583,0.172369,-0.087893,2.01416,-28.686523,-25.268555,0,0
21621,2024 10 23,05:27:10.159,-0.353399,-0.624222,0.229269,-0.657945,-0.991241,0.180181,-0.104984,-4.150391,-26.245117,-21.911621,0,0
21622,2024 10 23,05:27:10.167,-0.353266,-0.622094,0.229872,-0.659819,-0.949736,0.123539,-0.172857,-6.958008,-25.20752,-17.089844,0,0
21623,2024 10 23,05:27:10.176,-0.352813,-0.620488,0.230149,-0.661475,-0.988311,0.20069,-0.113285,0.732422,-20.690918,-16.662598,0,0
21624,2024 10 23,05:27:10.184,-0.352448,-0.618875,0.230535,-0.663045,-0.98001,0.192877,-0.139653,-4.760742,-21.240234,-16.296387,0,0
21625,2024 10 23,05:27:10.192,-0.352448,-0.618875,0.230535,-0.663045,-0.98001,0.192877,-0.139653,-4.760742,-21.240234,-16.296387,0,0
21626,2024 10 23,05:27:10.201,-0.352198,-0.617245,0.231059,-0.664513,-0.96292,0.173345,-0.146001,-3.845215,-18.920898,-15.991211,0,0
21627,2024 10 23,05:27:10.209,-0.351834,-0.615827,0.231541,-0.665852,-1.013703,0.208014,-0.075686,-4.394531,-17.150879,-15.197754,0,0
21628,2024 10 23,05:27:10.217,-0.351891,-0.614179,0.232173,-0.667122,-0.980499,0.158696,-0.136235,-9.521484,-20.446777,-13.427734,0,0
21629,2024 10 23,05:27:10.226,-0.352115,-0.612341,0.232609,-0.668541,-0.949736,0.150395,-0.134281,-7.507324,-23.132324,-11.535645,0,0
21630,2024 10 23,05:27:10.234,-0.352077,-0.610705,0.232827,-0.66998,-0.941923,0.15479,-0.10303,-3.78418,-21.118164,-12.634277,0,0
21631,2024 10 23,05:27:10.242,-0.352077,-0.610705,0.232827,-0.66998,-0.941923,0.15479,-0.10303,-3.78418,-21.118164,-12.634277,0,0
21632,2024 10 23,05:27:10.251,-0.352125,-0.609046,0.233084,-0.671374,-0.895535,0.117679,-0.196295,-5.310059,-21.606445,-11.169434,0,0
21633,2024 10 23,05:27:10.259,-0.351873,-0.60776,0.233153,-0.672646,-0.892117,0.140629,-0.143559,1.342773,-15.991211,-10.925293,0,0
21634,2024 10 23,05:27:10.267,-0.35162,-0.60676,0.23321,-0.67366,-0.894559,0.145024,-0.177252,-0.854492,-13.366699,-8.728027,0,0
21635,2024 10 23,05:27:10.276,-0.351422,-0.605913,0.233273,-0.674504,-0.896512,0.120609,-0.159673,0.0,-10.620117,-7.141113,0,0
21636,2024 10 23,05:27:10.284,-0.351202,-0.605308,0.233182,-0.675193,-0.900418,0.125492,-0.165532,1.403809,-9.033203,-4.882813,0,0
21637,2024 10 23,05:27:10.292,-0.351202,-0.605308,0.233182,-0.675193,-0.900418,0.125492,-0.165532,1.403809,-9.033203,-4.882813,0,0
21638,2024 10 23,05:27:10.301,-0.351093,-0.60476,0.233002,-0.675802,-0.906278,0.134281,-0.169439,1.708984,-8.483887,-3.112793,0,0
21639,2024 10 23,05:27:10.309,-0.350985,-0.604382,0.232722,-0.676293,-0.936064,0.144047,-0.139164,2.807617,-6.835938,-1.708984,0,0
21640,2024 10 23,05:27:10.317,-0.350893,-0.604017,0.232387,-0.676782,-0.954619,0.166021,-0.140629,3.356934,-7.8125,-1.586914,0,0
21641,2024 10 23,05:27:10.326,-0.350631,-0.603585,0.232037,-0.677424,-1.00296,0.216803,-0.104495,4.394531,-8.728027,-4.394531,0,0
21642,2024 10 23,05:27:10.334,-0.350415,-0.602947,0.231987,-0.678119,-0.990753,0.206549,-0.12891,-0.488281,-10.009766,-6.713867,0,0
21643,2024 10 23,05:27:10.342,-0.350415,-0.602947,0.231987,-0.678119,-0.990753,0.206549,-0.12891,-0.488281,-10.009766,-6.713867,0,0
21644,2024 10 23,05:27:10.351,-0.350356,-0.602124,0.232265,-0.678786,-0.967315,0.17774,-0.144047,-3.90625,-9.338379,-7.93457,0,0
21645,2024 10 23,05:27:10.359,-0.350159,-0.601452,0.232693,-0.679336,-1.011261,0.194342,-0.119144,-2.380371,-5.737305,-9.70459,0,0
21646,2024 10 23,05:27:10.367,-0.349823,-0.600626,0.233355,-0.680013,-1.084018,0.226081,-0.172857,-4.821777,-8.666992,-13.183594,0,0
21647,2024 10 23,05:27:10.376,-0.349376,-0.59929,0.233931,-0.681223,-0.944365,0.153813,-0.145024,-5.249023,-17.944336,-16.296387,0,0
21648,2024 10 23,05:27:10.384,-0.349138,-0.597874,0.234595,-0.682359,-0.909207,0.124516,-0.150395,-6.469727,-13.916016,-14.526367,0,0
21649,2024 10 23,05:27:10.392,-0.349138,-0.597874,0.234595,-0.682359,-0.909207,0.124516,-0.150395,-6.469727,-13.916016,-14.526367,0,0
21650,2024 10 23,05:27:10.401,-0.348805,-0.59682,0.235271,-0.683219,-1.050813,0.158696,-0.196295,-4.455566,-10.131836,-13.61084,0,0
21651,2024 10 23,05:27:10.409,-0.348282,-0.595524,0.235626,-0.684494,-0.958525,0.132817,-0.093265,-1.159668,-19.836426,-15.197754,0,0
21652,2024 10 23,05:27:10.417,-0.347665,-0.594162,0.235884,-0.6859,-0.906278,0.216803,-0.222663,0.671387,-15.197754,-17.76123,0,0
21653,2024 10 23,05:27:10.426,-0.347099,-0.59291,0.23709,-0.686854,-0.921415,0.06299,-0.19483,-6.835938,-7.324219,-19.714355,0,0
21654,2024 10 23,05:27:10.434,-0.345484,-0.592446,0.237912,-0.687783,-0.911161,0.235359,-0.250984,4.943848,-1.403809,-26.428223,0,0
21655,2024 10 23,05:27:10.442,-0.345484,-0.592446,0.237912,-0.687783,-0.911161,0.235359,-0.250984,4.943848,-1.403809,-26.428223,0,0
21656,2024 10 23,05:27:10.451,-0.343988,-0.591641,0.239892,-0.688539,-0.972198,0.243171,-0.270028,-4.760742,6.408691,-32.958984,0,0
21657,2024 10 23,05:27:10.459,-0.341465,-0.591673,0.243069,-0.688653,-1.105502,0.281259,-0.342296,-11.352539,23.193359,-46.875,0,0
21658,2024 10 23,05:27:10.467,-0.337599,-0.592066,0.247612,-0.688602,-1.187048,0.333018,-0.416517,-9.216309,33.813477,-66.772461,0,0
21659,2024 10 23,05:27:10.476,-0.332006,-0.592534,0.253812,-0.688662,-1.402875,0.478042,-0.358409,-7.69043,49.499512,-93.261719,0,0
21660,2024 10 23,05:27:10.484,-0.324772,-0.593021,0.262239,-0.688535,-1.749565,0.520035,-0.278329,-19.714355,61.035156,-121.948242,0,0
21661,2024 10 23,05:27:10.492,-0.324772,-0.593021,0.262239,-0.688535,-1.749565,0.520035,-0.278329,-19.714355,61.035156,-121.948242,0,0
21662,2024 10 23,05:27:10.501,-0.31559,-0.592831,0.272897,-0.688826,-2.264718,0.569353,-0.235359,-24.414063,63.415527,-159.240723,0,0
21663,2024 10 23,05:27:10.509,-0.304421,-0.590769,0.285156,-0.690656,-2.325755,0.787133,-0.328135,-19.40918,41.259766,-195.556641,0,0
21664,2024 10 23,05:27:10.517,-0.292246,-0.585113,0.298048,-0.695271,-1.976623,0.770531,0.497085,-30.761719,1.342773,-234.130859,0,0
21665,2024 10 23,05:27:10.526,-0.279795,-0.57821,0.314359,-0.698976,-1.890683,0.579608,-0.043458,-63.842773,16.662598,-255.126953,0,0
21666,2024 10 23,05:27:10.534,-0.266633,-0.569023,0.331492,-0.703728,-1.854061,0.55031,-0.089358,-63.903809,-11.657715,-275.146484,0,0
21667,2024 10 23,05:27:10.542,-0.266633,-0.569023,0.331492,-0.703728,-1.854061,0.55031,-0.089358,-63.903809,-11.657715,-275.146484,0,0
21668,2024 10 23,05:27:10.551,-0.253721,-0.557695,0.349355,-0.70891,-1.695364,0.247078,0.193854,-80.383301,-22.338867,-284.545898,0,1
21669,2024 10 23,05:27:10.559,-0.240972,-0.54684,0.36711,-0.712832,-1.686087,0.005371,-0.359874,-67.321777,-13.000488,-273.620605,0,0
21670,2024 10 23,05:27:10.567,-0.22736,-0.534657,0.379703,-0.719913,-0.473159,0.84817,-0.216803,-5.859375,-66.467285,-257.385254,0,0
21671,2024 10 23,05:27:10.576,-0.216783,-0.52448,0.381241,-0.729782,-0.109867,1.555712,2.023988,80.383301,-92.712402,-132.080078,0,0
21672,2024 10 23,05:27:10.584,-0.21291,-0.523175,0.382586,-0.731153,-0.801294,1.620167,-0.491714,-1.525879,8.789063,-48.828125,0,0
21673,2024 10 23,05:27:10.592,-0.211701,-0.51889,0.380475,-0.735646,-0.381359,1.507859,0.510758,53.710938,-84.16748,-36.315918,0,0
21674,2024 10 23,05:27:10.601,-0.211701,-0.51889,0.380475,-0.735646,-0.381359,1.507859,0.510758,53.710938,-84.16748,-36.315918,0,0
21675,2024 10 23,05:27:10.609,-0.212598,-0.513794,0.378107,-0.740171,0.219733,1.251991,0.702658,3.417969,-72.021484,-10.375977,0,0
21676,2024 10 23,05:27:10.617,-0.214215,-0.513023,0.375353,-0.74164,0.063967,1.446333,0.36671,27.099609,-23.071289,26.123047,0,0
21677,2024 10 23,05:27:10.626,-0.217383,-0.514578,0.3717,-0.741481,-0.129887,1.504929,0.375988,5.67627,-6.469727,54.56543,0,0
21678,2024 10 23,05:27:10.634,-0.223253,-0.516583,0.369056,-0.739661,-0.08887,1.244179,0.205573,-19.226074,-5.981445,76.477051,0,0
21679,2024 10 23,05:27:10.642,-0.23053,-0.5194,0.366259,-0.73684,-0.090335,1.137242,0.324717,-28.442383,5.310059,95.947266,0,0
21680,2024 10 23,05:27:10.651,-0.23053,-0.5194,0.366259,-0.73684,-0.090335,1.137242,0.324717,-28.442383,5.310059,95.947266,0,0
21681,2024 10 23,05:27:10.659,-0.239014,-0.523591,0.363598,-0.732476,-0.199713,1.008332,0.227546,-36.92627,20.324707,115.966797,0,0
21682,2024 10 23,05:27:10.667,-0.248598,-0.528942,0.360142,-0.72713,-0.343272,0.952666,0.232917,-36.987305,28.198242,138.549805,0,0
21683,2024 10 23,05:27:10.676,-0.259554,-0.535247,0.355765,-0.720814,-0.497574,0.832057,0.185064,-39.001465,32.287598,162.536621,0,0
21684,2024 10 23,05:27:10.684,-0.271662,-0.542113,0.350211,-0.713908,-0.591327,0.70217,0.199225,-35.644531,31.738281,182.678223,0,0
21685,2024 10 23,05:27:10.692,-0.284463,-0.549667,0.343494,-0.70637,-0.711447,0.594745,0.213385,-30.395508,36.254883,200.622559,0,0
21686,2024 10 23,05:27:10.701,-0.284463,-0.549667,0.343494,-0.70637,-0.711447,0.594745,0.213385,-30.395508,36.254883,200.622559,0,0
21687,2024 10 23,05:27:10.709,-0.297828,-0.558057,0.33569,-0.697985,-0.878933,0.540056,0.185064,-25.817871,42.602539,218.566895,0,0
21688,2024 10 23,05:27:10.717,-0.311923,-0.566987,0.327008,-0.688692,-1.065462,0.499527,0.209479,-27.770996,46.142578,234.863281,0,0
21689,2024 10 23,05:27:10.726,-0.327055,-0.576006,0.318104,-0.678279,-1.213904,0.405774,0.255379,-37.841797,49.438477,248.596191,0,0
21690,2024 10 23,05:27:10.734,-0.343091,-0.584924,0.309489,-0.66661,-1.326701,0.234382,0.383801,-52.246094,54.626465,257.263184,0,0
21691,2024 10 23,05:27:10.742,-0.359607,-0.593621,0.301834,-0.6536,-1.35258,0.027345,0.456557,-68.17627,65.429688,258.239746,0,0
21692,2024 10 23,05:27:10.751,-0.359607,-0.593621,0.301834,-0.6536,-1.35258,0.027345,0.456557,-68.17627,65.429688,258.239746,0,0
21693,2024 10 23,05:27:10.759,-0.375869,-0.602483,0.29578,-0.638946,-1.331095,-0.226569,0.438002,-83.129883,88.317871,252.929688,0,0
21694,2024 10 23,05:27:10.767,-0.39097,-0.612148,0.291545,-0.62243,-1.481002,-0.53029,0.416517,-88.07373,120.910645,243.774414,0,0
21695,2024 10 23,05:27:10.776,-0.404385,-0.62256,0.289209,-0.604359,-1.706107,-0.845729,0.275399,-92.407227,149.658203,227.111816,0,0
21696,2024 10 23,05:27:10.784,-0.415823,-0.632475,0.289039,-0.586108,-1.764214,-1.163121,0.275887,-95.825195,159.790039,196.044922,0,0
21697,2024 10 23,05:27:10.792,-0.425221,-0.641295,0.291399,-0.568344,-1.73101,-1.478072,0.346202,-102.294922,169.86084,159.301758,0,0
21698,2024 10 23,05:27:10.801,-0.425221,-0.641295,0.291399,-0.568344,-1.73101,-1.478072,0.346202,-102.294922,169.86084,159.301758,0,0
21699,2024 10 23,05:27:10.809,-0.432228,-0.649525,0.296218,-0.550954,-1.773003,-1.756401,0.417493,-100.158691,181.82373,124.023438,0,0
21700,2024 10 23,05:27:10.817,-0.437078,-0.656428,0.303106,-0.534968,-1.676321,-2.055727,0.556169,-101.623535,176.147461,82.885742,0,0
21701,2024 10 23,05:27:10.826,-0.439846,-0.661182,0.312574,-0.521221,-1.340861,-2.368725,0.536637,-104.064941,165.405273,31.066895,0,0
21702,2024 10 23,05:27:10.834,-0.434252,-0.665665,0.329745,-0.509494,-3.898557,-2.437574,-1.827204,-63.964844,250.854492,-124.450684,0,0
21703,2024 10 23,05:27:10.842,-0.437322,-0.64977,0.348425,-0.514927,-3.76867,-4.624653,-0.062502,-221.008301,-140.563965,-207.946777,1,0
21704,2024 10 23,05:27:10.851,-0.437322,-0.64977,0.348425,-0.514927,-3.76867,-4.624653,-0.062502,-221.008301,-140.563965,-207.946777,0,0
21705,2024 10 23,05:27:10.859,-0.443999,-0.626351,0.365253,-0.526441,-0.519547,-4.197882,-4.11536,-232.299805,-175.354004,-180.664063,0,0
21706,2024 10 23,05:27:10.867,-0.445286,-0.609893,0.355759,-0.550624,-0.951689,0.00293,0.658223,197.021484,-295.654297,-76.599121,0,0
21707,2024 10 23,05:27:10.876,-0.441904,-0.608053,0.343657,-0.562932,-1.142125,0.954131,1.329142,54.504395,-123.596191,-2.990723,0,0
21708,2024 10 23,05:27:10.884,-0.44138,-0.600634,0.340749,-0.572986,-1.606494,1.436079,0.028809,10.620117,-164.123535,-82.336426,0,0
21709,2024 10 23,05:27:10.892,-0.447886,-0.584775,0.342776,-0.583044,-0.972686,-0.401868,0.268563,-130.67627,-171.75293,-82.519531,0,0
21710,2024 10 23,05:27:10.901,-0.447886,-0.584775,0.342776,-0.583044,-0.972686,-0.401868,0.268563,-130.67627,-171.75293,-82.519531,0,0
21711,2024 10 23,05:27:10.909,-0.452785,-0.575299,0.345167,-0.587262,-0.738304,-0.744163,-1.744682,-49.194336,-95.336914,-27.34375,0,0
21712,2024 10 23,05:27:10.917,-0.453672,-0.570489,0.339789,-0.594362,-0.406262,0.524918,0.171392,51.391602,-88.684082,-9.033203,0,0
21713,2024 10 23,05:27:10.926,-0.453519,-0.570397,0.340308,-0.594271,-1.013703,0.394543,-0.161138,-27.893066,22.460938,-8.728027,0,0
21714,2024 10 23,05:27:10.934,-0.454799,-0.56857,0.343286,-0.59333,-1.183142,-0.075198,-0.317881,-34.851074,-7.080078,-14.648438,0,0
21715,2024 10 23,05:27:10.942,-0.454839,-0.566496,0.343417,-0.595205,-0.816431,0.270028,-0.126469,-1.098633,-26.489258,-19.592285,0,0
21716,2024 10 23,05:27:10.951,-0.454839,-0.566496,0.343417,-0.595205,-0.816431,0.270028,-0.126469,-1.098633,-26.489258,-19.592285,0,0
21717,2024 10 23,05:27:10.959,-0.45452,-0.5651,0.344991,-0.595865,-0.899441,0.051271,-0.245613,-13.671875,5.493164,-22.094727,0,0
21718,2024 10 23,05:27:10.967,-0.453121,-0.564859,0.346407,-0.596337,-0.898953,0.085452,-0.276376,2.685547,6.591797,-21.789551,0,0
21719,2024 10 23,05:27:10.976,-0.451529,-0.564816,0.347341,-0.597042,-0.938017,0.123539,-0.015625,6.164551,9.277344,-20.202637,0,0
21720,2024 10 23,05:27:10.984,-0.450091,-0.565111,0.348572,-0.59713,-1.02884,0.073244,-0.123539,2.319336,11.962891,-16.174316,0,0
21721,2024 10 23,05:27:10.992,-0.448968,-0.564963,0.348953,-0.597894,-1.005402,0.150395,-0.047853,8.056641,-2.685547,-14.160156,0,0
21722,2024 10 23,05:27:11.001,-0.448334,-0.564578,0.349235,-0.598567,-0.988311,0.133793,-0.102542,0.732422,-2.502441,-10.375977,0,0
21723,2024 10 23,05:27:11.009,-0.448334,-0.564578,0.349235,-0.598567,-0.988311,0.133793,-0.102542,0.732422,-2.502441,-10.375977,0,0
21724,2024 10 23,05:27:11.017,-0.448042,-0.564155,0.349502,-0.599029,-0.997589,0.116214,-0.099124,0.0,-4.02832,-7.385254,0,0
21725,2024 10 23,05:27:11.026,-0.447918,-0.563655,0.349568,-0.599554,-1.004425,0.14893,-0.067385,-0.488281,-6.408691,-6.04248,0,0
21726,2024 10 23,05:27:11.034,-0.447994,-0.563007,0.349644,-0.600061,-1.019562,0.163579,-0.086428,-2.319336,-8.300781,-5.249023,0,0
21727,2024 10 23,05:27:11.042,-0.448383,-0.562057,0.349633,-0.600667,-0.954131,0.147465,-0.130863,-6.286621,-13.122559,-4.272461,0,0
21728,2024 10 23,05:27:11.051,-0.448938,-0.561062,0.349726,-0.601129,-0.904813,0.148442,-0.195318,-7.446289,-9.887695,-3.234863,0,0
21729,2024 10 23,05:27:11.059,-0.448938,-0.561062,0.349726,-0.601129,-0.904813,0.148442,-0.195318,-7.446289,-9.887695,-3.234863,0,0
21730,2024 10 23,05:27:11.067,-0.449296,-0.560411,0.350107,-0.601247,-0.889676,0.112796,-0.160161,-8.605957,-2.685547,-3.234863,0,0
21731,2024 10 23,05:27:11.076,-0.449405,-0.560149,0.350597,-0.601124,-0.938017,0.141118,-0.173345,-5.004883,2.380371,-3.234863,0,0
21732,2024 10 23,05:27:11.084,-0.449362,-0.559982,0.351086,-0.601026,-0.913114,0.123539,-0.13184,-5.432129,2.075195,-4.150391,0,0
21733,2024 10 23,05:27:11.092,-0.449151,-0.559953,0.351741,-0.600828,-0.934599,0.122562,-0.170415,-3.723145,6.408691,-5.126953,0,0
21734,2024 10 23,05:27:11.101,-0.448688,-0.560051,0.352362,-0.600719,-0.935087,0.115726,-0.108402,-0.915527,6.408691,-6.591797,0,0
21735,2024 10 23,05:27:11.109,-0.448688,-0.560051,0.352362,-0.600719,-0.935087,0.115726,-0.108402,-0.915527,6.408691,-6.591797,0,0
21736,2024 10 23,05:27:11.117,-0.448153,-0.560174,0.352951,-0.600657,-0.939482,0.109378,-0.110843,0.061035,6.408691,-6.896973,0,0
21737,2024 10 23,05:27:11.126,-0.447588,-0.560266,0.353379,-0.600741,-0.934599,0.104495,-0.113285,1.831055,4.02832,-6.713867,0,0
21738,2024 10 23,05:27:11.134,-0.446919,-0.560382,0.35364,-0.600978,-0.934599,0.126469,-0.130375,4.760742,3.234863,-7.507324,0,0
21739,2024 10 23,05:27:11.142,-0.446192,-0.560462,0.353835,-0.601328,-0.970244,0.136723,-0.087893,5.371094,2.319336,-8.178711,0,0
21740,2024 10 23,05:27:11.151,-0.445426,-0.560449,0.354043,-0.601786,-0.955107,0.121586,-0.104984,4.516602,0.12207,-9.58252,0,0
21741,2024 10 23,05:27:11.159,-0.445426,-0.560449,0.354043,-0.601786,-0.955107,0.121586,-0.104984,4.516602,0.12207,-9.58252,0,0
21742,2024 10 23,05:27:11.167,-0.444667,-0.56032,0.354226,-0.602359,-0.911649,0.13184,-0.165044,5.432129,-0.12207,-10.375977,0,0
21743,2024 10 23,05:27:11.176,-0.443722,-0.560346,0.354596,-0.602814,-0.912625,0.132328,-0.165044,5.432129,4.638672,-11.84082,0,0
21744,2024 10 23,05:27:11.184,-0.442592,-0.560542,0.355249,-0.603078,-0.93704,0.144536,-0.169927,4.272461,8.850098,-13.305664,0,0
21745,2024 10 23,05:27:11.192,-0.441362,-0.560823,0.356226,-0.603142,-0.948271,0.1377,-0.152837,2.01416,12.756348,-14.648438,0,0
21746,2024 10 23,05:27:11.201,-0.440029,-0.56116,0.357475,-0.603064,-0.969756,0.142094,-0.133305,1.098633,15.563965,-16.235352,0,0
21747,2024 10 23,05:27:11.209,-0.440029,-0.56116,0.357475,-0.603064,-0.969756,0.142094,-0.133305,1.098633,15.563965,-16.235352,0,0
21748,2024 10 23,05:27:11.217,-0.438659,-0.561472,0.358927,-0.602908,-0.977569,0.141606,-0.13477,-0.671387,16.540527,-17.63916,0,0
21749,2024 10 23,05:27:11.226,-0.437239,-0.561686,0.360545,-0.602775,-1.000031,0.153325,-0.125004,-1.89209,16.784668,-19.775391,0,0
21750,2024 10 23,05:27:11.234,-0.435705,-0.561831,0.362385,-0.602647,-0.992706,0.124516,-0.092288,-2.990723,17.63916,-22.216797,0,0
21751,2024 10 23,05:27:11.242,-0.434042,-0.56198,0.3644,-0.602494,-1.01175,0.123051,-0.086428,-3.601074,19.287109,-23.803711,0,0
21752,2024 10 23,05:27:11.251,-0.432215,-0.562052,0.366586,-0.602413,-1.051302,0.142094,-0.080081,-3.173828,19.775391,-27.22168,0,0
21753,2024 10 23,05:27:11.259,-0.432215,-0.562052,0.366586,-0.602413,-1.051302,0.142094,-0.080081,-3.173828,19.775391,-27.22168,0,0
21754,2024 10 23,05:27:11.267,-0.43021,-0.561951,0.36897,-0.602488,-1.095737,0.150884,-0.102542,-4.272461,18.371582,-31.677246,0,0
21755,2024 10 23,05:27:11.276,-0.428074,-0.561451,0.371502,-0.602919,-1.064974,0.143559,-0.069826,-5.249023,14.404297,-37.414551,0,0
21756,2024 10 23,05:27:11.284,-0.425607,-0.560843,0.374498,-0.603378,-1.170934,0.196783,-0.132817,-5.432129,20.019531,-43.518066,0,0
21757,2024 10 23,05:27:11.292,-0.422699,-0.559905,0.377923,-0.604158,-1.193884,0.176763,-0.04004,-6.958008,15.869141,-53.710938,0,0
21758,2024 10 23,05:27:11.301,-0.419276,-0.558506,0.381892,-0.60534,-1.28666,0.256355,-0.108402,-7.507324,17.51709,-64.63623,0,0
21759,2024 10 23,05:27:11.309,-0.419276,-0.558506,0.381892,-0.60534,-1.28666,0.256355,-0.108402,-7.507324,17.51709,-64.63623,0,0
21760,2024 10 23,05:27:11.317,-0.415507,-0.556256,0.386556,-0.607049,-1.380413,0.215827,-0.070803,-13.977051,10.253906,-79.345703,0,0
21761,2024 10 23,05:27:11.326,-0.410719,-0.553385,0.391726,-0.609611,-1.448286,0.276376,-0.087893,-6.713867,8.361816,-97.351074,0,0
21762,2024 10 23,05:27:11.334,-0.405081,-0.549488,0.397919,-0.612889,-1.59917,0.2837,-0.093265,-10.437012,6.469727,-119.07959,0,0
21763,2024 10 23,05:27:11.342,-0.39821,-0.544552,0.405058,-0.617106,-1.697806,0.26075,-0.012207,-10.314941,1.159668,-142.944336,0,0
21764,2024 10 23,05:27:11.351,-0.38988,-0.53882,0.412365,-0.622593,-1.909238,0.638203,-0.0,0.366211,-5.371094,-164.18457,0,0
21765,2024 10 23,05:27:11.359,-0.381754,-0.530484,0.420975,-0.628991,-1.778863,0.505875,0.143559,0.366211,-5.371094,-164.18457,0,0
21766,2024 10 23,05:27:11.367,-0.381754,-0.530484,0.420975,-0.628991,-1.778863,0.505875,0.143559,-25.695801,-30.700684,-191.52832,0,0
21767,2024 10 23,05:27:11.376,-0.373639,-0.51951,0.431168,-0.63608,-1.672903,0.423353,-0.072268,-40.344238,-40.83252,-213.134766,0,0
21768,2024 10 23,05:27:11.384,-0.364836,-0.506963,0.442126,-0.643745,-1.683645,0.419935,-0.080569,-47.180176,-48.76709,-232.055664,0,0
21769,2024 10 23,05:27:11.392,-0.355599,-0.493082,0.453788,-0.651534,-1.539598,0.329112,0.10889,-54.931641,-53.833008,-246.276855,0,1
21770,2024 10 23,05:27:11.401,-0.346753,-0.478695,0.466974,-0.657685,-1.61919,0.005371,-0.349132,-75.805664,-38.818359,-242.919922,0,0
21771,2024 10 23,05:27:11.409,-0.337211,-0.464411,0.478323,-0.664694,-1.725639,0.104007,-0.2837,-50.292969,-56.57959,-238.952637,0,0
21772,2024 10 23,05:27:11.417,-0.337211,-0.464411,0.478323,-0.664694,-1.725639,0.104007,-0.2837,-50.292969,-56.57959,-238.952637,0,0
21773,2024 10 23,05:27:11.426,-0.329416,-0.448281,0.487124,-0.67323,-0.980987,0.323252,-0.023926,-38.818359,-104.492188,-227.600098,0,0
21774,2024 10 23,05:27:11.434,-0.325453,-0.432603,0.491466,-0.682199,0.278817,1.247108,0.779321,-2.563477,-136.108398,-154.663086,0,0
21775,2024 10 23,05:27:11.442,-0.326908,-0.423689,0.491603,-0.686983,-0.367199,1.44145,0.426283,-29.785156,-79.040527,-39.0625,0,0
21776,2024 10 23,05:27:11.451,-0.329896,-0.420323,0.49126,-0.687867,-0.647481,1.388226,0.050783,-7.995605,-59.204102,7.141113,0,0
21777,2024 10 23,05:27:11.459,-0.33635,-0.416472,0.487712,-0.689606,-0.415052,1.606983,0.754906,-23.4375,-94.421387,38.94043,0,0
21778,2024 10 23,05:27:11.467,-0.33635,-0.416472,0.487712,-0.689606,-0.415052,1.606983,0.754906,-23.4375,-94.421387,38.94043,0,0
21779,2024 10 23,05:27:11.476,-0.346841,-0.412146,0.485684,-0.688439,-0.050783,1.15482,0.354503,-57.739258,-100.219727,73.486328,0,0
21780,2024 10 23,05:27:11.484,-0.358048,-0.409857,0.481874,-0.686744,0.138188,1.273965,0.83108,-40.466309,-82.092285,101.318359,0,0
21781,2024 10 23,05:27:11.492,-0.369454,-0.410544,0.479077,-0.682234,0.056154,1.129917,0.606464,-56.091309,-42.96875,124.816895,0,0
21782,2024 10 23,05:27:11.501,-0.380908,-0.413318,0.476267,-0.6762,-0.018555,1.140172,0.691916,-53.039551,-22.644043,142.272949,0,0
21783,2024 10 23,05:27:11.509,-0.392696,-0.417942,0.473962,-0.668187,-0.182134,1.036653,0.606464,-64.39209,1.708984,161.865234,0,0
21784,2024 10 23,05:27:11.517,-0.392696,-0.417942,0.473962,-0.668187,-0.182134,1.036653,0.606464,-64.39209,1.708984,161.865234,0,0
21785,2024 10 23,05:27:11.526,-0.405045,-0.424085,0.471714,-0.658465,-0.302255,0.984893,0.63039,-67.993164,16.601563,182.067871,0,0
21786,2024 10 23,05:27:11.534,-0.418063,-0.431634,0.469546,-0.646872,-0.435072,0.89407,0.60744,-77.331543,34.179688,203.186035,0,0
21787,2024 10 23,05:27:11.542,-0.43155,-0.440513,0.467528,-0.633348,-0.602557,0.830103,0.602557,-83.618164,50.90332,222.045898,0,0
21788,2024 10 23,05:27:11.551,-0.445544,-0.450316,0.465828,-0.617828,-0.839381,0.746605,0.541032,-96.618652,66.223145,238.708496,0,0
21789,2024 10 23,05:27:11.559,-0.460271,-0.460366,0.464442,-0.600423,-1.083529,0.663106,0.52736,-112.609863,72.753906,252.685547,0,0
21790,2024 10 23,05:27:11.567,-0.460271,-0.460366,0.464442,-0.600423,-1.083529,0.663106,0.52736,-112.609863,72.753906,252.685547,0,0
21791,2024 10 23,05:27:11.576,-0.476006,-0.469891,0.463469,-0.581221,-1.256874,0.512223,0.540056,-133.850098,75.256348,264.099121,0,0
21792,2024 10 23,05:27:11.584,-0.492449,-0.478714,0.46303,-0.560294,-1.400922,0.331553,0.601581,-153.869629,79.040527,271.362305,0,0
21793,2024 10 23,05:27:11.592,-0.50906,-0.486747,0.463362,-0.537803,-1.499069,0.125492,0.686056,-171.75293,87.158203,272.583008,0,0
21794,2024 10 23,05:27:11.601,-0.525157,-0.494053,0.464807,-0.513883,-1.497116,-0.120121,0.68215,-186.462402,100.585938,267.700195,0,0
21795,2024 10 23,05:27:11.609,-0.539816,-0.500828,0.467538,-0.489058,-1.514206,-0.466811,0.76223,-191.40625,122.009277,254.516602,0,0
21796,2024 10 23,05:27:11.617,-0.539816,-0.500828,0.467538,-0.489058,-1.514206,-0.466811,0.76223,-191.40625,122.009277,254.516602,0,0
21797,2024 10 23,05:27:11.626,-0.551497,-0.508293,0.472214,-0.463145,-1.787652,-0.747093,0.618671,-184.082031,161.010742,238.525391,0,0
21798,2024 10 23,05:27:11.634,-0.560833,-0.515419,0.477872,-0.437548,-2.045473,-1.026887,0.551286,-175.65918,169.616699,217.468262,0,0
21799,2024 10 23,05:27:11.642,-0.568665,-0.521318,0.48361,-0.413483,-2.180242,-1.385296,0.506363,-167.297363,158.996582,194.213867,0,0
21800,2024 10 23,05:27:11.651,-0.575443,-0.525468,0.488713,-0.392311,-2.069399,-1.79986,0.583514,-150.756836,132.629395,165.466309,0,0
21801,2024 10 23,05:27:11.659,-0.580539,-0.528405,0.493321,-0.374696,-1.863826,-2.130924,0.672872,-125.0,115.05127,131.591797,0,0
21802,2024 10 23,05:27:11.667,-0.580539,-0.528405,0.493321,-0.374696,-1.863826,-2.130924,0.672872,-125.0,115.05127,131.591797,0,0
21803,2024 10 23,05:27:11.676,-0.583198,-0.530744,0.498144,-0.360615,-1.698782,-2.351146,0.639668,-94.360352,107.666016,93.200684,0,0
21804,2024 10 23,05:27:11.684,-0.583283,-0.532505,0.503491,-0.350308,-1.477096,-2.431715,0.519547,-64.51416,101.745605,50.78125,0,0
21805,2024 10 23,05:27:11.692,-0.578553,-0.533998,0.511831,-0.343732,-4.803369,-1.890194,-0.383801,-17.700195,150.20752,-31.555176,0,0
21806,2024 10 23,05:27:11.701,-0.577563,-0.524452,0.520696,-0.346766,-2.30427,-2.922452,-0.938994,-142.578125,-96.252441,-131.225586,0,0
21807,2024 10 23,05:27:11.709,-0.585882,-0.504627,0.522208,-0.35971,-2.320872,-2.230048,-1.53032,-92.529297,-183.898926,-173.034668,1,0
21808,2024 10 23,05:27:11.717,-0.585882,-0.504627,0.522208,-0.35971,-2.320872,-2.230048,-1.53032,-92.529297,-183.898926,-173.034668,0,0
21809,2024 10 23,05:27:11.726,-0.597505,-0.482258,0.521465,-0.372141,-0.92288,-1.92584,-1.879452,-124.023438,-270.019531,-129.577637,0,0
21810,2024 10 23,05:27:11.734,-0.607221,-0.471489,0.507514,-0.389114,-0.473159,0.785668,0.995148,80.871582,-245.544434,-41.748047,0,0
21811,2024 10 23,05:27:11.742,-0.612306,-0.464771,0.502626,-0.39552,-0.15186,0.309091,-1.064974,-62.255859,-110.717773,-43.762207,0,0
21812,2024 10 23,05:27:11.751,-0.61908,-0.453234,0.501096,-0.400278,0.143071,-0.510758,-1.717338,-30.639648,-105.34668,-69.885254,0,0
21813,2024 10 23,05:27:11.759,-0.615983,-0.452331,0.500077,-0.407289,-0.663594,-0.030274,0.202643,68.603516,9.033203,-53.527832,0,0
21814,2024 10 23,05:27:11.767,-0.609003,-0.45708,0.50249,-0.409508,-1.491256,0.435072,0.488296,52.734375,66.650391,-25.20752,0,0
21815,2024 10 23,05:27:11.776,-0.609003,-0.45708,0.50249,-0.409508,-1.491256,0.435072,0.488296,52.734375,66.650391,-25.20752,0,0
21816,2024 10 23,05:27:11.784,-0.608523,-0.456018,0.503912,-0.409659,-0.933134,0.30079,-0.252937,-23.4375,-16.784668,-19.836426,0,0
21817,2024 10 23,05:27:11.792,-0.608826,-0.452995,0.504771,-0.411501,-0.81106,0.13184,-0.281747,-9.216309,-6.774902,-37.536621,0,0
21818,2024 10 23,05:27:11.801,-0.605733,-0.45323,0.507349,-0.412635,-1.270058,0.172857,0.209479,16.174316,39.18457,-32.287598,0,0
21819,2024 10 23,05:27:11.809,-0.603988,-0.452536,0.509195,-0.413679,-1.044954,0.107425,-0.252937,-4.760742,-1.342773,-29.35791,0,0
21820,2024 10 23,05:27:11.817,-0.603064,-0.451223,0.509625,-0.415926,-0.915067,0.187017,-0.000488,12.084961,-2.502441,-29.052734,0,0
21821,2024 10 23,05:27:11.826,-0.603064,-0.451223,0.509625,-0.415926,-0.915067,0.187017,-0.000488,12.084961,-2.502441,-29.052734,0,0
21822,2024 10 23,05:27:11.834,-0.601375,-0.450892,0.511043,-0.416989,-1.060579,0.141118,-0.056154,1.525879,12.268066,-23.803711,0,0
21823,2024 10 23,05:27:11.842,-0.600799,-0.449777,0.511789,-0.418106,-1.000519,0.093265,-0.080569,-0.244141,-6.652832,-19.592285,0,0
21824,2024 10 23,05:27:11.851,-0.600332,-0.449034,0.51198,-0.419341,-1.004425,0.15479,-0.002441,2.441406,-4.882813,-15.014648,0,0
21825,2024 10 23,05:27:11.859,-0.600278,-0.448064,0.5122,-0.420186,-1.004425,0.118168,-0.140141,-2.868652,-9.094238,-12.634277,0,0
21826,2024 10 23,05:27:11.867,-0.600412,-0.447079,0.511973,-0.421318,-0.95706,0.156743,-0.106449,0.732422,-12.268066,-11.535645,0,0
21827,2024 10 23,05:27:11.876,-0.600412,-0.447079,0.511973,-0.421318,-0.95706,0.156743,-0.106449,0.732422,-12.268066,-11.535645,0,0
21828,2024 10 23,05:27:11.884,-0.600411,-0.446333,0.511996,-0.422081,-1.001495,0.145512,-0.114261,-1.159668,-5.554199,-9.521484,0,0
21829,2024 10 23,05:27:11.892,-0.600325,-0.445774,0.512064,-0.422713,-1.050325,0.181646,-0.052736,-0.12207,-5.187988,-8.483887,0,0
21830,2024 10 23,05:27:11.901,-0.600566,-0.444875,0.512098,-0.423276,-1.039582,0.185553,-0.092288,-6.04248,-9.765625,-8.728027,0,0
21831,2024 10 23,05:27:11.909,-0.601165,-0.443615,0.51211,-0.423732,-0.970244,0.12598,-0.129887,-9.643555,-11.657715,-7.629395,0,0
21832,2024 10 23,05:27:11.917,-0.601755,-0.442488,0.512141,-0.424037,-0.912137,0.123051,-0.161626,-8.483887,-9.094238,-5.67627,0,0
21833,2024 10 23,05:27:11.926,-0.601755,-0.442488,0.512141,-0.424037,-0.912137,0.123051,-0.161626,-8.483887,-9.094238,-5.67627,0,0
21834,2024 10 23,05:27:11.934,-0.60212,-0.441701,0.512293,-0.424156,-0.936552,0.125492,-0.123051,-7.019043,-3.417969,-4.272461,0,0
21835,2024 10 23,05:27:11.942,-0.602305,-0.441191,0.512549,-0.424113,-0.965361,0.121097,-0.099124,-5.615234,-1.159668,-2.807617,0,0
21836,2024 10 23,05:27:11.951,-0.602582,-0.44071,0.512664,-0.424082,-0.971221,0.125004,-0.096194,-5.493164,-3.601074,-1.647949,0,0
21837,2024 10 23,05:27:11.959,-0.603076,-0.440138,0.51259,-0.424064,-0.938994,0.123539,-0.114261,-6.408691,-6.530762,-0.427246,0,0
21838,2024 10 23,05:27:11.967,-0.603586,-0.439643,0.512481,-0.423982,-0.946318,0.13477,-0.130375,-5.615234,-4.821777,0.976563,0,0
21839,2024 10 23,05:27:11.976,-0.603586,-0.439643,0.512481,-0.423982,-0.946318,0.13477,-0.130375,-5.615234,-4.821777,0.976563,0,0
21840,2024 10 23,05:27:11.984,-0.604071,-0.439269,0.512384,-0.423797,-0.950224,0.141118,-0.10889,-6.286621,-4.089355,2.197266,0,0
21841,2024 10 23,05:27:11.992,-0.604571,-0.438915,0.512319,-0.423529,-0.959014,0.140141,-0.117191,-6.408691,-3.356934,2.319336,0,0
21842,2024 10 23,05:27:12.001,-0.605121,-0.438493,0.512225,-0.423294,-0.934111,0.135746,-0.10303,-7.080078,-5.065918,1.953125,0,0
21843,2024 10 23,05:27:12.009,-0.605663,-0.438044,0.512171,-0.423049,-0.934599,0.135746,-0.116703,-6.347656,-3.845215,1.525879,0,0
21844,2024 10 23,05:27:12.017,-0.606155,-0.437635,0.512127,-0.422821,-0.937529,0.13184,-0.102054,-6.530762,-3.845215,1.525879,0,0
21845,2024 10 23,05:27:12.026,-0.606155,-0.437635,0.512127,-0.422821,-0.937529,0.13184,-0.102054,-6.530762,-3.845215,1.525879,0,0
21846,2024 10 23,05:27:12.034,-0.60662,-0.437208,0.512101,-0.422628,-0.944365,0.145024,-0.129398,-6.286621,-3.845215,0.976563,0,0
21847,2024 10 23,05:27:12.042,-0.607062,-0.436705,0.51212,-0.42249,-0.924833,0.147465,-0.122074,-6.958008,-3.662109,-0.671387,0,0
21848,2024 10 23,05:27:12.051,-0.60744,-0.436184,0.512312,-0.422253,-0.916532,0.120121,-0.148442,-8.117676,-1.586914,-0.671387,0,0
21849,2024 10 23,05:27:12.059,-0.607685,-0.435757,0.512531,-0.422074,-0.90286,0.114261,-0.151372,-5.92041,-0.366211,-1.342773,0,0
21850,2024 10 23,05:27:12.067,-0.607794,-0.435434,0.512796,-0.421928,-0.910672,0.117191,-0.160161,-4.699707,1.403809,-1.77002,0,0
21851,2024 10 23,05:27:12.076,-0.607794,-0.435434,0.512796,-0.421928,-0.910672,0.117191,-0.160161,-4.699707,1.403809,-1.77002,0,0
21852,2024 10 23,05:27:12.084,-0.607587,-0.43531,0.513161,-0.421911,-0.934111,0.143071,-0.127445,-1.037598,4.272461,-4.272461,0,0
21853,2024 10 23,05:27:12.092,-0.607258,-0.435168,0.513661,-0.421923,-0.96585,0.146489,-0.129887,-1.89209,5.310059,-5.371094,0,0
21854,2024 10 23,05:27:12.101,-0.606821,-0.434993,0.514325,-0.421923,-1.00589,0.162114,-0.099612,-2.319336,7.141113,-7.385254,0,0
21855,2024 10 23,05:27:12.109,-0.606479,-0.434598,0.515088,-0.421892,-0.991241,0.154302,-0.124027,-6.408691,5.004883,-7.8125,0,0
21856,2024 10 23,05:27:12.117,-0.60619,-0.433977,0.516117,-0.421689,-0.992218,0.159673,-0.135746,-9.58252,8.972168,-9.70459,0,0
21857,2024 10 23,05:27:12.126,-0.60619,-0.433977,0.516117,-0.421689,-0.992218,0.159673,-0.135746,-9.58252,8.972168,-9.70459,0,0
21858,2024 10 23,05:27:12.134,-0.605588,-0.433512,0.517522,-0.42131,-1.054231,0.209967,-0.126469,-8.972168,14.465332,-11.169434,0,0
21859,2024 10 23,05:27:12.142,-0.604713,-0.432875,0.519439,-0.420862,-1.147984,0.229011,-0.037111,-13.916016,19.104004,-16.357422,0,0
21860,2024 10 23,05:27:12.151,-0.603366,-0.431827,0.522146,-0.420522,-1.245643,0.259774,0.010254,-14.343262,23.864746,-28.198242,0,0
21861,2024 10 23,05:27:12.159,-0.601533,-0.429843,0.525593,-0.420886,-1.540086,0.41261,-0.057131,-18.127441,24.536133,-45.776367,0,0
21862,2024 10 23,05:27:12.167,-0.59905,-0.426392,0.529578,-0.422937,-1.707083,0.491226,-0.067873,-20.812988,10.314941,-75.98877,0,0
21863,2024 10 23,05:27:12.176,-0.596751,-0.420335,0.533705,-0.427042,-1.712455,0.486343,-0.15772,-28.259277,-12.573242,-105.285645,0,0
21864,2024 10 23,05:27:12.184,-0.596751,-0.420335,0.533705,-0.427042,-1.712455,0.486343,-0.15772,-28.259277,-12.573242,-105.285645,0,0
21865,2024 10 23,05:27:12.192,-0.594675,-0.41173,0.53839,-0.432407,-1.704642,0.403821,-0.274911,-40.466309,-25.57373,-129.516602,0,0
21866,2024 10 23,05:27:12.201,-0.592448,-0.401867,0.542542,-0.439496,-1.489303,0.603534,0.036134,-34.057617,-44.86084,-146.789551,0,0
21867,2024 10 23,05:27:12.209,-0.590635,-0.389704,0.5479,-0.446191,-1.376019,0.501968,-0.133793,-70.068359,-43.945313,-160.095215,0,0
21868,2024 10 23,05:27:12.217,-0.589161,-0.375852,0.554154,-0.452258,-1.411664,0.35548,-0.375011,-80.993652,-47.058105,-167.480469,0,0
21869,2024 10 23,05:27:12.226,-0.587815,-0.361517,0.559546,-0.459006,-1.499069,0.519547,-0.116703,-79.89502,-62.5,-169.372559,0,1
21870,2024 10 23,05:27:12.234,-0.587815,-0.361517,0.559546,-0.459006,-1.499069,0.519547,-0.116703,-79.89502,-62.5,-169.372559,0,0
21871,2024 10 23,05:27:12.242,-0.588458,-0.34617,0.563852,-0.464708,-1.468307,0.877957,-0.3296,-91.003418,-87.097168,-150.57373,0,0
21872,2024 10 23,05:27:12.251,-0.593648,-0.328681,0.565731,-0.468507,-1.160192,1.032746,-0.4756,-137.756348,-143.859863,-114.013672,0,0
21873,2024 10 23,05:27:12.259,-0.60385,-0.310436,0.562478,-0.471819,0.88284,1.251503,0.678732,-117.980957,-210.81543,-67.504883,0,0
21874,2024 10 23,05:27:12.267,-0.610644,-0.299366,0.563321,-0.469216,1.119663,1.549852,1.548387,-126.525879,-28.686523,-14.221191,0,0
21875,2024 10 23,05:27:12.276,-0.610555,-0.294684,0.576849,-0.455664,-0.508316,1.651906,0.250008,-206.542969,129.089355,17.456055,0,0
21876,2024 10 23,05:27:12.284,-0.610555,-0.294684,0.576849,-0.455664,-0.508316,1.651906,0.250008,-206.542969,129.089355,17.456055,0,0
21877,2024 10 23,05:27:12.292,-0.614439,-0.286145,0.588455,-0.440802,-0.358898,1.309122,0.536149,-241.943359,33.508301,20.507813,0,0
21878,2024 10 23,05:27:12.301,-0.619998,-0.276815,0.598531,-0.425131,0.076174,1.030305,0.755394,-243.164063,43.334961,42.84668,0,0
21879,2024 10 23,05:27:12.309,-0.624222,-0.270559,0.608993,-0.407765,-0.116214,0.834986,0.452651,-216.308594,71.655273,69.030762,0,0
21880,2024 10 23,05:27:12.317,-0.627413,-0.26805,0.617751,-0.391006,-0.459487,0.87405,0.386731,-177.55127,79.89502,91.003418,0,0
21881,2024 10 23,05:27:12.326,-0.630994,-0.267837,0.624322,-0.374608,-0.750999,0.756371,0.127934,-151.855469,62.194824,112.548828,0,0
21882,2024 10 23,05:27:12.334,-0.630994,-0.267837,0.624322,-0.374608,-0.750999,0.756371,0.127934,-151.855469,62.194824,112.548828,0,0
21883,2024 10 23,05:27:12.342,-0.636237,-0.269219,0.62725,-0.359556,-0.736839,0.697287,0.210456,-118.896484,26.916504,132.995605,0,0
21884,2024 10 23,05:27:12.351,-0.642258,-0.272702,0.62767,-0.345207,-0.758812,0.620136,0.165532,-90.881348,15.014648,154.541016,0,0
21885,2024 10 23,05:27:12.359,-0.648485,-0.278479,0.626178,-0.331388,-0.848659,0.624531,0.227058,-65.063477,7.324219,173.461914,0,0
21886,2024 10 23,05:27:12.367,-0.654838,-0.285785,0.623532,-0.317366,-0.96878,0.575213,0.215827,-54.6875,5.92041,189.51416,0,0
21887,2024 10 23,05:27:12.376,-0.661251,-0.29393,0.620229,-0.302768,-1.072298,0.535173,0.281747,-52.91748,5.310059,201.538086,0,0
21888,2024 10 23,05:27:12.384,-0.661251,-0.29393,0.620229,-0.302768,-1.072298,0.535173,0.281747,-52.91748,5.310059,201.538086,0,0
21889,2024 10 23,05:27:12.392,-0.667618,-0.301989,0.617044,-0.286958,-1.193884,0.507828,0.298349,-65.917969,12.329102,208.679199,0,0
21890,2024 10 23,05:27:12.401,-0.673952,-0.30888,0.614606,-0.269521,-1.261757,0.45558,0.350597,-92.346191,19.287109,208.679199,0,0
21891,2024 10 23,05:27:12.409,-0.680266,-0.313515,0.613533,-0.250048,-1.243202,0.350597,0.425794,-130.92041,32.836914,203.125,0,0
21892,2024 10 23,05:27:12.417,-0.685915,-0.315472,0.614797,-0.228085,-1.235878,0.207038,0.470229,-174.621582,58.654785,193.115234,0,0
21893,2024 10 23,05:27:12.426,-0.690629,-0.314349,0.618647,-0.203695,-1.145054,-0.156743,0.476577,-218.811035,87.585449,178.771973,0,0
21894,2024 10 23,05:27:12.434,-0.690629,-0.314349,0.618647,-0.203695,-1.145054,-0.156743,0.476577,-218.811035,87.585449,178.771973,0,0
21895,2024 10 23,05:27:12.442,-0.693239,-0.310827,0.625471,-0.177741,-1.342326,-0.604022,0.340342,-240.722656,128.845215,159.851074,0,0
21896,2024 10 23,05:27:12.451,-0.693638,-0.305972,0.634109,-0.152162,-1.76812,-0.858425,0.171392,-241.516113,147.644043,138.244629,0,0
21897,2024 10 23,05:27:12.459,-0.693758,-0.299536,0.642285,-0.128247,-2.312571,-1.370159,0.254891,-237.792969,129.211426,117.004395,0,0
21898,2024 10 23,05:27:12.467,-0.692576,-0.287533,0.652401,-0.109707,-1.326212,-2.818445,-1.232948,-238.342285,126.159668,2.197266,0,0
21899,2024 10 23,05:27:12.476,-0.699029,-0.274228,0.652348,-0.102953,-2.086489,-3.926878,0.910184,-153.991699,-50.170898,-27.893066,0,0
21900,2024 10 23,05:27:12.484,-0.699029,-0.274228,0.652348,-0.102953,-2.086489,-3.926878,0.910184,-153.991699,-50.170898,-27.893066,0,0
21901,2024 10 23,05:27:12.492,-0.701074,-0.264121,0.654413,-0.102365,-2.227119,-4.429823,0.069338,-93.200684,-7.629395,-56.152344,0,0
21902,2024 10 23,05:27:12.501,-0.702672,-0.257799,0.654045,-0.109622,-1.856014,-3.105564,-0.514176,32.165527,-61.767578,-82.580566,1,0
21903,2024 10 23,05:27:12.509,-0.70541,-0.263528,0.645875,-0.125676,-1.12064,0.814966,0.945341,200.622559,-135.925293,-27.526855,0,0
21904,2024 10 23,05:27:12.517,-0.708702,-0.267133,0.639919,-0.129941,-1.126499,0.761742,0.94583,-6.774902,-68.481445,16.479492,0,0
21905,2024 10 23,05:27:12.526,-0.714434,-0.263313,0.634997,-0.130496,-0.869167,0.457533,-1.29252,-24.108887,-114.013672,-25.146484,0,0
21906,2024 10 23,05:27:12.534,-0.714434,-0.263313,0.634997,-0.130496,-0.869167,0.457533,-1.29252,-24.108887,-114.013672,-25.146484,0,0
21907,2024 10 23,05:27:12.542,-0.721288,-0.259121,0.627875,-0.135544,0.066897,-0.043947,-0.54738,6.469727,-97.351074,-41.625977,0,0
21908,2024 10 23,05:27:12.551,-0.721012,-0.258297,0.627815,-0.13883,-0.629902,-0.20069,-0.625996,8.789063,8.789063,-26.672363,0,0
21909,2024 10 23,05:27:12.559,-0.718334,-0.260686,0.629312,-0.141438,-1.020051,0.413587,0.205084,54.138184,34.118652,-9.399414,0,0
21910,2024 10 23,05:27:12.567,-0.716553,-0.261351,0.630916,-0.142102,-0.890164,0.351573,-0.156743,0.366211,18.798828,-12.390137,0,0
21911,2024 10 23,05:27:12.576,-0.715491,-0.260361,0.632364,-0.142828,-0.920927,0.184088,-0.044923,-1.403809,19.592285,-21.484375,0,0
21912,2024 10 23,05:27:12.584,-0.712669,-0.260321,0.635325,-0.14387,-1.198767,0.235847,0.031739,13.793945,45.349121,-22.277832,0,0
21913,2024 10 23,05:27:12.592,-0.712669,-0.260321,0.635325,-0.14387,-1.198767,0.235847,0.031739,13.793945,45.349121,-22.277832,0,0
21914,2024 10 23,05:27:12.601,-0.71062,-0.260026,0.637357,-0.145543,-1.146519,0.226569,-0.076174,12.573242,16.540527,-26.550293,0,0
21915,2024 10 23,05:27:12.609,-0.709789,-0.259283,0.638019,-0.148003,-0.976592,0.21778,-0.011719,12.817383,2.868652,-29.35791,0,0
21916,2024 10 23,05:27:12.617,-0.708506,-0.258572,0.639212,-0.150224,-0.974151,0.177252,-0.129398,11.352539,12.756348,-28.869629,0,0
21917,2024 10 23,05:27:12.626,-0.707282,-0.257897,0.640351,-0.152289,-0.906766,0.18067,-0.127445,10.803223,11.047363,-26.367188,0,0
21918,2024 10 23,05:27:12.634,-0.706038,-0.25716,0.641671,-0.153747,-0.897,0.108402,-0.149419,5.432129,17.211914,-22.338867,0,0
21919,2024 10 23,05:27:12.642,-0.706038,-0.25716,0.641671,-0.153747,-0.897,0.108402,-0.149419,5.432129,17.211914,-22.338867,0,0
21920,2024 10 23,05:27:12.651,-0.704292,-0.257018,0.643305,-0.155158,-0.975616,0.153813,-0.081545,13.793945,22.827148,-19.40918,0,0
21921,2024 10 23,05:27:12.659,-0.702595,-0.257092,0.6448,-0.156517,-1.001495,0.187506,-0.028809,11.535645,20.141602,-17.39502,0,0
21922,2024 10 23,05:27:12.667,-0.70115,-0.256979,0.646149,-0.157615,-1.053255,0.161138,-0.012696,8.789063,17.272949,-15.991211,0,0
21923,2024 10 23,05:27:12.676,-0.700059,-0.256893,0.647083,-0.158767,-1.072298,0.182623,0.001953,9.338379,9.70459,-14.221191,0,0
21924,2024 10 23,05:27:12.684,-0.699528,-0.256641,0.647491,-0.15985,-1.066439,0.210944,-0.001953,5.187988,1.525879,-12.390137,0,0
21925,2024 10 23,05:27:12.692,-0.699528,-0.256641,0.647491,-0.15985,-1.066439,0.210944,-0.001953,5.187988,1.525879,-12.390137,0,0
21926,2024 10 23,05:27:12.701,-0.699395,-0.256141,0.647647,-0.160597,-1.016633,0.163091,-0.075686,1.159668,-0.488281,-9.94873,0,0
21927,2024 10 23,05:27:12.709,-0.699301,-0.255741,0.647748,-0.161236,-0.990265,0.18067,-0.055177,1.525879,-0.671387,-8.178711,0,0
21928,2024 10 23,05:27:12.717,-0.699265,-0.255289,0.647871,-0.161615,-0.987335,0.161626,-0.070315,-1.586914,-0.610352,-6.591797,0,0
21929,2024 10 23,05:27:12.726,-0.699314,-0.254868,0.647901,-0.161944,-0.967315,0.153325,-0.052736,-0.915527,-1.708984,-5.554199,0,0
21930,2024 10 23,05:27:12.734,-0.699404,-0.254486,0.647898,-0.16217,-0.968291,0.146001,-0.06885,-1.831055,-2.01416,-4.150391,0,0
21931,2024 10 23,05:27:12.742,-0.699404,-0.254486,0.647898,-0.16217,-0.968291,0.146001,-0.06885,-1.831055,-2.01416,-4.150391,0,0
21932,2024 10 23,05:27:12.751,-0.699589,-0.254151,0.647776,-0.162381,-0.952178,0.156743,-0.061525,-1.281738,-3.356934,-3.356934,0,0
21933,2024 10 23,05:27:12.759,-0.699775,-0.253841,0.647667,-0.162504,-0.949736,0.152837,-0.082034,-2.197266,-2.929688,-2.441406,0,0
21934,2024 10 23,05:27:12.767,-0.699974,-0.253544,0.647563,-0.162522,-0.942412,0.145512,-0.080569,-2.563477,-2.258301,-1.403809,0,0
21935,2024 10 23,05:27:12.776,-0.700119,-0.253354,0.647483,-0.162513,-0.948271,0.151372,-0.06885,-1.708984,-1.464844,-0.671387,0,0
21936,2024 10 23,05:27:12.784,-0.700255,-0.253195,0.647407,-0.16248,-0.941923,0.149419,-0.067873,-1.831055,-1.525879,-0.427246,0,0
21937,2024 10 23,05:27:12.792,-0.700255,-0.253195,0.647407,-0.16248,-0.941923,0.149419,-0.067873,-1.831055,-1.525879,-0.427246,0,0
21938,2024 10 23,05:27:12.801,-0.700382,-0.253067,0.64733,-0.162439,-0.93704,0.146977,-0.079104,-1.281738,-1.342773,-0.12207,0,0
21939,2024 10 23,05:27:12.809,-0.700482,-0.253018,0.647227,-0.162493,-0.933134,0.15772,-0.06885,0.244141,-1.342773,-0.427246,0,0
21940,2024 10 23,05:27:12.817,-0.70052,-0.252998,0.647164,-0.162613,-0.934111,0.158696,-0.080081,0.854492,-0.854492,-1.159668,0,0
21941,2024 10 23,05:27:12.826,-0.700523,-0.252946,0.647137,-0.162787,-0.930692,0.160649,-0.075686,0.854492,-0.305176,-2.01416,0,0
21942,2024 10 23,05:27:12.834,-0.700454,-0.252885,0.647181,-0.163002,-0.929716,0.161626,-0.083987,1.281738,0.488281,-2.746582,0,0
21943,2024 10 23,05:27:12.842,-0.700454,-0.252885,0.647181,-0.163002,-0.929716,0.161626,-0.083987,1.281738,0.488281,-2.746582,0,0
21944,2024 10 23,05:27:12.851,-0.700369,-0.252768,0.647267,-0.163206,-0.920927,0.146489,-0.084475,0.305176,1.403809,-2.990723,0,0
21945,2024 10 23,05:27:12.859,-0.700128,-0.252722,0.647497,-0.1634,-0.947783,0.146977,-0.072268,1.647949,3.662109,-2.990723,0,0
21946,2024 10 23,05:27:12.867,-0.699907,-0.252705,0.647684,-0.163634,-0.94583,0.148442,-0.057619,1.708984,2.258301,-2.990723,0,0
21947,2024 10 23,05:27:12.876,-0.699753,-0.252659,0.6478,-0.163902,-0.940458,0.152837,-0.076174,1.953125,1.159668,-3.234863,0,0
21948,2024 10 23,05:27:12.884,-0.699639,-0.252607,0.647866,-0.164205,-0.929716,0.15186,-0.083499,1.953125,0.732422,-3.356934,0,0
21949,2024 10 23,05:27:12.892,-0.699639,-0.252607,0.647866,-0.164205,-0.929716,0.15186,-0.083499,1.953125,0.732422,-3.356934,0,0
21950,2024 10 23,05:27:12.901,-0.699445,-0.252564,0.648012,-0.164521,-0.943388,0.155278,-0.075198,2.258301,2.319336,-3.90625,0,0
21951,2024 10 23,05:27:12.909,-0.699226,-0.252469,0.648212,-0.164815,-0.943388,0.153813,-0.087405,1.281738,2.502441,-4.150391,0,0
21952,2024 10 23,05:27:12.917,-0.698972,-0.252339,0.648466,-0.165089,-0.938505,0.149419,-0.084964,1.281738,3.601074,-4.577637,0,0
21953,2024 10 23,05:27:12.926,-0.698611,-0.252248,0.648813,-0.165393,-0.954619,0.158208,-0.068361,1.953125,4.882813,-5.004883,0,0
21954,2024 10 23,05:27:12.934,-0.698225,-0.252131,0.64919,-0.16572,-0.955107,0.154302,-0.067873,1.586914,4.943848,-5.554199,0,0
21955,2024 10 23,05:27:12.942,-0.698225,-0.252131,0.64919,-0.16572,-0.955107,0.154302,-0.067873,1.586914,4.943848,-5.554199,0,0
21956,2024 10 23,05:27:12.951,-0.69788,-0.251928,0.649551,-0.166069,-0.953642,0.147954,-0.079104,1.281738,4.333496,-6.103516,0,0
21957,2024 10 23,05:27:12.959,-0.697484,-0.25175,0.649942,-0.166473,-0.966826,0.151372,-0.063478,2.01416,4.882813,-6.591797,0,0
21958,2024 10 23,05:27:12.967,-0.697129,-0.251499,0.650308,-0.166908,-0.975127,0.150395,-0.063478,1.281738,3.845215,-7.263184,0,0
21959,2024 10 23,05:27:12.976,-0.696799,-0.251228,0.650642,-0.167391,-0.980499,0.15479,-0.067873,1.953125,3.295898,-7.69043,0,0
21960,2024 10 23,05:27:12.984,-0.696518,-0.250915,0.650915,-0.167972,-0.994171,0.17188,-0.059572,1.831055,2.075195,-8.605957,0,0
21961,2024 10 23,05:27:12.992,-0.696274,-0.250497,0.651182,-0.168572,-1.001007,0.170415,-0.045412,1.159668,1.586914,-9.58252,0,0
21962,2024 10 23,05:27:13.001,-0.696274,-0.250497,0.651182,-0.168572,-1.001007,0.170415,-0.045412,1.159668,1.586914,-9.58252,0,0
21963,2024 10 23,05:27:13.009,-0.696064,-0.24998,0.651433,-0.169233,-1.013703,0.173345,-0.057131,0.427246,0.610352,-10.742188,0,0
21964,2024 10 23,05:27:13.017,-0.695869,-0.249341,0.651719,-0.169873,-1.024934,0.172369,-0.04004,-0.427246,1.281738,-11.291504,0,0
21965,2024 10 23,05:27:13.026,-0.695665,-0.248646,0.652035,-0.170517,-1.062044,0.204596,-0.04297,-1.220703,0.610352,-12.084961,0,0
21966,2024 10 23,05:27:13.034,-0.695566,-0.247683,0.652377,-0.171013,-1.044954,0.162603,-0.020997,-6.225586,0.366211,-12.634277,0,0
21967,2024 10 23,05:27:13.042,-0.695393,-0.246636,0.652867,-0.171361,-1.047395,0.185064,-0.026856,-6.774902,2.258301,-12.878418,0,0
21968,2024 10 23,05:27:13.051,-0.695393,-0.246636,0.652867,-0.171361,-1.047395,0.185064,-0.026856,-6.774902,2.258301,-12.878418,0,0
21969,2024 10 23,05:27:13.059,-0.695073,-0.245532,0.653572,-0.171557,-1.082064,0.224616,-0.055666,-7.446289,6.774902,-13.183594,0,0
21970,2024 10 23,05:27:13.067,-0.694619,-0.244236,0.654556,-0.171495,-1.084994,0.217292,-0.033204,-13.000488,10.559082,-13.427734,0,0
21971,2024 10 23,05:27:13.076,-0.693256,-0.242903,0.656542,-0.171309,-1.317423,0.350597,-0.052736,-10.986328,29.724121,-19.40918,0,0
21972,2024 10 23,05:27:13.084,-0.691042,-0.241047,0.659482,-0.17158,-1.341349,0.375988,0.13477,-19.775391,32.958984,-33.203125,0,0
21973,2024 10 23,05:27:13.092,-0.688466,-0.237206,0.66339,-0.172223,-1.650441,0.43849,0.063967,-23.010254,43.640137,-59.387207,0,0
21974,2024 10 23,05:27:13.101,-0.688466,-0.237206,0.66339,-0.172223,-1.650441,0.43849,0.063967,-23.010254,43.640137,-59.387207,0,0
21975,2024 10 23,05:27:13.109,-0.686317,-0.23057,0.667307,-0.174661,-1.905332,0.52443,-0.020997,-40.466309,20.141602,-95.64209,0,0
21976,2024 10 23,05:27:13.117,-0.685126,-0.221126,0.67026,-0.180161,-1.953673,0.629902,-0.113285,-35.27832,-9.338379,-138.549805,0,0
21977,2024 10 23,05:27:13.126,-0.685188,-0.208213,0.67221,-0.187875,-1.782769,0.474624,-0.070315,-48.400879,-36.682129,-176.086426,0,0
21978,2024 10 23,05:27:13.134,-0.685555,-0.193447,0.673694,-0.196796,-1.628956,0.546892,-0.067385,-46.203613,-43.945313,-190.856934,0,0
21979,2024 10 23,05:27:13.142,-0.685547,-0.178456,0.674875,-0.206695,-1.59331,0.747093,0.068361,-52.490234,-50.231934,-204.284668,0,0
21980,2024 10 23,05:27:13.151,-0.685547,-0.178456,0.674875,-0.206695,-1.59331,0.747093,0.068361,-52.490234,-50.231934,-204.284668,0,0
21981,2024 10 23,05:27:13.159,-0.686799,-0.160273,0.675639,-0.214784,-1.48442,0.362804,-0.165044,-94.848633,-67.504883,-205.871582,0,0
21982,2024 10 23,05:27:13.167,-0.688299,-0.141616,0.675604,-0.223044,-1.448286,0.390149,-0.069826,-78.796387,-73.547363,-209.16748,0,1
21983,2024 10 23,05:27:13.176,-0.690709,-0.123357,0.674226,-0.230487,-1.29252,0.657247,-0.234382,-88.317871,-96.923828,-190.002441,0,0
21984,2024 10 23,05:27:13.184,-0.69735,-0.107818,0.667677,-0.237246,-0.040529,1.677786,0.778832,-50.354004,-175.720215,-134.399414,0,0
21985,2024 10 23,05:27:13.192,-0.704998,-0.095107,0.662516,-0.234531,0.114261,1.637745,0.44142,-139.648438,-102.172852,-35.15625,0,0
21986,2024 10 23,05:27:13.201,-0.704998,-0.095107,0.662516,-0.234531,0.114261,1.637745,0.44142,-139.648438,-102.172852,-35.15625,0,0
21987,2024 10 23,05:27:13.209,-0.709625,-0.086416,0.661657,-0.22622,0.018067,1.242225,0.680685,-135.620117,-54.626465,15.563965,0,0
21988,2024 10 23,05:27:13.217,-0.712501,-0.077782,0.663075,-0.215925,-0.069826,1.028352,0.549821,-168.212891,-16.479492,17.456055,0,0
21989,2024 10 23,05:27:13.226,-0.714142,-0.068761,0.665952,-0.204403,-0.082034,1.005402,0.597186,-161.376953,-0.244141,26.062012,0,0
21990,2024 10 23,05:27:13.234,-0.715303,-0.061884,0.669241,-0.191386,-0.205573,1.026887,0.604999,-169.73877,11.352539,56.152344,0,0
21991,2024 10 23,05:27:13.242,-0.716572,-0.056642,0.67236,-0.176773,-0.126469,0.877468,0.534196,-156.738281,10.803223,80.322266,0,0
21992,2024 10 23,05:27:13.251,-0.716572,-0.056642,0.67236,-0.176773,-0.126469,0.877468,0.534196,-156.738281,10.803223,80.322266,0,0
21993,2024 10 23,05:27:13.259,-0.717469,-0.053732,0.675429,-0.161702,-0.187017,0.775414,0.54152,-145.080566,23.803711,102.294922,0,0
21994,2024 10 23,05:27:13.267,-0.717881,-0.053127,0.678599,-0.146042,-0.379894,0.705588,0.39845,-126.586914,28.320313,124.206543,0,0
21995,2024 10 23,05:27:13.276,-0.718622,-0.054882,0.680921,-0.130064,-0.514664,0.670919,0.386731,-111.328125,22.216797,146.66748,0,0
21996,2024 10 23,05:27:13.284,-0.719782,-0.058627,0.682353,-0.113456,-0.605976,0.621601,0.357433,-98.327637,14.709473,168.518066,0,0
21997,2024 10 23,05:27:13.292,-0.721141,-0.064308,0.683064,-0.09615,-0.677755,0.600604,0.385266,-88.806152,12.145996,190.490723,0,0
21998,2024 10 23,05:27:13.301,-0.721141,-0.064308,0.683064,-0.09615,-0.677755,0.600604,0.385266,-88.806152,12.145996,190.490723,0,0
21999,2024 10 23,05:27:13.309,-0.722172,-0.071435,0.683611,-0.077718,-0.823267,0.54152,0.389172,-86.730957,16.967773,210.449219,0,0
22000,2024 10 23,05:27:13.317,-0.722809,-0.079165,0.684045,-0.057984,-0.967315,0.379894,0.429212,-94.055176,20.080566,224.304199,0,0
22001,2024 10 23,05:27:13.326,-0.722964,-0.086533,0.684436,-0.037185,-1.059114,0.142582,0.511246,-105.529785,24.658203,229.125977,0,0
22002,2024 10 23,05:27:13.334,-0.72221,-0.093041,0.685206,-0.015755,-1.144566,-0.017579,0.572283,-117.248535,36.804199,226.501465,0,0
22003,2024 10 23,05:27:13.342,-0.720264,-0.098067,0.686705,0.006204,-1.233436,-0.170415,0.594256,-133.789063,53.039551,218.078613,0,0
22004,2024 10 23,05:27:13.350,-0.720264,-0.098067,0.686705,0.006204,-1.233436,-0.170415,0.594256,-133.789063,53.039551,218.078613,0,0
22005,2024 10 23,05:27:13.359,-0.716973,-0.101271,0.689112,0.028614,-1.313517,-0.356456,0.548845,-150.634766,72.998047,207.214355,0,0
22006,2024 10 23,05:27:13.367,-0.712127,-0.102489,0.692639,0.051208,-1.420942,-0.605487,0.451674,-165.649414,95.76416,192.321777,0,0
22007,2024 10 23,05:27:13.375,-0.70605,-0.101644,0.696989,0.07326,-1.508347,-0.860866,0.359386,-174.682617,111.816406,171.630859,0,0
22008,2024 10 23,05:27:13.384,-0.698897,-0.098894,0.702078,0.094076,-1.657765,-1.091342,0.249519,-176.147461,126.281738,147.338867,0,0
22009,2024 10 23,05:27:13.392,-0.691522,-0.094582,0.707165,0.113003,-1.76812,-1.277383,0.214362,-172.607422,123.168945,120.910645,0,0
22010,2024 10 23,05:27:13.400,-0.68508,-0.089142,0.711278,0.129626,-1.72515,-1.453169,0.198248,-163.024902,103.515625,94.909668,0,0
22011,2024 10 23,05:27:13.409,-0.68508,-0.089142,0.711278,0.129626,-1.72515,-1.453169,0.198248,-163.024902,103.515625,94.909668,0,0
22012,2024 10 23,05:27:13.417,-0.679933,-0.083238,0.714266,0.143481,-1.575243,-1.55913,0.274911,-145.690918,83.068848,69.152832,0,0
22013,2024 10 23,05:27:13.425,-0.675719,-0.076837,0.716704,0.154384,-1.409711,-1.608448,0.282723,-126.831055,70.495605,40.83252,0,0
22014,2024 10 23,05:27:13.434,-0.67222,-0.070062,0.718981,0.162105,-1.173864,-1.594287,0.322275,-104.064941,63.110352,11.84082,0,0
22015,2024 10 23,05:27:13.442,-0.668653,-0.062798,0.721928,0.16667,-1.700247,-1.864803,0.605487,-80.01709,71.044922,-17.883301,0,0
22016,2024 10 23,05:27:13.450,-0.663801,-0.050881,0.728397,0.161917,-1.950255,-1.486862,-1.986877,-42.96875,86.120605,-150.268555,0,0
22017,2024 10 23,05:27:13.459,-0.663801,-0.050881,0.728397,0.161917,-1.950255,-1.486862,-1.986877,-42.96875,86.120605,-150.268555,0,0
22018,2024 10 23,05:27:13.467,-0.679553,-0.034191,0.715519,0.158342,-1.242225,-1.05472,-0.917997,-80.627441,-241.333008,-183.59375,1,0
22019,2024 10 23,05:27:13.475,-0.697761,-0.028204,0.70048,0.147178,-1.39848,0.511734,0.320322,-7.69043,-240.783691,-141.601563,0,0
22020,2024 10 23,05:27:13.484,-0.70705,-0.023001,0.691971,0.143971,-1.065462,0.232917,-0.123051,-16.662598,-106.811523,-71.716309,0,0
22021,2024 10 23,05:27:13.492,-0.716426,-0.018644,0.683378,0.139211,-0.295419,-0.194342,-0.806665,-42.724609,-155.212402,-88.989258,0,0
22022,2024 10 23,05:27:13.500,-0.723647,-0.013772,0.676517,0.135905,-0.605976,-0.222175,-0.824732,1.037598,-70.800781,-68.29834,0,0
22023,2024 10 23,05:27:13.509,-0.723647,-0.013772,0.676517,0.135905,-0.605976,-0.222175,-0.824732,1.037598,-70.800781,-68.29834,0,0
22024,2024 10 23,05:27:13.517,-0.723809,-0.014087,0.677201,0.131532,-1.153844,0.096194,0.358898,44.494629,26.733398,-21.179199,0,0
22025,2024 10 23,05:27:13.525,-0.722822,-0.014679,0.678591,0.12972,-1.04593,0.160649,-0.379406,5.92041,-1.647949,-7.263184,0,0
22026,2024 10 23,05:27:13.534,-0.724657,-0.015154,0.676969,0.12789,-0.807642,0.43556,0.117679,21.240234,-23.681641,-16.540527,0,0
22027,2024 10 23,05:27:13.542,-0.724328,-0.013464,0.677459,0.127347,-0.930692,0.115726,-0.293954,-16.784668,16.723633,-18.554688,0,0
22028,2024 10 23,05:27:13.550,-0.723919,-0.012013,0.678166,0.12605,-0.892605,0.095706,-0.214362,6.225586,9.033203,-21.972656,0,0
22029,2024 10 23,05:27:13.559,-0.723919,-0.012013,0.678166,0.12605,-0.892605,0.095706,-0.214362,6.225586,9.033203,-21.972656,0,0
22030,2024 10 23,05:27:13.567,-0.723183,-0.011375,0.679401,0.123658,-0.955596,0.229011,-0.059084,14.953613,21.362305,-24.169922,0,0
22031,2024 10 23,05:27:13.575,-0.722027,-0.010307,0.681037,0.12149,-1.092319,0.161138,-0.012207,10.131836,22.705078,-25.390625,0,0
22032,2024 10 23,05:27:13.584,-0.721465,-0.009326,0.682011,0.119426,-1.086947,0.151372,-0.005371,8.850098,9.58252,-23.071289,0,0
22033,2024 10 23,05:27:13.592,-0.72171,-0.008461,0.682081,0.117596,-1.013214,0.17188,-0.041993,6.225586,-3.417969,-21.66748,0,0
22034,2024 10 23,05:27:13.600,-0.722196,-0.007459,0.681812,0.116229,-0.938017,0.12891,-0.15186,0.427246,-4.394531,-18.859863,0,0
22035,2024 10 23,05:27:13.609,-0.722196,-0.007459,0.681812,0.116229,-0.938017,0.12891,-0.15186,0.427246,-4.394531,-18.859863,0,0
22036,2024 10 23,05:27:13.617,-0.722437,-0.006551,0.681744,0.115185,-0.928251,0.107913,-0.152348,1.708984,1.098633,-14.953613,0,0
22037,2024 10 23,05:27:13.625,-0.722201,-0.006081,0.6822,0.113982,-1.00296,0.167974,-0.083987,6.896973,7.507324,-12.634277,0,0
22038,2024 10 23,05:27:13.634,-0.722005,-0.005561,0.682573,0.113012,-1.02298,0.158696,-0.073244,2.197266,4.455566,-11.59668,0,0
22039,2024 10 23,05:27:13.642,-0.72192,-0.005001,0.682802,0.112195,-1.016144,0.155278,-0.088382,2.624512,3.051758,-10.742188,0,0
22040,2024 10 23,05:27:13.650,-0.721922,-0.004523,0.682944,0.111336,-1.002472,0.17774,-0.075686,2.01416,1.708984,-10.742188,0,0
22041,2024 10 23,05:27:13.659,-0.721922,-0.004523,0.682944,0.111336,-1.002472,0.17774,-0.075686,2.01416,1.708984,-10.742188,0,0
22042,2024 10 23,05:27:13.667,-0.721881,-0.003852,0.683088,0.110742,-0.991729,0.138188,-0.124027,-1.159668,2.868652,-9.82666,0,0
22043,2024 10 23,05:27:13.675,-0.721786,-0.003276,0.683288,0.110146,-0.989776,0.153325,-0.082034,0.305176,3.662109,-8.911133,0,0
22044,2024 10 23,05:27:13.684,-0.721693,-0.002677,0.683456,0.109729,-0.993194,0.134281,-0.088382,-2.13623,2.624512,-7.629395,0,0
22045,2024 10 23,05:27:13.692,-0.721731,-0.002142,0.683468,0.109415,-0.983428,0.148442,-0.074221,-1.831055,0.061035,-6.469727,0,0
22046,2024 10 23,05:27:13.700,-0.721843,-0.001612,0.683375,0.109266,-0.980499,0.130375,-0.077151,-4.089355,-1.098633,-5.004883,0,0
22047,2024 10 23,05:27:13.709,-0.721843,-0.001612,0.683375,0.109266,-0.980499,0.130375,-0.077151,-4.089355,-1.098633,-5.004883,0,0
22048,2024 10 23,05:27:13.717,-0.722018,-0.001135,0.683188,0.109284,-0.974151,0.126957,-0.081057,-4.089355,-2.502441,-3.112793,0,0
22049,2024 10 23,05:27:13.725,-0.722273,-0.000777,0.682904,0.109379,-0.983428,0.1377,-0.062502,-4.211426,-4.211426,-1.831055,0,0
22050,2024 10 23,05:27:13.734,-0.722693,-0.000452,0.682429,0.109572,-0.959502,0.136723,-0.094729,-5.004883,-7.568359,-1.159668,0,0
22051,2024 10 23,05:27:13.742,-0.723168,-0.000179,0.68189,0.109797,-0.94583,0.12891,-0.099124,-4.516602,-7.080078,-0.671387,0,0
22052,2024 10 23,05:27:13.750,-0.723592,2.3e-05,0.681413,0.109955,-0.934111,0.138188,-0.106449,-3.295898,-6.896973,-0.671387,0,0
22053,2024 10 23,05:27:13.759,-0.72402,0.000276,0.680934,0.11011,-0.918485,0.132817,-0.114261,-3.295898,-6.896973,-0.671387,0,0
22054,2024 10 23,05:27:13.767,-0.72402,0.000276,0.680934,0.11011,-0.918485,0.132817,-0.114261,-4.02832,-6.225586,-1.342773,0,0
22055,2024 10 23,05:27:13.775,-0.724327,0.000542,0.680599,0.110158,-0.911649,0.12891,-0.127934,-2.563477,-3.967285,-2.197266,0,0
22056,2024 10 23,05:27:13.784,-0.724563,0.00081,0.680359,0.110087,-0.908231,0.138188,-0.117191,-1.89209,-2.502441,-3.234863,0,0
22057,2024 10 23,05:27:13.792,-0.724649,0.00116,0.680284,0.109982,-0.915067,0.124516,-0.12598,-2.075195,0.061035,-3.662109,0,0
22058,2024 10 23,05:27:13.800,-0.724666,0.001494,0.680297,0.109786,-0.916532,0.126957,-0.113773,-1.037598,0.976563,-4.150391,0,0
22059,2024 10 23,05:27:13.809,-0.724626,0.00181,0.680377,0.109546,-0.930204,0.123539,-0.104007,-0.549316,1.89209,-4.272461,0,0
22060,2024 10 23,05:27:13.817,-0.724626,0.00181,0.680377,0.109546,-0.930204,0.123539,-0.104007,-0.549316,1.89209,-4.272461,0,0
22061,2024 10 23,05:27:13.825,-0.724587,0.00212,0.68046,0.109288,-0.9429,0.127445,-0.099612,-0.610352,1.525879,-4.394531,0,0
22062,2024 10 23,05:27:13.834,-0.724571,0.002446,0.680512,0.109062,-0.94583,0.125004,-0.095706,-1.037598,1.220703,-4.211426,0,0
22063,2024 10 23,05:27:13.842,-0.724592,0.002747,0.680526,0.108829,-0.952666,0.125492,-0.0918,-0.549316,0.366211,-4.211426,0,0
22064,2024 10 23,05:27:13.850,-0.724664,0.003079,0.680482,0.108613,-0.957549,0.118656,-0.109867,-1.098633,-0.427246,-4.333496,0,0
22065,2024 10 23,05:27:13.859,-0.724815,0.003352,0.680368,0.108314,-0.954619,0.136235,-0.117191,0.305176,-1.77002,-4.760742,0,0
22066,2024 10 23,05:27:13.867,-0.724815,0.003352,0.680368,0.108314,-0.954619,0.136235,-0.117191,0.305176,-1.77002,-4.760742,0,0
22067,2024 10 23,05:27:13.875,-0.724941,0.003661,0.680283,0.107993,-0.943876,0.138676,-0.128422,-0.305176,-0.427246,-5.432129,0,0
22068,2024 10 23,05:27:13.884,-0.724943,0.004073,0.680332,0.107654,-0.951201,0.134281,-0.129398,-0.549316,2.01416,-6.225586,0,0
