frame,date,time,quaternion_x,quaternion_y,quaternion_z,quaternion_w,accel_x,accel_y,accel_z,gyro_x,gyro_y,gyro_z,HS,TO
21160,2024 10 23,05:27:06.317,-0.635171,0.388768,0.611534,0.267287,-1.903867,0.257332,0.437025,20.385742,-147.827148,189.51416,0,0
21161,2024 10 23,05:27:06.326,-0.633004,0.400212,0.613778,0.249827,-1.933653,0.126957,0.428724,39.978027,-147.521973,192.321777,0,0
21162,2024 10 23,05:27:06.334,-0.631496,0.410694,0.615697,0.231216,-1.9859,-0.061525,0.423353,57.556152,-141.357422,198.608398,0,0
21163,2024 10 23,05:27:06.342,-0.630653,0.420049,0.617134,0.21209,-1.998108,-0.314951,0.375988,69.824219,-132.202148,197.875977,0,0
21164,2024 10 23,05:27:06.351,-0.630143,0.42807,0.618334,0.193235,-1.939512,-0.660176,0.296396,76.599121,-123.779297,188.110352,0,0
21165,2024 10 23,05:27:06.359,-0.6294,0.434844,0.619695,0.175345,-1.864315,-0.993683,0.249519,76.477051,-120.361328,171.386719,0,0
21166,2024 10 23,05:27:06.367,-0.6294,0.434844,0.619695,0.175345,-1.864315,-0.993683,0.249519,76.477051,-120.361328,171.386719,0,0
21167,2024 10 23,05:27:06.376,-0.627961,0.440661,0.621474,0.158912,-1.819391,-1.277383,0.338878,69.702148,-119.018555,151.977539,0,0
21168,2024 10 23,05:27:06.384,-0.626007,0.445615,0.623459,0.144366,-1.734428,-1.473678,0.533219,58.898926,-111.999512,131.347656,0,0
21169,2024 10 23,05:27:06.392,-0.623714,0.44959,0.625677,0.131827,-1.694876,-1.720267,0.8052,51.147461,-106.201172,108.459473,0,0
21170,2024 10 23,05:27:06.401,-0.621475,0.452448,0.627877,0.121775,-1.735404,-1.947813,1.114292,40.527344,-88.317871,83.618164,0,0
21171,2024 10 23,05:27:06.409,-0.620035,0.454034,0.629439,0.114963,-1.799371,-2.10651,1.245643,29.11377,-58.654785,56.57959,0,0
21172,2024 10 23,05:27:06.417,-0.620035,0.454034,0.629439,0.114963,-1.799371,-2.10651,1.245643,29.11377,-58.654785,56.57959,0,0
21173,2024 10 23,05:27:06.426,-0.620014,0.454311,0.629833,0.111782,-1.729057,-2.21247,1.189978,18.127441,-16.845703,30.273438,0,0
21174,2024 10 23,05:27:06.434,-0.621147,0.453565,0.629169,0.112257,-1.518601,-2.163152,0.972686,3.234863,16.235352,4.02832,0,0
21175,2024 10 23,05:27:06.442,-0.622608,0.452124,0.628169,0.11553,-1.337931,-1.963927,0.788598,-10.437012,33.691406,-18.371582,0,0
21176,2024 10 23,05:27:06.451,-0.621169,0.44982,0.629934,0.122449,-4.480117,-2.105045,0.911649,-56.57959,-11.71875,-96.923828,0,0
21177,2024 10 23,05:27:06.459,-0.626491,0.440209,0.628452,0.137015,-1.18656,-1.840876,0.904324,9.521484,224.121094,-129.394531,0,0
21178,2024 10 23,05:27:06.467,-0.626491,0.440209,0.628452,0.137015,-1.18656,-1.840876,0.904324,9.521484,224.121094,-129.394531,0,0
21179,2024 10 23,05:27:06.476,-0.634968,0.436114,0.616038,0.164676,-0.131352,2.191473,-1.920957,-152.282715,242.919922,-151.123047,0,0
21180,2024 10 23,05:27:06.484,-0.635256,0.429264,0.618308,0.172852,-1.675832,0.206061,0.307626,-0.061035,24.414063,-126.159668,0,0
21181,2024 10 23,05:27:06.492,-0.639667,0.421389,0.614275,0.189534,-1.123081,1.20658,-0.647969,-14.587402,197.631836,-148.376465,0,0
21182,2024 10 23,05:27:06.501,-0.648695,0.407037,0.610936,0.200684,-0.738792,0.356945,-0.515641,70.3125,146.850586,-153.015137,1,0
21183,2024 10 23,05:27:06.509,-0.653478,0.393186,0.61201,0.20932,-0.972198,0.149419,1.064974,70.800781,97.717285,-152.526855,0,0
21184,2024 10 23,05:27:06.517,-0.653478,0.393186,0.61201,0.20932,-0.972198,0.149419,1.064974,70.800781,97.717285,-152.526855,0,0
21185,2024 10 23,05:27:06.526,-0.659557,0.380063,0.61093,0.217488,-0.743675,-0.267098,0.0,53.588867,104.003906,-125.854492,0,0
21186,2024 10 23,05:27:06.534,-0.661322,0.371532,0.611649,0.224728,-1.245643,0.042482,0.57033,14.160156,59.082031,-106.262207,0,0
21187,2024 10 23,05:27:06.542,-0.664023,0.364583,0.609821,0.232961,-1.030305,0.194342,-0.33253,0.0,83.618164,-92.407227,0,0
21188,2024 10 23,05:27:06.551,-0.665208,0.358645,0.609893,0.238543,-1.061556,0.176763,-0.014649,19.226074,38.024902,-76.11084,0,0
21189,2024 10 23,05:27:06.559,-0.666259,0.353244,0.610569,0.241913,-1.104038,0.092288,-0.02295,23.681641,30.395508,-59.570313,0,0
21190,2024 10 23,05:27:06.567,-0.666259,0.353244,0.610569,0.241913,-1.104038,0.092288,-0.02295,23.681641,30.395508,-59.570313,0,0
21191,2024 10 23,05:27:06.576,-0.667563,0.348564,0.610861,0.24436,-0.981964,-0.02588,0.06006,22.460938,29.724121,-45.654297,0,0
21192,2024 10 23,05:27:06.584,-0.668288,0.345169,0.610836,0.24724,-0.89114,0.101077,-0.010254,5.004883,23.498535,-42.053223,0,0
21193,2024 10 23,05:27:06.592,-0.668159,0.342614,0.61154,0.249395,-0.976104,0.107425,-0.037599,7.507324,5.493164,-35.766602,0,0
21194,2024 10 23,05:27:06.601,-0.668105,0.340318,0.612345,0.250706,-1.017609,0.049806,-0.023438,10.925293,7.141113,-27.160645,0,0
21195,2024 10 23,05:27:06.609,-0.668459,0.338393,0.612504,0.251975,-0.924345,0.041017,0.008789,6.591797,12.268066,-20.935059,0,0
21196,2024 10 23,05:27:06.617,-0.668459,0.338393,0.612504,0.251975,-0.924345,0.041017,0.008789,6.591797,12.268066,-20.935059,0,0
21197,2024 10 23,05:27:06.626,-0.668506,0.33721,0.612667,0.253037,-0.930204,0.083987,0.053224,1.342773,4.211426,-15.136719,0,0
21198,2024 10 23,05:27:06.634,-0.668242,0.336536,0.613046,0.253713,-0.976104,0.10596,0.026856,-0.061035,-1.464844,-11.230469,0,0
21199,2024 10 23,05:27:06.642,-0.667674,0.33619,0.613652,0.254203,-1.001495,0.110843,0.010743,-1.525879,-7.446289,-10.009766,0,0
21200,2024 10 23,05:27:06.651,-0.666925,0.336031,0.614364,0.254657,-1.023957,0.120609,-0.013672,-3.051758,-8.422852,-9.277344,0,0
21201,2024 10 23,05:27:06.659,-0.666291,0.335909,0.614976,0.255003,-1.014191,0.104007,-0.018067,-2.258301,-7.080078,-7.080078,0,0
21202,2024 10 23,05:27:06.667,-0.666291,0.335909,0.614976,0.255003,-1.014191,0.104007,-0.018067,-2.258301,-7.080078,-7.080078,0,0
21203,2024 10 23,05:27:06.676,-0.665789,0.335882,0.615404,0.255315,-1.00882,0.115238,-0.023927,-2.746582,-4.882813,-5.187988,0,0
21204,2024 10 23,05:27:06.684,-0.665379,0.335892,0.615745,0.255551,-1.004425,0.11475,-0.021485,-2.075195,-4.516602,-3.845215,0,0
21205,2024 10 23,05:27:06.692,-0.665084,0.3359,0.61598,0.255741,-1.004913,0.113285,-0.013672,-1.831055,-2.380371,-2.929688,0,0
21206,2024 10 23,05:27:06.701,-0.664906,0.3359,0.616097,0.255921,-1.00589,0.118168,-0.015625,-1.525879,-1.403809,-2.197266,0,0
21207,2024 10 23,05:27:06.709,-0.664763,0.335885,0.616187,0.256097,-1.00589,0.124516,-0.009278,-1.403809,-0.549316,-2.258301,0,0
21208,2024 10 23,05:27:06.717,-0.66465,0.335816,0.616256,0.256314,-0.987823,0.120121,-0.011231,-1.342773,-0.427246,-2.990723,0,0
21209,2024 10 23,05:27:06.726,-0.66465,0.335816,0.616256,0.256314,-0.987823,0.120121,-0.011231,-1.342773,-0.427246,-2.990723,0,0
21210,2024 10 23,05:27:06.734,-0.664441,0.335747,0.616407,0.256582,-0.999542,0.123539,-0.010743,-1.831055,-1.525879,-4.089355,0,0
21211,2024 10 23,05:27:06.742,-0.664206,0.33564,0.61657,0.256938,-0.997589,0.133305,-0.013672,-2.075195,-1.037598,-5.065918,0,0
21212,2024 10 23,05:27:06.751,-0.664001,0.335442,0.616729,0.257347,-1.005402,0.127934,-0.010743,-1.953125,-0.183105,-6.103516,0,0
21213,2024 10 23,05:27:06.759,-0.663891,0.335104,0.616799,0.257902,-1.005402,0.135258,-0.029298,-1.403809,2.624512,-7.629395,0,0
21214,2024 10 23,05:27:06.767,-0.663908,0.334582,0.616777,0.258586,-1.012238,0.130375,-0.02588,-0.610352,5.310059,-9.155273,0,0
21215,2024 10 23,05:27:06.776,-0.663908,0.334582,0.616777,0.258586,-1.012238,0.130375,-0.02588,-0.610352,5.310059,-9.155273,0,0
21216,2024 10 23,05:27:06.784,-0.664169,0.333871,0.61655,0.259376,-1.015656,0.117191,-0.026856,0.244141,10.253906,-9.460449,0,0
21217,2024 10 23,05:27:06.792,-0.664736,0.332951,0.616039,0.260321,-1.010285,0.123539,-0.041017,1.342773,15.869141,-10.314941,0,0
21218,2024 10 23,05:27:06.801,-0.665534,0.33182,0.615321,0.261419,-0.999054,0.106449,-0.013184,1.586914,20.080566,-11.535645,0,0
21219,2024 10 23,05:27:06.809,-0.666577,0.330596,0.614347,0.2626,-0.949248,0.086428,0.019532,2.13623,23.803711,-10.314941,0,0
21220,2024 10 23,05:27:06.817,-0.667665,0.329478,0.61328,0.263735,-0.943876,0.092776,0.014649,1.342773,23.132324,-8.728027,0,0
21221,2024 10 23,05:27:06.826,-0.667665,0.329478,0.61328,0.263735,-0.943876,0.092776,0.014649,1.342773,23.132324,-8.728027,0,0
21222,2024 10 23,05:27:06.834,-0.668727,0.3285,0.612203,0.264764,-0.933622,0.08301,0.040529,0.427246,22.460938,-7.141113,0,0
21223,2024 10 23,05:27:06.842,-0.669733,0.327674,0.611116,0.265753,-0.93704,0.089846,0.019044,0.0,21.057129,-5.92041,0,0
21224,2024 10 23,05:27:06.851,-0.670594,0.326947,0.610149,0.266699,-0.957549,0.101077,0.053224,-1.098633,18.981934,-6.164551,0,0
21225,2024 10 23,05:27:06.859,-0.67146,0.326188,0.609175,0.267672,-0.96585,0.098636,0.009278,-0.610352,19.348145,-6.591797,0,0
21226,2024 10 23,05:27:06.867,-0.672199,0.325404,0.608355,0.268636,-0.981964,0.121097,0.016602,-0.061035,17.028809,-7.93457,0,0
21227,2024 10 23,05:27:06.876,-0.672199,0.325404,0.608355,0.268636,-0.981964,0.121097,0.016602,-0.061035,17.028809,-7.93457,0,0
21228,2024 10 23,05:27:06.884,-0.672927,0.324474,0.607619,0.269603,-0.987823,0.102542,0.021973,1.098633,17.39502,-9.399414,0,0
21229,2024 10 23,05:27:06.892,-0.673589,0.323479,0.606977,0.270588,-0.987823,0.109867,0.039552,1.403809,16.113281,-10.314941,0,0
21230,2024 10 23,05:27:06.901,-0.674237,0.322395,0.606412,0.271534,-0.980499,0.088382,0.039064,2.13623,15.74707,-11.047363,0,0
21231,2024 10 23,05:27:06.909,-0.674816,0.321325,0.605896,0.272515,-0.952178,0.086917,0.051759,2.197266,14.526367,-11.352539,0,0
21232,2024 10 23,05:27:06.917,-0.675183,0.320355,0.605589,0.273428,-0.962432,0.081057,0.058596,1.403809,10.375977,-11.413574,0,0
21233,2024 10 23,05:27:06.926,-0.675183,0.320355,0.605589,0.273428,-0.962432,0.081057,0.058596,1.403809,10.375977,-11.413574,0,0
21234,2024 10 23,05:27:06.934,-0.67538,0.319463,0.605456,0.274277,-0.977081,0.08594,0.039552,1.342773,7.568359,-11.71875,0,0
21235,2024 10 23,05:27:06.942,-0.675464,0.318602,0.605457,0.275068,-1.01175,0.089846,0.04297,1.831055,5.92041,-11.779785,0,0
21236,2024 10 23,05:27:06.951,-0.675565,0.317711,0.605429,0.275911,-1.059114,0.098148,-0.010254,1.159668,7.385254,-12.634277,0,0
21237,2024 10 23,05:27:06.959,-0.675875,0.316664,0.605233,0.276785,-1.078158,0.085452,0.001953,3.051758,11.962891,-12.268066,0,0
21238,2024 10 23,05:27:06.967,-0.676516,0.315412,0.604702,0.277808,-1.054231,0.097171,0.00586,3.540039,17.76123,-12.634277,0,0
21239,2024 10 23,05:27:06.976,-0.676516,0.315412,0.604702,0.277808,-1.054231,0.097171,0.00586,3.540039,17.76123,-12.634277,0,0
21240,2024 10 23,05:27:06.984,-0.677361,0.313982,0.604,0.278892,-1.068392,0.083987,0.026856,4.699707,21.057129,-13.122559,0,0
21241,2024 10 23,05:27:06.992,-0.678468,0.312381,0.603022,0.280114,-1.02884,0.083499,0.024415,4.882813,26.062012,-13.48877,0,0
21242,2024 10 23,05:27:07.001,-0.679715,0.310634,0.601936,0.281366,-1.031281,0.067385,0.034669,6.347656,27.709961,-13.977051,0,0
21243,2024 10 23,05:27:07.009,-0.680836,0.308815,0.60087,0.282934,-1.011261,0.115238,0.083499,4.699707,28.320313,-18.310547,0,0
21244,2024 10 23,05:27:07.017,-0.682166,0.306703,0.599786,0.284322,-0.993194,0.066408,0.049318,7.507324,29.11377,-17.39502,0,0
21245,2024 10 23,05:27:07.026,-0.682166,0.306703,0.599786,0.284322,-0.993194,0.066408,0.049318,7.507324,29.11377,-17.39502,0,0
21246,2024 10 23,05:27:07.034,-0.683253,0.304726,0.598892,0.28572,-1.065951,0.11475,0.070803,7.629395,24.902344,-17.700195,0,0
21247,2024 10 23,05:27:07.042,-0.684138,0.302588,0.598237,0.287243,-1.149449,0.120609,0.050295,6.164551,23.742676,-23.31543,0,0
21248,2024 10 23,05:27:07.051,-0.685072,0.29992,0.597655,0.289019,-1.146519,0.091311,0.036622,12.512207,26.184082,-28.259277,0,0
21249,2024 10 23,05:27:07.059,-0.685538,0.297097,0.597456,0.291235,-1.016633,0.085452,0.167974,9.277344,21.66748,-36.499023,0,0
21250,2024 10 23,05:27:07.067,-0.685694,0.294041,0.597603,0.293659,-1.283242,0.186041,0.118168,2.441406,13.305664,-42.96875,0,0
21251,2024 10 23,05:27:07.076,-0.685694,0.294041,0.597603,0.293659,-1.283242,0.186041,0.118168,2.441406,13.305664,-42.96875,0,0
21252,2024 10 23,05:27:07.084,-0.68568,0.2901,0.598149,0.296483,-1.238807,-0.015137,-0.04004,22.399902,23.4375,-52.67334,0,0
21253,2024 10 23,05:27:07.092,-0.684735,0.285982,0.599237,0.300445,-1.287637,0.202155,0.220222,-0.244141,9.338379,-71.166992,0,0
21254,2024 10 23,05:27:07.101,-0.68384,0.280386,0.60069,0.304825,-1.397015,0.08594,0.161138,15.197754,16.296387,-84.899902,0,0
21255,2024 10 23,05:27:07.109,-0.682352,0.273909,0.602428,0.310565,-1.471725,0.120609,0.090335,13.73291,17.76123,-106.079102,0,0
21256,2024 10 23,05:27:07.117,-0.680324,0.266381,0.604587,0.317293,-1.543992,0.207526,0.170415,13.427734,16.906738,-123.962402,0,0
21257,2024 10 23,05:27:07.126,-0.680324,0.266381,0.604587,0.317293,-1.543992,0.207526,0.170415,13.427734,16.906738,-123.962402,0,0
21258,2024 10 23,05:27:07.134,-0.677954,0.25744,0.607177,0.324714,-1.624073,0.042482,0.093753,20.385742,20.202637,-143.493652,0,0
21259,2024 10 23,05:27:07.142,-0.674619,0.247582,0.609944,0.334007,-1.711478,0.253426,0.041993,11.047363,19.042969,-168.334961,0,0
21260,2024 10 23,05:27:07.151,-0.670391,0.236436,0.61321,0.344451,-1.997131,0.331065,0.049318,14.526367,20.690918,-192.993164,0,0
21261,2024 10 23,05:27:07.159,-0.666036,0.223256,0.615971,0.356556,-2.249092,0.421888,-0.090823,13.183594,38.818359,-220.64209,0,0
21262,2024 10 23,05:27:07.167,-0.661308,0.2079,0.617981,0.370875,-2.277413,0.43263,-0.132328,16.662598,60.791016,-256.591797,0,0
21263,2024 10 23,05:27:07.176,-0.656083,0.189638,0.619473,0.387099,-2.403882,0.441908,-0.270516,13.061523,71.228027,-292.358398,0,0
21264,2024 10 23,05:27:07.184,-0.656083,0.189638,0.619473,0.387099,-2.403882,0.441908,-0.270516,13.061523,71.228027,-292.358398,0,0
21265,2024 10 23,05:27:07.192,-0.649694,0.169167,0.620186,0.405769,-2.530351,0.488296,-0.367687,12.268066,91.430664,-330.322266,0,0
21266,2024 10 23,05:27:07.201,-0.642785,0.145974,0.619569,0.426208,-2.583575,0.424818,-0.381848,8.056641,111.572266,-362.792969,0,0
21267,2024 10 23,05:27:07.209,-0.634905,0.120715,0.617513,0.448331,-2.588946,0.412122,-0.192877,3.417969,129.516602,-392.211914,0,0
21268,2024 10 23,05:27:07.217,-0.626802,0.09289,0.61352,0.471257,-2.785241,0.358898,-0.201178,10.864258,153.930664,-411.010742,0,0
21269,2024 10 23,05:27:07.226,-0.618593,0.06354,0.607778,0.493873,-2.860439,0.5674,0.489761,20.812988,180.603027,-413.574219,0,0
21270,2024 10 23,05:27:07.234,-0.618593,0.06354,0.607778,0.493873,-2.860439,0.5674,0.489761,20.812988,180.603027,-413.574219,0,0
21271,2024 10 23,05:27:07.242,-0.611551,0.032741,0.599172,0.515681,-2.068423,0.271493,-0.194342,13.427734,204.101563,-412.353516,0,0
21272,2024 10 23,05:27:07.251,-0.60063,0.003643,0.591472,0.537951,-1.866756,0.54445,-0.244636,-12.329102,156.616211,-433.105469,0,0
21273,2024 10 23,05:27:07.259,-0.588008,-0.026137,0.582462,0.560625,-1.275429,0.598651,-0.766137,-3.845215,166.19873,-446.472168,0,1
21274,2024 10 23,05:27:07.267,-0.572557,-0.053612,0.573304,0.583632,-1.308145,0.44142,-0.820338,-27.648926,114.685059,-444.824219,0,0
21275,2024 10 23,05:27:07.276,-0.554868,-0.075664,0.564577,0.60634,-0.815943,0.884304,-0.073244,-70.007324,79.223633,-414.0625,0,0
21276,2024 10 23,05:27:07.284,-0.554868,-0.075664,0.564577,0.60634,-0.815943,0.884304,-0.073244,-70.007324,79.223633,-414.0625,0,0
21277,2024 10 23,05:27:07.292,-0.543754,-0.094462,0.55284,0.624321,1.884823,2.599689,-0.281747,-82.092285,138.85498,-291.564941,0,0
21278,2024 10 23,05:27:07.301,-0.548612,-0.108074,0.538776,0.630131,1.673391,0.731956,-2.95175,-17.822266,187.133789,-30.029297,0,0
21279,2024 10 23,05:27:07.309,-0.555044,-0.095174,0.533886,0.630741,0.226081,2.1236,1.116733,-147.644043,-57.922363,159.484863,0,0
21280,2024 10 23,05:27:07.317,-0.569464,-0.081125,0.529514,0.623494,-0.022462,1.340861,-0.932157,-89.96582,42.297363,239.196777,0,0
21281,2024 10 23,05:27:07.326,-0.58227,-0.063572,0.529308,0.613802,-0.348155,1.3184,0.023438,-47.729492,-66.711426,261.047363,0,0
21282,2024 10 23,05:27:07.334,-0.58227,-0.063572,0.529308,0.613802,-0.348155,1.3184,0.023438,-47.729492,-66.711426,261.047363,0,0
21283,2024 10 23,05:27:07.342,-0.59348,-0.047606,0.531981,0.602089,-0.607929,1.070833,0.178716,-15.808105,-37.536621,243.774414,0,0
21284,2024 10 23,05:27:07.351,-0.604013,-0.035762,0.535248,0.589406,-0.614277,0.882839,-0.380383,24.414063,-38.208008,223.022461,0,0
21285,2024 10 23,05:27:07.359,-0.613204,-0.025536,0.540524,0.575467,-0.522477,0.667989,-0.070803,55.725098,-35.522461,218.322754,0,0
21286,2024 10 23,05:27:07.367,-0.623072,-0.017029,0.545198,0.56058,-0.299326,0.569842,-0.505875,60.546875,-23.31543,220.825195,0,0
21287,2024 10 23,05:27:07.376,-0.631907,-0.007073,0.550925,0.545092,-0.390149,0.466323,-0.479995,59.265137,-49.987793,230.224609,0,0
21288,2024 10 23,05:27:07.384,-0.631907,-0.007073,0.550925,0.545092,-0.390149,0.466323,-0.479995,59.265137,-49.987793,230.224609,0,0
21289,2024 10 23,05:27:07.392,-0.640185,0.00443,0.556626,0.529444,-0.479507,0.371593,-0.54738,46.142578,-59.204102,236.450195,0,0
21290,2024 10 23,05:27:07.401,-0.647664,0.017856,0.562101,0.514058,-0.601093,0.305673,-0.460463,26.794434,-75.439453,242.30957,0,0
21291,2024 10 23,05:27:07.409,-0.654663,0.033237,0.566901,0.498933,-0.734886,0.267586,-0.394055,7.324219,-82.580566,250.854492,0,0
21292,2024 10 23,05:27:07.417,-0.661491,0.050457,0.570607,0.484036,-0.858425,0.24366,-0.286142,-14.160156,-84.960938,260.375977,0,0
21293,2024 10 23,05:27:07.426,-0.668149,0.06925,0.573036,0.469479,-0.881375,0.245613,-0.250496,-35.339355,-84.960938,267.150879,0,0
21294,2024 10 23,05:27:07.434,-0.668149,0.06925,0.573036,0.469479,-0.881375,0.245613,-0.250496,-35.339355,-84.960938,267.150879,0,0
21295,2024 10 23,05:27:07.442,-0.674292,0.089812,0.574505,0.455201,-0.911649,0.303232,-0.176275,-56.091309,-92.651367,275.146484,0,0
21296,2024 10 23,05:27:07.451,-0.679717,0.112134,0.57539,0.440837,-1.020539,0.363292,-0.091311,-71.289063,-102.355957,284.118652,0,0
21297,2024 10 23,05:27:07.459,-0.684431,0.13572,0.575776,0.426164,-1.129917,0.406262,-0.021485,-79.772949,-109.741211,290.95459,0,0
21298,2024 10 23,05:27:07.467,-0.6883,0.159956,0.575994,0.41096,-1.264687,0.407727,0.063967,-83.068848,-118.591309,294.555664,0,0
21299,2024 10 23,05:27:07.476,-0.691297,0.184421,0.57609,0.395244,-1.369671,0.417005,0.073733,-82.458496,-125.244141,296.081543,0,0
21300,2024 10 23,05:27:07.484,-0.691297,0.184421,0.57609,0.395244,-1.369671,0.417005,0.073733,-82.458496,-125.244141,296.081543,0,0
21301,2024 10 23,05:27:07.492,-0.693382,0.209003,0.576268,0.378754,-1.522507,0.471206,0.133793,-78.430176,-134.82666,299.438477,0,0
21302,2024 10 23,05:27:07.501,-0.694755,0.233306,0.576593,0.361145,-1.695364,0.50148,0.207526,-69.091797,-141.357422,302.67334,0,0
21303,2024 10 23,05:27:07.509,-0.695635,0.256798,0.576964,0.342431,-1.845759,0.457045,0.17481,-55.480957,-144.40918,303.466797,0,0
21304,2024 10 23,05:27:07.517,-0.695858,0.279145,0.577609,0.322842,-1.970275,0.322764,0.146977,-41.564941,-149.291992,299.133301,0,0
21305,2024 10 23,05:27:07.526,-0.695168,0.300362,0.578682,0.302741,-2.088443,0.200201,0.139653,-31.555176,-157.226563,291.503906,0,0
21306,2024 10 23,05:27:07.534,-0.695168,0.300362,0.578682,0.302741,-2.088443,0.200201,0.139653,-31.555176,-157.226563,291.503906,0,0
21307,2024 10 23,05:27:07.542,-0.693543,0.320327,0.580285,0.282239,-2.233955,0.051271,0.18067,-20.446777,-164.428711,282.287598,0,0
21308,2024 10 23,05:27:07.551,-0.691238,0.338832,0.58223,0.261516,-2.298898,-0.161138,0.239753,-8.728027,-166.625977,272.094727,0,0
21309,2024 10 23,05:27:07.559,-0.688413,0.355879,0.58434,0.240797,-2.337474,-0.396985,0.243171,-0.061035,-168.212891,262.145996,0,0
21310,2024 10 23,05:27:07.567,-0.68493,0.371709,0.586713,0.220161,-2.418531,-0.616718,0.295419,6.652832,-170.715332,252.258301,0,0
21311,2024 10 23,05:27:07.576,-0.681178,0.386282,0.588855,0.20008,-2.45613,-0.872585,0.233894,10.559082,-163.513184,240.905762,0,0
21312,2024 10 23,05:27:07.584,-0.681178,0.386282,0.588855,0.20008,-2.45613,-0.872585,0.233894,10.559082,-163.513184,240.905762,0,0
21313,2024 10 23,05:27:07.592,-0.677,0.399433,0.591066,0.181009,-2.411206,-1.283731,0.181646,11.779785,-160.400391,221.984863,0,0
21314,2024 10 23,05:27:07.601,-0.672073,0.411145,0.593665,0.163827,-2.315989,-1.723197,0.106449,6.225586,-157.226563,194.641113,0,0
21315,2024 10 23,05:27:07.609,-0.665838,0.421507,0.597294,0.149104,-1.972716,-2.000549,0.3296,-5.371094,-162.04834,159.423828,0,0
21316,2024 10 23,05:27:07.617,-0.657787,0.430229,0.602845,0.137098,-1.205603,-1.996155,0.729514,-16.784668,-180.053711,111.816406,0,0
21317,2024 10 23,05:27:07.626,-0.646215,0.437616,0.612287,0.126502,-1.483444,-2.058168,1.317911,-27.34375,-234.436035,69.519043,0,0
21318,2024 10 23,05:27:07.634,-0.633196,0.443333,0.623686,0.116335,-2.489822,-2.520585,2.166082,-19.897461,-237.121582,49.133301,0,0
21319,2024 10 23,05:27:07.642,-0.633196,0.443333,0.623686,0.116335,-2.489822,-2.520585,2.166082,-19.897461,-237.121582,49.133301,0,0
21320,2024 10 23,05:27:07.651,-0.62553,0.445912,0.630514,0.111026,-2.596759,-2.935148,1.970763,-8.789063,-111.755371,23.376465,0,0
21321,2024 10 23,05:27:07.659,-0.62405,0.445147,0.632362,0.111915,-1.869686,-3.265236,1.05472,-10.742188,-11.84082,-12.878418,0,0
21322,2024 10 23,05:27:07.667,-0.622021,0.443947,0.63416,0.117646,-1.40434,-2.823817,0.829127,-50.537109,-4.02832,-51.086426,0,0
21323,2024 10 23,05:27:07.676,-0.618568,0.443085,0.636504,0.126145,-1.343303,-2.036195,0.901883,-72.937012,-2.319336,-71.716309,0,0
21324,2024 10 23,05:27:07.684,-0.615272,0.441969,0.6386,0.135256,-1.367229,-1.240761,1.04593,-68.664551,5.187988,-76.599121,0,0
21325,2024 10 23,05:27:07.692,-0.615272,0.441969,0.6386,0.135256,-1.367229,-1.240761,1.04593,-68.664551,5.187988,-76.599121,0,0
21326,2024 10 23,05:27:07.701,-0.6123,0.439936,0.640871,0.144325,-6.189154,0.292489,-0.706565,-73.791504,-4.333496,-99.487305,0,0
21327,2024 10 23,05:27:07.709,-0.616003,0.431214,0.639607,0.159679,-1.488327,1.086459,1.14066,82.03125,240.05127,-138.305664,0,0
21328,2024 10 23,05:27:07.717,-0.633912,0.415563,0.62718,0.179189,-0.240242,2.102603,-3.556261,-6.835938,288.574219,-177.612305,0,0
21329,2024 10 23,05:27:07.726,-0.634188,0.401893,0.634462,0.183699,-1.926328,0.232917,1.9859,91.430664,-11.535645,-179.748535,0,0
21330,2024 10 23,05:27:07.734,-0.64682,0.382864,0.628378,0.200448,-0.456069,0.514176,-0.832545,69.580078,301.452637,-203.918457,1,0
21331,2024 10 23,05:27:07.742,-0.64682,0.382864,0.628378,0.200448,-0.456069,0.514176,-0.832545,69.580078,301.452637,-203.918457,0,0
21332,2024 10 23,05:27:07.751,-0.653012,0.366143,0.628342,0.211424,-1.44145,-0.523942,1.099643,51.940918,70.007324,-182.067871,0,0
21333,2024 10 23,05:27:07.759,-0.659011,0.354386,0.624177,0.224761,-1.364299,-0.095218,-0.079592,6.835938,192.626953,-131.652832,0,0
21334,2024 10 23,05:27:07.767,-0.665793,0.34616,0.618143,0.234075,-1.348674,0.13184,-0.172369,6.713867,126.586914,-73.791504,0,0
21335,2024 10 23,05:27:07.776,-0.672087,0.339413,0.61327,0.238742,-1.231483,0.188482,0.11182,38.757324,128.479004,-40.222168,0,0
21336,2024 10 23,05:27:07.784,-0.678723,0.332805,0.608395,0.241727,-0.917508,0.086917,-0.043947,44.250488,98.510742,-30.151367,0,0
21337,2024 10 23,05:27:07.792,-0.678723,0.332805,0.608395,0.241727,-0.917508,0.086917,-0.043947,44.250488,98.510742,-30.151367,0,0
21338,2024 10 23,05:27:07.801,-0.683305,0.327271,0.605574,0.243452,-0.676778,-0.028809,0.397473,37.29248,72.631836,-28.503418,0,0
21339,2024 10 23,05:27:07.809,-0.686372,0.3232,0.603485,0.24544,-0.642598,-0.000488,0.07178,20.874023,44.433594,-25.878906,0,0
21340,2024 10 23,05:27:07.817,-0.686827,0.321013,0.603697,0.246515,-0.924345,0.089846,0.185064,8.056641,4.394531,-22.216797,0,0
21341,2024 10 23,05:27:07.826,-0.687198,0.319259,0.603795,0.247515,-1.02884,0.074709,-0.013184,9.277344,13.427734,-17.944336,0,0
21342,2024 10 23,05:27:07.834,-0.687902,0.317674,0.603519,0.248272,-1.033723,0.076174,0.0,9.155273,14.099121,-12.390137,0,0
21343,2024 10 23,05:27:07.842,-0.687902,0.317674,0.603519,0.248272,-1.033723,0.076174,0.0,9.155273,14.099121,-12.390137,0,0
21344,2024 10 23,05:27:07.851,-0.688559,0.316326,0.60325,0.248825,-1.045442,0.121586,0.060549,7.93457,12.878418,-10.131836,0,0
21345,2024 10 23,05:27:07.859,-0.6893,0.315043,0.602891,0.24927,-1.060091,0.12891,-0.000488,8.911133,13.061523,-8.544922,0,0
21346,2024 10 23,05:27:07.867,-0.690049,0.313792,0.602593,0.249499,-1.061556,0.119633,0.055177,10.375977,12.634277,-6.774902,0,0
21347,2024 10 23,05:27:07.876,-0.691023,0.312489,0.602055,0.249735,-1.044954,0.139653,0.052248,11.047363,16.540527,-5.859375,0,0
21348,2024 10 23,05:27:07.884,-0.692195,0.311026,0.601384,0.249933,-1.002472,0.13184,0.04883,12.939453,18.920898,-5.79834,0,0
21349,2024 10 23,05:27:07.892,-0.692195,0.311026,0.601384,0.249933,-1.002472,0.13184,0.04883,12.939453,18.920898,-5.79834,0,0
21350,2024 10 23,05:27:07.901,-0.693352,0.309584,0.600787,0.249953,-0.982452,0.145512,0.104007,13.85498,16.235352,-4.455566,0,0
21351,2024 10 23,05:27:07.909,-0.694515,0.308127,0.600277,0.249748,-0.975616,0.123539,0.076662,15.686035,15.197754,-3.173828,0,0
21352,2024 10 23,05:27:07.917,-0.695581,0.306736,0.599869,0.249473,-0.990753,0.115238,0.044923,16.113281,13.183594,-2.746582,0,0
21353,2024 10 23,05:27:07.926,-0.696703,0.305404,0.599355,0.249215,-0.965361,0.104007,0.082034,13.85498,15.869141,-2.01416,0,0
21354,2024 10 23,05:27:07.934,-0.697959,0.304152,0.598566,0.249125,-0.910672,0.109378,0.08594,12.756348,18.554688,-1.281738,0,0
21355,2024 10 23,05:27:07.942,-0.697959,0.304152,0.598566,0.249125,-0.910672,0.109378,0.08594,12.756348,18.554688,-1.281738,0,0
21356,2024 10 23,05:27:07.951,-0.699084,0.30302,0.597904,0.248942,-0.917508,0.098148,0.076662,11.962891,14.404297,-0.610352,0,0
21357,2024 10 23,05:27:07.959,-0.69991,0.302061,0.5974,0.248996,-0.964873,0.116214,0.062014,7.507324,12.878418,-4.211426,0,0
21358,2024 10 23,05:27:07.967,-0.700782,0.301019,0.596781,0.249288,-0.94583,0.117191,0.059084,7.385254,15.50293,-5.126953,0,0
21359,2024 10 23,05:27:07.976,-0.701629,0.299982,0.596161,0.249638,-0.958525,0.086428,0.056642,6.835938,15.197754,-5.371094,0,0
21360,2024 10 23,05:27:07.984,-0.702565,0.299018,0.595339,0.250124,-0.949736,0.115726,0.081545,5.432129,18.310547,-4.638672,0,0
21361,2024 10 23,05:27:07.992,-0.702565,0.299018,0.595339,0.250124,-0.949736,0.115726,0.081545,5.432129,18.310547,-4.638672,0,0
21362,2024 10 23,05:27:08.001,-0.703617,0.297999,0.594424,0.250559,-0.93704,0.102054,0.080081,5.79834,19.226074,-4.272461,0,0
21363,2024 10 23,05:27:08.009,-0.704671,0.297037,0.593473,0.250993,-0.953642,0.083987,0.073244,6.04248,19.104004,-3.723145,0,0
21364,2024 10 23,05:27:08.017,-0.705486,0.296197,0.592587,0.251789,-0.947295,0.127445,0.147954,-0.976563,17.456055,-8.666992,0,0
21365,2024 10 23,05:27:08.026,-0.706353,0.295219,0.591603,0.25282,-0.931669,0.079104,0.078127,0.305176,20.263672,-9.460449,0,0
21366,2024 10 23,05:27:08.034,-0.706914,0.294442,0.59081,0.254009,-1.005402,0.100589,0.104495,-2.319336,15.380859,-10.681152,0,0
21367,2024 10 23,05:27:08.042,-0.707398,0.293667,0.590012,0.255409,-0.96878,0.110843,0.151372,-3.662109,18.615723,-12.695313,0,0
21368,2024 10 23,05:27:08.051,-0.707398,0.293667,0.590012,0.255409,-0.96878,0.110843,0.151372,-3.662109,18.615723,-12.695313,0,0
21369,2024 10 23,05:27:08.059,-0.708109,0.292796,0.588959,0.256865,-0.939482,0.106937,0.092288,-3.78418,19.958496,-12.145996,0,0
21370,2024 10 23,05:27:08.067,-0.708637,0.292003,0.588148,0.258164,-0.980987,0.099124,0.119633,-2.746582,16.479492,-11.657715,0,0
21371,2024 10 23,05:27:08.076,-0.709236,0.291137,0.587256,0.259526,-0.991729,0.092288,0.089846,-2.563477,19.165039,-12.207031,0,0
21372,2024 10 23,05:27:08.084,-0.709865,0.290241,0.586307,0.260953,-0.987335,0.097659,0.102542,-3.173828,19.53125,-12.817383,0,0
21373,2024 10 23,05:27:08.092,-0.710449,0.289314,0.585365,0.262502,-1.043489,0.124027,0.112796,-4.089355,19.470215,-14.526367,0,0
21374,2024 10 23,05:27:08.101,-0.710449,0.289314,0.585365,0.262502,-1.043489,0.124027,0.112796,-4.089355,19.470215,-14.526367,0,0
21375,2024 10 23,05:27:08.109,-0.711039,0.288236,0.584393,0.264249,-1.024934,0.140141,0.176763,-4.02832,21.972656,-17.822266,0,0
21376,2024 10 23,05:27:08.117,-0.711781,0.286774,0.583386,0.266064,-0.996124,0.074221,0.08594,-0.488281,23.31543,-19.287109,0,0
21377,2024 10 23,05:27:08.126,-0.712145,0.285437,0.582714,0.267991,-1.041536,0.107425,0.107913,-2.563477,17.333984,-21.66748,0,0
21378,2024 10 23,05:27:08.134,-0.71238,0.284025,0.582208,0.26996,-1.047395,0.146977,0.210456,-2.563477,17.028809,-24.291992,0,0
21379,2024 10 23,05:27:08.142,-0.712727,0.282138,0.58174,0.272026,-0.98587,0.044923,0.049806,2.563477,18.859863,-27.46582,0,0
21380,2024 10 23,05:27:08.151,-0.712727,0.282138,0.58174,0.272026,-0.98587,0.044923,0.049806,2.563477,18.859863,-27.46582,0,0
21381,2024 10 23,05:27:08.159,-0.712335,0.280618,0.581906,0.274259,-1.077181,0.172369,0.28956,-4.272461,5.065918,-31.616211,0,0
21382,2024 10 23,05:27:08.167,-0.712265,0.278313,0.582029,0.276518,-1.00589,0.047365,0.100101,4.699707,15.197754,-35.217285,0,0
21383,2024 10 23,05:27:08.176,-0.711655,0.276252,0.582529,0.279092,-1.075716,0.133793,0.201178,0.671387,4.02832,-39.916992,0,0
21384,2024 10 23,05:27:08.184,-0.711053,0.27364,0.583218,0.281748,-1.084018,0.113285,0.253914,3.051758,8.300781,-44.616699,0,0
21385,2024 10 23,05:27:08.192,-0.710423,0.270663,0.583928,0.284727,-1.138218,0.135746,0.173345,3.90625,8.361816,-50.231934,0,0
21386,2024 10 23,05:27:08.201,-0.710423,0.270663,0.583928,0.284727,-1.138218,0.135746,0.173345,3.90625,8.361816,-50.231934,0,0
21387,2024 10 23,05:27:08.209,-0.709719,0.26716,0.58486,0.28786,-1.174352,0.080081,0.15479,10.375977,8.728027,-55.847168,0,0
21388,2024 10 23,05:27:08.217,-0.708753,0.263302,0.586075,0.291303,-1.120151,0.10889,0.220222,10.375977,7.93457,-62.561035,0,0
21389,2024 10 23,05:27:08.226,-0.707821,0.258868,0.587358,0.294937,-1.208533,0.156255,0.221198,12.084961,7.263184,-68.664551,0,0
21390,2024 10 23,05:27:08.234,-0.706631,0.253794,0.589073,0.298756,-1.194372,0.044435,0.178228,20.263672,8.178711,-76.904297,0,0
21391,2024 10 23,05:27:08.242,-0.705232,0.248247,0.590873,0.303134,-1.290567,0.099124,0.160649,16.845703,6.286621,-85.266113,0,0
21392,2024 10 23,05:27:08.251,-0.705232,0.248247,0.590873,0.303134,-1.290567,0.099124,0.160649,16.845703,6.286621,-85.266113,0,0
21393,2024 10 23,05:27:08.259,-0.70349,0.242139,0.593002,0.307928,-1.352092,0.107913,0.176763,19.470215,7.263184,-95.52002,0,0
21394,2024 10 23,05:27:08.267,-0.701768,0.235199,0.594971,0.313387,-1.36137,0.101077,0.160649,22.277832,14.526367,-106.628418,0,0
21395,2024 10 23,05:27:08.276,-0.700062,0.227364,0.596672,0.31969,-1.324259,0.105472,0.11475,21.118164,22.033691,-118.896484,0,0
21396,2024 10 23,05:27:08.284,-0.697813,0.218889,0.598663,0.326721,-1.426801,0.13477,0.160649,21.118164,16.662598,-132.568359,0,0
21397,2024 10 23,05:27:08.292,-0.695147,0.209496,0.600751,0.334636,-1.525926,0.111332,0.11475,22.949219,23.4375,-148.4375,0,0
21398,2024 10 23,05:27:08.301,-0.695147,0.209496,0.600751,0.334636,-1.525926,0.111332,0.11475,22.949219,23.4375,-148.4375,0,0
21399,2024 10 23,05:27:08.309,-0.691973,0.199116,0.602703,0.343912,-1.697317,0.151372,0.000488,17.63916,26.123047,-169.433594,0,0
21400,2024 10 23,05:27:08.317,-0.688229,0.187363,0.60467,0.354414,-1.783746,0.093753,-0.06006,19.40918,33.630371,-191.772461,0,0
21401,2024 10 23,05:27:08.326,-0.683906,0.174258,0.606053,0.366888,-1.903378,0.158696,-0.094241,10.864258,43.701172,-219.177246,0,0
21402,2024 10 23,05:27:08.334,-0.678671,0.159628,0.607136,0.381196,-2.086978,0.22071,-0.036622,8.728027,49.133301,-248.596191,0,0
21403,2024 10 23,05:27:08.342,-0.672628,0.14312,0.607528,0.39749,-2.365795,0.328623,-0.036134,7.141113,63.354492,-280.700684,0,0
21404,2024 10 23,05:27:08.351,-0.672628,0.14312,0.607528,0.39749,-2.365795,0.328623,-0.036134,7.141113,63.354492,-280.700684,0,0
21405,2024 10 23,05:27:08.359,-0.666186,0.124129,0.606906,0.415275,-2.520585,0.326182,-0.081545,10.070801,84.716797,-310.302734,0,0
21406,2024 10 23,05:27:08.367,-0.659877,0.102157,0.60456,0.43432,-2.464919,0.250008,-0.19776,15.991211,118.774414,-338.07373,0,0
21407,2024 10 23,05:27:08.376,-0.652889,0.078153,0.600965,0.45439,-2.581622,0.167486,-0.014649,15.991211,126.708984,-360.351563,0,0
21408,2024 10 23,05:27:08.384,-0.645652,0.052489,0.595462,0.475187,-2.704672,0.459975,0.550798,14.404297,158.691406,-375.12207,0,0
21409,2024 10 23,05:27:08.392,-0.639921,0.025199,0.587,0.495274,-2.122623,0.434584,0.308603,13.977051,188.903809,-369.018555,0,0
21410,2024 10 23,05:27:08.401,-0.639921,0.025199,0.587,0.495274,-2.122623,0.434584,0.308603,13.977051,188.903809,-369.018555,0,0
21411,2024 10 23,05:27:08.409,-0.632425,-0.001521,0.578863,0.514737,-2.096255,0.278329,-0.285165,20.874023,158.447266,-371.765137,0,0
21412,2024 10 23,05:27:08.417,-0.622944,-0.027592,0.57014,0.534901,-1.79693,0.638203,-0.125004,12.512207,165.771484,-385.864258,0,0
21413,2024 10 23,05:27:08.426,-0.611953,-0.054569,0.560795,0.555018,-1.272012,0.686056,-0.188971,3.662109,152.526855,-402.648926,0,1
21414,2024 10 23,05:27:08.434,-0.599353,-0.081274,0.55135,0.574616,-0.941435,0.440931,-0.57033,9.399414,141.906738,-401.489258,0,0
21415,2024 10 23,05:27:08.442,-0.584652,-0.105486,0.541866,0.594505,-0.195807,0.605976,-0.452651,-18.615723,110.046387,-398.498535,0,0
21416,2024 10 23,05:27:08.451,-0.584652,-0.105486,0.541866,0.594505,-0.195807,0.605976,-0.452651,-18.615723,110.046387,-398.498535,0,0
21417,2024 10 23,05:27:08.459,-0.570748,-0.12696,0.53269,0.611858,0.940458,0.970244,-1.01175,-15.441895,96.862793,-339.050293,0,0
21418,2024 10 23,05:27:08.467,-0.560777,-0.140628,0.523817,0.625595,0.80813,0.192389,-2.106998,-27.893066,49.01123,-218.383789,0,0
21419,2024 10 23,05:27:08.476,-0.552515,-0.135615,0.520431,0.636779,0.069338,1.689016,0.927763,-132.385254,-95.458984,-66.28418,0,0
21420,2024 10 23,05:27:08.484,-0.555631,-0.127883,0.516155,0.639143,-0.020997,1.501511,-0.654317,-96.496582,0.732422,76.049805,0,0
21421,2024 10 23,05:27:08.492,-0.56405,-0.115097,0.515568,0.634657,-0.406751,1.245643,0.308115,-53.894043,-40.100098,186.828613,0,0
21422,2024 10 23,05:27:08.501,-0.577823,-0.102172,0.515246,0.624662,-0.370617,0.938994,-0.204108,-38.879395,19.042969,248.840332,0,0
21423,2024 10 23,05:27:08.509,-0.577823,-0.102172,0.515246,0.624662,-0.370617,0.938994,-0.204108,-38.879395,19.042969,248.840332,0,0
21424,2024 10 23,05:27:08.517,-0.59298,-0.088788,0.516142,0.611628,-0.320811,0.643086,-0.540056,-17.63916,-8.972168,276.000977,0,0
21425,2024 10 23,05:27:08.526,-0.605963,-0.07383,0.519605,0.597804,-0.439467,0.43263,-0.275887,-6.958008,-39.245605,270.751953,0,0
21426,2024 10 23,05:27:08.534,-0.616693,-0.059142,0.523812,0.584648,-0.43263,0.411634,-0.507828,-3.479004,-60.546875,246.948242,0,0
21427,2024 10 23,05:27:08.542,-0.624579,-0.043988,0.529895,0.571995,-0.586444,0.37843,-0.28077,5.493164,-92.407227,231.323242,0,0
21428,2024 10 23,05:27:08.551,-0.63161,-0.028888,0.536254,0.559165,-0.650899,0.44142,-0.233894,8.422852,-91.674805,230.163574,0,0
21429,2024 10 23,05:27:08.559,-0.63161,-0.028888,0.536254,0.559165,-0.650899,0.44142,-0.233894,8.422852,-91.674805,230.163574,0,0
21430,2024 10 23,05:27:08.567,-0.639034,-0.013619,0.542335,0.545273,-0.645527,0.460463,-0.263192,12.329102,-89.172363,244.628906,0,0
21431,2024 10 23,05:27:08.576,-0.647047,0.002642,0.548091,0.530018,-0.670431,0.398938,-0.257332,9.643555,-89.233398,265.197754,0,0
21432,2024 10 23,05:27:08.584,-0.655288,0.020413,0.553384,0.513757,-0.674337,0.312021,-0.357433,-0.488281,-95.88623,282.470703,0,0
21433,2024 10 23,05:27:08.592,-0.662778,0.040214,0.55853,0.497144,-0.681661,0.23487,-0.399915,-15.991211,-113.769531,291.992188,0,0
21434,2024 10 23,05:27:08.601,-0.668607,0.062291,0.563756,0.480898,-0.775903,0.219245,-0.390149,-37.29248,-139.465332,292.541504,0,0
21435,2024 10 23,05:27:08.609,-0.668607,0.062291,0.563756,0.480898,-0.775903,0.219245,-0.390149,-37.29248,-139.465332,292.541504,0,0
21436,2024 10 23,05:27:08.617,-0.67237,0.08662,0.569201,0.465216,-0.953154,0.273934,-0.255379,-57.678223,-165.710449,290.95459,0,0
21437,2024 10 23,05:27:08.626,-0.674495,0.112506,0.574508,0.449821,-1.188513,0.341319,-0.082034,-71.899414,-180.419922,289.672852,0,0
21438,2024 10 23,05:27:08.634,-0.675598,0.138884,0.579238,0.434468,-1.385296,0.387707,0.094729,-77.819824,-182.617188,287.29248,0,0
21439,2024 10 23,05:27:08.642,-0.676377,0.164914,0.582896,0.418988,-1.477096,0.420911,0.17481,-78.24707,-173.156738,286.376953,0,0
21440,2024 10 23,05:27:08.651,-0.677061,0.190245,0.585575,0.403108,-1.551805,0.429212,0.214362,-73.913574,-165.344238,286.437988,0,0
21441,2024 10 23,05:27:08.659,-0.677061,0.190245,0.585575,0.403108,-1.551805,0.429212,0.214362,-73.913574,-165.344238,286.437988,0,0
21442,2024 10 23,05:27:08.667,-0.677455,0.214883,0.587681,0.386666,-1.595263,0.462416,0.279794,-67.810059,-161.865234,286.071777,0,0
21443,2024 10 23,05:27:08.676,-0.677536,0.238598,0.589538,0.369408,-1.671926,0.503433,0.287118,-55.664063,-161.743164,285.583496,0,0
21444,2024 10 23,05:27:08.684,-0.677174,0.261236,0.591559,0.351068,-1.820368,0.531266,0.326182,-39.0625,-164.794922,284.179688,0,0
21445,2024 10 23,05:27:08.692,-0.676538,0.28241,0.593755,0.331656,-1.934629,0.510269,0.317881,-20.874023,-165.100098,280.700684,0,0
21446,2024 10 23,05:27:08.701,-0.675561,0.301984,0.596254,0.311293,-2.026917,0.342296,0.250008,-2.502441,-167.602539,275.20752,0,0
21447,2024 10 23,05:27:08.709,-0.675561,0.301984,0.596254,0.311293,-2.026917,0.342296,0.250008,-2.502441,-167.602539,275.20752,0,0
21448,2024 10 23,05:27:08.717,-0.673973,0.320226,0.599091,0.290355,-2.105045,0.059084,0.175298,8.789063,-171.630859,268.554688,0,0
21449,2024 10 23,05:27:08.726,-0.671493,0.337477,0.602202,0.26937,-2.165105,-0.24659,0.144536,11.657715,-177.246094,259.643555,0,0
21450,2024 10 23,05:27:08.734,-0.667893,0.353917,0.605575,0.248879,-2.247139,-0.551286,0.144047,11.230469,-182.739258,247.070313,0,0
21451,2024 10 23,05:27:08.742,-0.663234,0.369389,0.609223,0.229173,-2.446852,-0.778344,0.252937,9.765625,-184.936523,231.445313,0,0
21452,2024 10 23,05:27:08.751,-0.658594,0.382982,0.612567,0.210571,-2.554765,-1.166051,0.311533,17.272949,-168.640137,212.890625,0,0
21453,2024 10 23,05:27:08.759,-0.658594,0.382982,0.612567,0.210571,-2.554765,-1.166051,0.311533,17.272949,-168.640137,212.890625,0,0
21454,2024 10 23,05:27:08.767,-0.654756,0.394811,0.61491,0.193145,-2.450758,-1.640675,0.229499,22.766113,-146.911621,204.223633,0,0
21455,2024 10 23,05:27:08.776,-0.651523,0.406326,0.615885,0.17636,-2.065004,-2.062563,0.170904,18.188477,-129.943848,209.838867,0,0
21456,2024 10 23,05:27:08.784,-0.647393,0.417878,0.616865,0.160432,-1.369182,-2.373119,0.400403,5.859375,-141.845703,195.983887,0,0
21457,2024 10 23,05:27:08.792,-0.639207,0.428301,0.621842,0.145894,-1.106479,-2.422925,1.017609,-7.324219,-206.359863,141.479492,0,0
21458,2024 10 23,05:27:08.801,-0.626386,0.43581,0.632637,0.132212,-1.903867,-2.41023,1.965392,0.488281,-269.53125,79.162598,0,0
21459,2024 10 23,05:27:08.809,-0.626386,0.43581,0.632637,0.132212,-1.903867,-2.41023,1.965392,0.488281,-269.53125,79.162598,0,0
21460,2024 10 23,05:27:08.817,-0.61426,0.439051,0.644533,0.120398,-4.610492,-3.050386,1.87701,25.085449,-232.421875,37.597656,0,0
21461,2024 10 23,05:27:08.826,-0.608557,0.433895,0.653955,0.117205,-3.583606,-3.223731,5.131504,71.411133,-68.42041,-66.589355,0,0
21462,2024 10 23,05:27:08.834,-0.62398,0.418653,0.647287,0.128057,-2.588458,-5.004547,0.402844,55.175781,267.272949,-135.437012,0,0
21463,2024 10 23,05:27:08.842,-0.631869,0.404843,0.64407,0.148381,-0.815455,-2.284738,0.764183,-42.907715,165.222168,-203.430176,1,0
21464,2024 10 23,05:27:08.851,-0.635907,0.398738,0.637745,0.17295,-1.342326,1.252968,-0.256844,-124.328613,208.312988,-166.748047,0,0
21465,2024 10 23,05:27:08.859,-0.635907,0.398738,0.637745,0.17295,-1.342326,1.252968,-0.256844,-124.328613,208.312988,-166.748047,0,0
21466,2024 10 23,05:27:08.867,-0.643433,0.390529,0.6306,0.189276,-1.468307,1.257363,-0.788598,-23.925781,199.09668,-132.8125,0,0
21467,2024 10 23,05:27:08.876,-0.651374,0.37948,0.624275,0.204908,-1.021516,1.054231,-0.912625,0.793457,195.3125,-160.217285,0,0
21468,2024 10 23,05:27:08.884,-0.65689,0.364561,0.623932,0.215175,-1.112827,-0.052736,0.922391,79.589844,97.595215,-168.823242,0,0
21469,2024 10 23,05:27:08.892,-0.662799,0.351223,0.622137,0.224245,-1.130894,-0.345225,0.346202,39.306641,134.58252,-126.647949,0,0
21470,2024 10 23,05:27:08.901,-0.66774,0.34293,0.618898,0.231273,-1.078158,-0.16895,0.288583,21.30127,94.055176,-72.44873,0,0
21471,2024 10 23,05:27:08.909,-0.66774,0.34293,0.618898,0.231273,-1.078158,-0.16895,0.288583,21.30127,94.055176,-72.44873,0,0
21472,2024 10 23,05:27:08.917,-0.671512,0.337337,0.615575,0.237368,-0.961943,0.444349,0.093265,5.371094,91.003418,-61.401367,0,0
21473,2024 10 23,05:27:08.926,-0.67487,0.331192,0.614005,0.240539,-0.998566,0.071291,-0.147954,42.785645,51.818848,-50.109863,0,0
21474,2024 10 23,05:27:08.934,-0.676521,0.326101,0.614421,0.241793,-1.02298,-0.076662,0.261238,31.066895,25.32959,-39.550781,0,0
21475,2024 10 23,05:27:08.942,-0.678001,0.322523,0.613761,0.244112,-0.961943,0.043458,-0.088382,10.192871,33.569336,-34.484863,0,0
21476,2024 10 23,05:27:08.951,-0.678608,0.319909,0.613809,0.24574,-1.145054,0.096194,-0.117679,14.648438,13.427734,-27.160645,0,0
21477,2024 10 23,05:27:08.959,-0.679814,0.317336,0.613384,0.246801,-1.107944,-0.005371,0.045412,14.404297,29.724121,-18.920898,0,0
21478,2024 10 23,05:27:08.967,-0.679814,0.317336,0.613384,0.246801,-1.107944,-0.005371,0.045412,14.404297,29.724121,-18.920898,0,0
21479,2024 10 23,05:27:08.976,-0.681872,0.315141,0.611652,0.24823,-0.974151,0.060549,-0.025391,10.070801,39.245605,-11.71875,0,0
21480,2024 10 23,05:27:08.984,-0.683554,0.313453,0.61034,0.248971,-1.013214,0.119633,0.040529,9.70459,27.34375,-7.080078,0,0
21481,2024 10 23,05:27:08.992,-0.685223,0.311899,0.60903,0.249542,-1.016633,0.099124,0.073733,10.620117,29.35791,-5.432129,0,0
21482,2024 10 23,05:27:09.001,-0.686928,0.310356,0.607682,0.250063,-0.973662,0.116703,0.029298,10.742188,27.648926,-5.004883,0,0
21483,2024 10 23,05:27:09.009,-0.688136,0.308903,0.606884,0.250478,-0.991729,0.129887,0.051271,10.620117,18.188477,-7.8125,0,0
21484,2024 10 23,05:27:09.017,-0.688136,0.308903,0.606884,0.250478,-0.991729,0.129887,0.051271,10.620117,18.188477,-7.8125,0,0
21485,2024 10 23,05:27:09.026,-0.689055,0.30739,0.60642,0.250937,-0.986847,0.115726,0.134281,10.070801,16.418457,-10.559082,0,0
21486,2024 10 23,05:27:09.034,-0.689897,0.305803,0.605984,0.251614,-0.947783,0.098636,0.070315,9.521484,14.404297,-13.061523,0,0
21487,2024 10 23,05:27:09.042,-0.690279,0.304351,0.606028,0.252221,-0.954131,0.096683,0.088382,8.483887,7.019043,-13.85498,0,0
21488,2024 10 23,05:27:09.051,-0.690428,0.303099,0.606245,0.2528,-0.958525,0.082034,0.065432,6.469727,4.455566,-13.48877,0,0
21489,2024 10 23,05:27:09.059,-0.690408,0.302031,0.606577,0.253336,-0.94583,0.080081,0.0459,5.249023,1.220703,-12.512207,0,0
21490,2024 10 23,05:27:09.067,-0.690408,0.302031,0.606577,0.253336,-0.94583,0.080081,0.0459,5.249023,1.220703,-12.512207,0,0
21491,2024 10 23,05:27:09.076,-0.690248,0.301177,0.606978,0.253826,-0.935087,0.086917,0.070803,3.417969,-0.12207,-11.291504,0,0
21492,2024 10 23,05:27:09.084,-0.690059,0.300446,0.607378,0.254248,-0.935087,0.082034,0.060549,2.685547,-1.464844,-10.192871,0,0
21493,2024 10 23,05:27:09.092,-0.689733,0.299898,0.607835,0.254688,-0.96585,0.095706,0.050295,0.793457,-2.990723,-10.070801,0,0
21494,2024 10 23,05:27:09.101,-0.689408,0.299343,0.608274,0.255173,-0.985382,0.078127,0.020997,0.732422,-1.77002,-10.131836,0,0
21495,2024 10 23,05:27:09.109,-0.689206,0.298805,0.608519,0.255766,-0.98587,0.076662,0.023927,0.244141,1.342773,-9.643555,0,0
21496,2024 10 23,05:27:09.117,-0.689206,0.298805,0.608519,0.255766,-0.98587,0.076662,0.023927,0.244141,1.342773,-9.643555,0,0
21497,2024 10 23,05:27:09.126,-0.689101,0.298303,0.608582,0.256483,-0.968291,0.095706,0.04883,-1.586914,3.295898,-9.58252,0,0
21498,2024 10 23,05:27:09.134,-0.689089,0.297752,0.608574,0.257174,-0.959014,0.084475,0.076174,-0.12207,4.272461,-9.216309,0,0
21499,2024 10 23,05:27:09.142,-0.689106,0.297176,0.608504,0.257958,-0.963897,0.094241,0.073733,-1.525879,5.187988,-10.314941,0,0
21500,2024 10 23,05:27:09.151,-0.689181,0.296522,0.6084,0.258754,-0.973662,0.092288,0.055177,0.0,6.164551,-10.314941,0,0
21501,2024 10 23,05:27:09.159,-0.689365,0.295809,0.608223,0.259494,-0.989776,0.080569,0.053713,0.549316,7.8125,-9.521484,0,0
21502,2024 10 23,05:27:09.167,-0.689365,0.295809,0.608223,0.259494,-0.989776,0.080569,0.053713,0.549316,7.8125,-9.521484,0,0
21503,2024 10 23,05:27:09.176,-0.689694,0.295066,0.607895,0.260235,-1.004425,0.088382,0.051271,0.915527,10.498047,-8.789063,0,0
21504,2024 10 23,05:27:09.184,-0.690279,0.294251,0.607319,0.26095,-1.00882,0.092288,0.048341,2.075195,14.648438,-7.263184,0,0
21505,2024 10 23,05:27:09.192,-0.691163,0.293305,0.606498,0.261582,-1.001495,0.075686,0.053224,3.90625,18.737793,-5.859375,0,0
21506,2024 10 23,05:27:09.201,-0.692111,0.292345,0.605557,0.262331,-0.992706,0.101077,0.08594,2.380371,19.714355,-7.019043,0,0
21507,2024 10 23,05:27:09.209,-0.693184,0.291228,0.604548,0.263066,-1.0347,0.080081,0.043947,4.577637,21.54541,-7.202148,0,0
21508,2024 10 23,05:27:09.217,-0.693184,0.291228,0.604548,0.263066,-1.0347,0.080081,0.043947,4.577637,21.54541,-7.202148,0,0
21509,2024 10 23,05:27:09.226,-0.694196,0.290071,0.603583,0.26389,-1.01175,0.098148,0.073244,4.943848,21.54541,-8.117676,0,0
21510,2024 10 23,05:27:09.234,-0.695294,0.288768,0.602613,0.264644,-1.001984,0.098148,0.097659,4.882813,21.911621,-9.094238,0,0
21511,2024 10 23,05:27:09.242,-0.69635,0.287372,0.601719,0.265419,-0.997101,0.049806,0.069338,6.713867,20.751953,-9.643555,0,0
21512,2024 10 23,05:27:09.251,-0.697172,0.286099,0.600957,0.266365,-0.996612,0.097659,0.127445,4.394531,18.432617,-11.59668,0,0
21513,2024 10 23,05:27:09.259,-0.697981,0.284624,0.600298,0.267308,-1.010773,0.115726,0.123051,6.225586,17.883301,-13.48877,0,0
21514,2024 10 23,05:27:09.267,-0.697981,0.284624,0.600298,0.267308,-1.010773,0.115726,0.123051,6.225586,17.883301,-13.48877,0,0
21515,2024 10 23,05:27:09.276,-0.698685,0.282915,0.599943,0.26808,-1.111362,0.070803,0.031739,10.620117,14.526367,-15.136719,0,0
21516,2024 10 23,05:27:09.284,-0.699213,0.281135,0.599728,0.269054,-1.05472,0.107425,0.096683,10.620117,15.869141,-18.188477,0,0
21517,2024 10 23,05:27:09.292,-0.699965,0.278961,0.599434,0.270015,-1.00882,0.079592,0.107913,11.291504,17.456055,-20.507813,0,0
21518,2024 10 23,05:27:09.301,-0.700633,0.27666,0.599207,0.271152,-1.132359,0.077151,0.014161,11.413574,16.113281,-23.010254,0,0
21519,2024 10 23,05:27:09.309,-0.700901,0.27435,0.599227,0.272758,-1.084506,0.093753,0.168462,10.620117,16.540527,-30.029297,0,0
21520,2024 10 23,05:27:09.317,-0.700901,0.27435,0.599227,0.272758,-1.084506,0.093753,0.168462,10.620117,16.540527,-30.029297,0,0
21521,2024 10 23,05:27:09.326,-0.701416,0.271344,0.599072,0.274775,-1.211951,0.102054,0.06299,7.263184,18.554688,-37.29248,0,0
21522,2024 10 23,05:27:09.334,-0.701548,0.268036,0.599214,0.27736,-1.277383,0.075198,0.116214,14.343262,19.714355,-44.799805,0,0
21523,2024 10 23,05:27:09.342,-0.701655,0.264015,0.599279,0.280785,-1.325724,0.155766,0.100101,9.277344,23.864746,-58.654785,0,0
21524,2024 10 23,05:27:09.351,-0.701444,0.259294,0.599657,0.284876,-1.346233,0.142094,0.1377,15.197754,24.475098,-71.411133,0,0
21525,2024 10 23,05:27:09.359,-0.70072,0.253751,0.600519,0.289791,-1.396039,0.183111,0.189459,8.483887,20.751953,-88.012695,0,0
21526,2024 10 23,05:27:09.367,-0.699592,0.24727,0.601703,0.295605,-1.549364,0.126957,0.093265,8.483887,20.751953,-88.012695,0,0
21527,2024 10 23,05:27:09.376,-0.699592,0.24727,0.601703,0.295605,-1.549364,0.126957,0.093265,13.61084,21.66748,-104.125977,0,0
21528,2024 10 23,05:27:09.384,-0.697589,0.239814,0.60342,0.302891,-1.741264,0.112308,0.00293,8.178711,19.226074,-129.150391,0,0
21529,2024 10 23,05:27:09.392,-0.69473,0.231339,0.605324,0.312114,-1.808161,0.273446,0.085452,2.807617,23.803711,-155.883789,0,0
21530,2024 10 23,05:27:09.401,-0.691787,0.221135,0.60689,0.322823,-1.864315,0.323252,-0.011719,5.432129,35.705566,-179.626465,0,0
21531,2024 10 23,05:27:09.409,-0.687957,0.209247,0.608936,0.334855,-2.123112,0.245613,-0.034181,8.728027,31.738281,-208.007813,0,0
21532,2024 10 23,05:27:09.417,-0.682329,0.195913,0.611544,0.34937,-2.51912,0.595721,0.082034,-0.366211,28.686523,-248.413086,0,0
21533,2024 10 23,05:27:09.426,-0.682329,0.195913,0.611544,0.34937,-2.51912,0.595721,0.082034,-0.366211,28.686523,-248.413086,0,0
21534,2024 10 23,05:27:09.434,-0.676441,0.17919,0.613738,0.365575,-2.722739,0.828639,0.203131,19.714355,55.114746,-288.330078,0,0
21535,2024 10 23,05:27:09.442,-0.671309,0.157807,0.614509,0.383171,-2.638752,0.7051,0.003906,37.841797,94.482422,-326.904297,0,0
21536,2024 10 23,05:27:09.451,-0.665147,0.133223,0.614796,0.402315,-2.572344,0.495621,-0.041993,47.607422,99.67041,-364.318848,0,0
21537,2024 10 23,05:27:09.459,-0.657048,0.10689,0.614443,0.423464,-2.431715,0.612323,0.006348,36.254883,104.309082,-398.132324,0,0
21538,2024 10 23,05:27:09.467,-0.647375,0.079544,0.613818,0.444754,-2.694418,0.55031,0.477554,37.719727,97.77832,-411.132813,0,1
21539,2024 10 23,05:27:09.476,-0.647375,0.079544,0.613818,0.444754,-2.694418,0.55031,0.477554,37.719727,97.77832,-411.132813,0,0
21540,2024 10 23,05:27:09.484,-0.638423,0.051909,0.610387,0.465993,-2.203192,0.583026,0.682638,25.20752,136.71875,-400.634766,0,0
21541,2024 10 23,05:27:09.492,-0.630204,0.023806,0.604919,0.486157,-1.475143,0.368175,-0.300302,30.212402,138.366699,-392.150879,0,0
21542,2024 10 23,05:27:09.501,-0.620924,-0.002159,0.597654,0.507207,-0.365246,0.710959,-0.726585,-3.90625,145.385742,-381.713867,0,0
21543,2024 10 23,05:27:09.509,-0.614949,-0.022721,0.585898,0.5273,3.33018,2.475662,-1.981506,-88.378906,178.039551,-282.897949,0,0
21544,2024 10 23,05:27:09.517,-0.616067,-0.023689,0.578051,0.534562,0.053713,1.770074,-3.530869,-95.825195,-20.568848,14.953613,0,0
21545,2024 10 23,05:27:09.526,-0.616067,-0.023689,0.578051,0.534562,0.053713,1.770074,-3.530869,-95.825195,-20.568848,14.953613,0,0
21546,2024 10 23,05:27:09.534,-0.609315,-0.00221,0.581757,0.538785,-1.394086,2.910733,2.301828,-164.18457,-179.748535,72.08252,0,0
21547,2024 10 23,05:27:09.542,-0.619787,0.003492,0.570511,0.538859,-0.387707,2.018616,-0.825709,-92.102051,194.458008,86.975098,0,0
21548,2024 10 23,05:27:09.551,-0.631272,0.005584,0.559816,0.536722,0.990265,1.839412,-1.884823,-49.621582,82.763672,98.571777,0,0
21549,2024 10 23,05:27:09.559,-0.635743,0.015129,0.559596,0.531465,0.646504,1.910215,-0.284188,-32.897949,-32.897949,131.591797,0,0
21550,2024 10 23,05:27:09.567,-0.641638,0.025819,0.560557,0.522887,0.38966,1.960997,-1.225135,-10.009766,-49.194336,170.654297,0,0
21551,2024 10 23,05:27:09.576,-0.641638,0.025819,0.560557,0.522887,0.38966,1.960997,-1.225135,-10.009766,-49.194336,170.654297,0,0
21552,2024 10 23,05:27:09.584,-0.645485,0.04054,0.567603,0.509444,-0.153813,1.715384,-0.374035,33.569336,-128.479004,220.153809,0,0
21553,2024 10 23,05:27:09.592,-0.65151,0.056118,0.574955,0.491743,-0.291025,1.417524,-0.683126,51.452637,-106.567383,268.310547,0,0
21554,2024 10 23,05:27:09.601,-0.657927,0.074056,0.583327,0.470507,-0.568865,1.118198,-0.766137,58.71582,-143.493652,310.974121,0,0
21555,2024 10 23,05:27:09.609,-0.66368,0.094725,0.592427,0.446751,-0.978545,0.776879,-0.542009,54.748535,-157.226563,340.576172,0,0
21556,2024 10 23,05:27:09.617,-0.669436,0.116882,0.599711,0.422541,-1.313028,0.578631,-0.675802,33.752441,-152.282715,352.172852,0,0
21557,2024 10 23,05:27:09.626,-0.669436,0.116882,0.599711,0.422541,-1.313028,0.578631,-0.675802,33.752441,-152.282715,352.172852,0,0
21558,2024 10 23,05:27:09.634,-0.673773,0.140714,0.6063,0.398283,-1.615284,0.305185,-0.363292,14.831543,-164.306641,358.703613,0,0
21559,2024 10 23,05:27:09.642,-0.677968,0.165689,0.610024,0.375203,-1.79693,0.076662,-0.322275,-17.333984,-140.869141,361.14502,0,0
21560,2024 10 23,05:27:09.651,-0.681293,0.19166,0.611421,0.353935,-1.847713,-0.040529,-0.179693,-47.973633,-137.390137,354.248047,0,0
21561,2024 10 23,05:27:09.659,-0.682904,0.218334,0.611935,0.333928,-1.902402,-0.264657,0.093753,-67.749023,-143.127441,344.970703,0,0
21562,2024 10 23,05:27:09.667,-0.682868,0.245362,0.611622,0.31529,-1.926817,-0.565935,0.207526,-87.341309,-151.184082,334.350586,0,0
21563,2024 10 23,05:27:09.676,-0.682868,0.245362,0.611622,0.31529,-1.926817,-0.565935,0.207526,-87.341309,-151.184082,334.350586,0,0
21564,2024 10 23,05:27:09.684,-0.679954,0.273018,0.612025,0.297572,-2.204169,-0.789575,0.685568,-102.539063,-180.236816,320.495605,0,0
21565,2024 10 23,05:27:09.692,-0.675409,0.299613,0.612384,0.281142,-2.656819,-1.173376,1.063997,-105.224609,-177.001953,295.837402,0,0
21566,2024 10 23,05:27:09.701,-0.670916,0.323181,0.611458,0.26748,-2.821375,-1.818415,1.168981,-106.628418,-142.089844,258.056641,0,0
21567,2024 10 23,05:27:09.709,-0.666764,0.343285,0.609237,0.257704,-2.632893,-2.431226,1.040559,-110.412598,-109.985352,211.975098,0,0
21568,2024 10 23,05:27:09.717,-0.661561,0.360551,0.607274,0.252107,-2.394116,-2.876553,1.164586,-123.168945,-97.229004,156.799316,0,0
21569,2024 10 23,05:27:09.726,-0.661561,0.360551,0.607274,0.252107,-2.394116,-2.876553,1.164586,-123.168945,-97.229004,156.799316,0,0
21570,2024 10 23,05:27:09.734,-0.654577,0.374169,0.607111,0.250883,-2.142155,-2.977142,1.345256,-125.732422,-98.876953,83.312988,0,0
21571,2024 10 23,05:27:09.742,-0.645802,0.383604,0.609568,0.253405,-1.72515,-2.71981,1.491256,-114.807129,-105.46875,11.71875,0,0
21572,2024 10 23,05:27:09.751,-0.63582,0.389065,0.61507,0.257004,-3.352153,-2.891201,1.258339,-87.402344,-126.586914,-36.682129,0,0
21573,2024 10 23,05:27:09.759,-0.624315,0.389582,0.625141,0.260105,-3.573839,-2.744224,6.581743,-27.160645,-128.78418,-91.308594,0,0
21574,2024 10 23,05:27:09.767,-0.635546,0.376625,0.617065,0.271044,-1.897031,-4.866848,1.456587,14.526367,286.010742,-85.81543,0,0
21575,2024 10 23,05:27:09.776,-0.635546,0.376625,0.617065,0.271044,-1.897031,-4.866848,1.456587,14.526367,286.010742,-85.81543,0,0
21576,2024 10 23,05:27:09.784,-0.642326,0.369102,0.605799,0.290151,1.411176,-0.694846,0.935575,-149.291992,186.828613,-99.304199,1,0
21577,2024 10 23,05:27:09.792,-0.643509,0.371875,0.59928,0.297438,-0.756371,0.686056,1.247597,-7.080078,30.700684,32.043457,0,0
21578,2024 10 23,05:27:09.801,-0.650132,0.369081,0.59552,0.294047,-1.455611,-0.02588,-1.185583,41.07666,95.275879,36.437988,0,0
21579,2024 10 23,05:27:09.809,-0.65501,0.367625,0.590205,0.295756,-1.226112,0.467788,0.102542,5.493164,66.772461,2.01416,0,0
21580,2024 10 23,05:27:09.817,-0.65508,0.365863,0.587696,0.302702,-1.200232,0.618183,0.379894,-53.955078,63.903809,-60.424805,0,0
21581,2024 10 23,05:27:09.826,-0.659356,0.361263,0.584458,0.305201,-1.318888,-0.45558,-0.642598,46.75293,77.880859,-5.249023,0,0
21582,2024 10 23,05:27:09.834,-0.659356,0.361263,0.584458,0.305201,-1.318888,-0.45558,-0.642598,46.75293,77.880859,-5.249023,0,0
21583,2024 10 23,05:27:09.842,-0.663262,0.35895,0.580644,0.306742,-0.743675,0.336924,0.74514,1.098633,71.166992,3.234863,0,0
21584,2024 10 23,05:27:09.851,-0.666147,0.356664,0.577672,0.308761,-1.022004,0.31251,-0.315439,5.615234,45.166016,-13.366699,0,0
21585,2024 10 23,05:27:09.859,-0.667561,0.354229,0.577466,0.308898,-0.987335,-0.040529,0.499039,27.099609,20.812988,-10.620117,0,0
21586,2024 10 23,05:27:09.867,-0.669358,0.351927,0.576132,0.310127,-0.811548,0.195807,-0.000488,7.263184,32.592773,-13.85498,0,0
21587,2024 10 23,05:27:09.876,-0.669247,0.350382,0.576985,0.310529,-0.927274,0.066897,0.129887,12.817383,-10.620117,-19.104004,0,0
21588,2024 10 23,05:27:09.884,-0.669247,0.350382,0.576985,0.310529,-0.927274,0.066897,0.129887,12.817383,-10.620117,-19.104004,0,0
21589,2024 10 23,05:27:09.892,-0.668153,0.349296,0.57859,0.311123,-1.026887,0.084964,0.066408,2.746582,-10.986328,-22.277832,0,0
21590,2024 10 23,05:27:09.901,-0.667087,0.348289,0.579926,0.31205,-0.995636,0.055177,-0.060549,2.502441,-11.108398,-23.132324,0,0
21591,2024 10 23,05:27:09.909,-0.665711,0.34751,0.581412,0.313091,-0.993194,0.043458,0.105472,-3.112793,-11.84082,-23.803711,0,0
21592,2024 10 23,05:27:09.917,-0.664607,0.346817,0.582349,0.314459,-0.933622,0.059572,0.026368,-5.310059,-6.530762,-22.155762,0,0
21593,2024 10 23,05:27:09.926,-0.663252,0.346416,0.583495,0.315635,-1.008332,0.086917,0.096194,-5.737305,-13.000488,-20.629883,0,0
21594,2024 10 23,05:27:09.934,-0.663252,0.346416,0.583495,0.315635,-1.008332,0.086917,0.096194,-5.737305,-13.000488,-20.629883,0,0
21595,2024 10 23,05:27:09.942,-0.662032,0.345964,0.584621,0.316608,-1.082064,0.109867,0.030274,-3.417969,-10.192871,-18.920898,0,0
21596,2024 10 23,05:27:09.951,-0.661189,0.345325,0.585498,0.317446,-1.099155,0.070315,-0.013672,-0.183105,-5.004883,-16.662598,0,0
21597,2024 10 23,05:27:09.959,-0.660786,0.344531,0.585976,0.318263,-1.041047,0.085452,0.059084,1.098633,2.01416,-14.282227,0,0
21598,2024 10 23,05:27:09.967,-0.660765,0.343552,0.586102,0.319134,-1.009308,0.083499,0.014161,2.319336,6.713867,-13.671875,0,0
21599,2024 10 23,05:27:09.976,-0.660712,0.342579,0.586334,0.319862,-1.001007,0.110843,0.113773,4.089355,3.90625,-13.244629,0,0
21600,2024 10 23,05:27:09.984,-0.660712,0.342579,0.586334,0.319862,-1.001007,0.110843,0.113773,4.089355,3.90625,-13.244629,0,0
21601,2024 10 23,05:27:09.992,-0.660832,0.341399,0.586596,0.320395,-0.990753,0.090823,0.063478,6.164551,5.554199,-12.573242,0,0
21602,2024 10 23,05:27:10.001,-0.66093,0.340182,0.586966,0.32081,-0.959014,0.059572,0.055666,9.521484,3.112793,-12.390137,0,0
21603,2024 10 23,05:27:10.009,-0.660715,0.339101,0.587625,0.321189,-1.001495,0.109867,0.08887,5.737305,-2.13623,-14.221191,0,0
21604,2024 10 23,05:27:10.017,-0.660494,0.337879,0.588433,0.321455,-0.991241,0.025391,0.016114,11.352539,-1.525879,-13.977051,0,0
21605,2024 10 23,05:27:10.026,-0.660127,0.336792,0.589243,0.321863,-1.004425,0.058596,0.010743,6.286621,-3.356934,-14.831543,0,0
21606,2024 10 23,05:27:10.034,-0.660127,0.336792,0.589243,0.321863,-1.004425,0.058596,0.010743,6.286621,-3.356934,-14.831543,0,0
21607,2024 10 23,05:27:10.042,-0.65987,0.33566,0.590003,0.322182,-1.014679,0.035646,0.044435,8.789063,-0.793457,-13.73291,0,0
21608,2024 10 23,05:27:10.051,-0.659927,0.3344,0.590413,0.322624,-0.984893,0.0459,0.02295,7.385254,4.760742,-13.000488,0,0
21609,2024 10 23,05:27:10.059,-0.660039,0.333184,0.590728,0.323074,-0.988311,0.038087,0.055666,8.178711,4.821777,-12.329102,0,0
21610,2024 10 23,05:27:10.067,-0.660251,0.331913,0.590927,0.323586,-1.046419,0.014649,-0.020508,7.141113,7.507324,-12.329102,0,0
21611,2024 10 23,05:27:10.076,-0.660536,0.330675,0.590879,0.324358,-1.024445,0.058596,0.051271,5.92041,11.413574,-12.939453,0,0
21612,2024 10 23,05:27:10.084,-0.660536,0.330675,0.590879,0.324358,-1.024445,0.058596,0.051271,5.92041,11.413574,-12.939453,0,0
21613,2024 10 23,05:27:10.092,-0.661147,0.329161,0.59058,0.325196,-0.977081,0.038087,0.072268,5.554199,16.357422,-13.427734,0,0
21614,2024 10 23,05:27:10.101,-0.66182,0.327652,0.590108,0.326207,-0.98587,0.027833,0.0459,5.615234,17.578125,-13.671875,0,0
21615,2024 10 23,05:27:10.109,-0.66225,0.326231,0.589792,0.327328,-0.999542,0.072756,0.125004,3.112793,14.160156,-15.686035,0,0
21616,2024 10 23,05:27:10.117,-0.662745,0.3246,0.589515,0.328446,-0.990265,0.037111,0.101566,5.493164,16.174316,-17.089844,0,0
21617,2024 10 23,05:27:10.126,-0.663135,0.322954,0.589246,0.329761,-1.046907,0.033204,0.036622,3.540039,14.953613,-19.226074,0,0
21618,2024 10 23,05:27:10.134,-0.663135,0.322954,0.589246,0.329761,-1.046907,0.033204,0.036622,3.540039,14.953613,-19.226074,0,0
21619,2024 10 23,05:27:10.142,-0.663165,0.321386,0.589262,0.3312,-1.065462,0.076174,0.145512,1.89209,11.71875,-22.460938,0,0
21620,2024 10 23,05:27:10.151,-0.66347,0.319357,0.589043,0.332935,-1.053255,0.003418,0.04004,2.807617,19.104004,-26.123047,0,0
21621,2024 10 23,05:27:10.159,-0.663302,0.317407,0.589086,0.335054,-1.14066,0.11182,0.12598,0.061035,12.207031,-31.677246,0,0
21622,2024 10 23,05:27:10.167,-0.66315,0.31478,0.589351,0.337358,-1.087435,0.037599,0.136723,4.394531,17.333984,-39.306641,0,0
21623,2024 10 23,05:27:10.176,-0.662745,0.311835,0.589716,0.340238,-1.150914,0.129398,0.127445,2.13623,14.404297,-46.691895,0,0
21624,2024 10 23,05:27:10.184,-0.662745,0.311835,0.589716,0.340238,-1.150914,0.129398,0.127445,2.13623,14.404297,-46.691895,0,0
21625,2024 10 23,05:27:10.192,-0.661952,0.308383,0.590776,0.343078,-1.236366,0.047365,0.101566,9.70459,9.033203,-54.382324,0,0
21626,2024 10 23,05:27:10.201,-0.660494,0.304827,0.592186,0.346617,-1.340373,0.127934,0.142582,3.112793,5.92041,-64.697266,0,0
21627,2024 10 23,05:27:10.209,-0.658715,0.300637,0.59391,0.35069,-1.456099,0.150884,0.135746,2.197266,7.141113,-77.209473,0,0
21628,2024 10 23,05:27:10.217,-0.656889,0.295287,0.59556,0.355825,-1.57329,0.107913,-0.02295,6.286621,16.845703,-93.688965,0,0
21629,2024 10 23,05:27:10.226,-0.654363,0.289201,0.597495,0.362177,-1.712455,0.188482,0.104495,1.037598,15.74707,-111.755371,0,0
21630,2024 10 23,05:27:10.234,-0.654363,0.289201,0.597495,0.362177,-1.712455,0.188482,0.104495,1.037598,15.74707,-111.755371,0,0
21631,2024 10 23,05:27:10.242,-0.651799,0.281764,0.599255,0.369676,-1.741264,0.181158,0.019532,1.831055,29.296875,-130.065918,0,0
21632,2024 10 23,05:27:10.251,-0.648747,0.272998,0.601055,0.378592,-1.73101,0.238289,0.04883,4.089355,32.836914,-152.832031,0,0
21633,2024 10 23,05:27:10.259,-0.645241,0.262733,0.60323,0.388266,-1.637745,0.170904,0.078127,8.056641,37.04834,-171.142578,0,0
21634,2024 10 23,05:27:10.267,-0.641315,0.251511,0.605486,0.398553,-1.500046,0.206549,0.181646,10.620117,38.391113,-183.227539,0,0
21635,2024 10 23,05:27:10.276,-0.637493,0.239041,0.607652,0.408926,-1.279336,-0.010254,-0.056642,21.118164,44.677734,-188.659668,0,1
21636,2024 10 23,05:27:10.284,-0.632976,0.227082,0.609755,0.419491,-0.875027,-0.073733,-0.218268,10.192871,37.719727,-187.561035,0,0
21637,2024 10 23,05:27:10.292,-0.632976,0.227082,0.609755,0.419491,-0.875027,-0.073733,-0.218268,10.192871,37.719727,-187.561035,0,0
21638,2024 10 23,05:27:10.301,-0.628137,0.217161,0.611139,0.429877,-0.425306,-0.082034,-0.564959,-15.991211,31.25,-166.015625,0,0
21639,2024 10 23,05:27:10.309,-0.623113,0.21236,0.610783,0.439974,0.19483,1.157262,-1.034211,-74.951172,17.150879,-116.577148,0,0
21640,2024 10 23,05:27:10.317,-0.620115,0.215734,0.607742,0.446728,-0.397473,1.601123,-0.577166,-84.289551,-0.244141,-12.023926,0,0
21641,2024 10 23,05:27:10.326,-0.620715,0.221441,0.603296,0.449122,-0.118168,1.490768,0.218268,-96.374512,30.822754,36.071777,0,0
21642,2024 10 23,05:27:10.334,-0.626095,0.226854,0.593628,0.451828,0.142582,0.975127,-1.379437,-82.214355,88.256836,68.847656,0,0
21643,2024 10 23,05:27:10.342,-0.626095,0.226854,0.593628,0.451828,0.142582,0.975127,-1.379437,-82.214355,88.256836,68.847656,0,0
21644,2024 10 23,05:27:10.351,-0.628393,0.235982,0.586834,0.452836,0.180181,1.129917,-0.611835,-105.34668,8.544922,84.838867,0,0
21645,2024 10 23,05:27:10.359,-0.630685,0.247263,0.580124,0.452276,0.013672,1.237831,-0.616718,-104.309082,5.310059,110.229492,0,0
21646,2024 10 23,05:27:10.367,-0.632915,0.259857,0.574451,0.449332,-0.154302,1.069857,-0.359874,-90.576172,-20.202637,130.981445,0,0
21647,2024 10 23,05:27:10.376,-0.635495,0.272481,0.569147,0.444941,-0.159673,0.816431,-0.523942,-80.322266,-21.484375,140.258789,0,0
21648,2024 10 23,05:27:10.384,-0.636896,0.286023,0.565196,0.43944,-0.322275,0.759301,-0.490738,-76.782227,-55.541992,144.714355,0,0
21649,2024 10 23,05:27:10.392,-0.636896,0.286023,0.565196,0.43944,-0.322275,0.759301,-0.490738,-76.782227,-55.541992,144.714355,0,0
21650,2024 10 23,05:27:10.401,-0.637107,0.300665,0.562572,0.432675,-0.622089,0.704123,-0.241707,-74.584961,-75.500488,151.367188,0,0
21651,2024 10 23,05:27:10.409,-0.637219,0.315418,0.560029,0.425243,-0.819361,0.569353,-0.19776,-69.946289,-79.101563,155.273438,0,0
21652,2024 10 23,05:27:10.417,-0.636863,0.330051,0.557932,0.417353,-0.946806,0.41847,-0.096194,-66.955566,-87.036133,153.564453,0,0
21653,2024 10 23,05:27:10.426,-0.635722,0.344594,0.556337,0.409392,-1.142613,0.324229,-0.02002,-67.016602,-97.167969,147.827148,0,0
21654,2024 10 23,05:27:10.434,-0.63383,0.358986,0.555208,0.401412,-1.335978,0.208991,0.156743,-66.345215,-102.722168,142.51709,0,0
21655,2024 10 23,05:27:10.442,-0.63383,0.358986,0.555208,0.401412,-1.335978,0.208991,0.156743,-66.345215,-102.722168,142.51709,0,0
21656,2024 10 23,05:27:10.451,-0.631573,0.373,0.553866,0.393979,-1.425336,0.08594,0.218757,-71.411133,-98.632813,135.803223,0,0
21657,2024 10 23,05:27:10.459,-0.628715,0.386923,0.552219,0.387378,-1.489792,-0.047365,0.296884,-81.665039,-98.144531,128.417969,0,0
21658,2024 10 23,05:27:10.467,-0.62503,0.401002,0.550097,0.382005,-1.608448,-0.150395,0.446303,-97.106934,-93.62793,119.262695,0,0
21659,2024 10 23,05:27:10.476,-0.620933,0.414644,0.54702,0.378527,-1.613819,-0.271493,0.511246,-112.182617,-77.148438,104.919434,0,0
21660,2024 10 23,05:27:10.484,-0.616148,0.427888,0.543202,0.377101,-1.55327,-0.281259,0.552263,-129.699707,-67.565918,89.72168,0,0
21661,2024 10 23,05:27:10.492,-0.616148,0.427888,0.543202,0.377101,-1.55327,-0.281259,0.552263,-129.699707,-67.565918,89.72168,0,0
21662,2024 10 23,05:27:10.501,-0.610899,0.441364,0.538454,0.37692,-1.614795,-0.212409,0.714377,-144.470215,-58.227539,88.867188,0,0
21663,2024 10 23,05:27:10.509,-0.606299,0.454565,0.532054,0.377744,-1.57915,-0.24366,0.850612,-149.414063,-33.081055,90.698242,0,0
21664,2024 10 23,05:27:10.517,-0.602598,0.466574,0.524299,0.379861,-1.374554,-0.346202,0.734886,-150.085449,-9.94873,83.129883,0,0
21665,2024 10 23,05:27:10.526,-0.598656,0.477676,0.516692,0.382708,-1.260781,-0.372082,0.750999,-146.789551,-8.972168,70.43457,0,0
21666,2024 10 23,05:27:10.534,-0.593188,0.487947,0.511583,0.385122,-2.734458,-0.610859,1.810114,-136.779785,-46.936035,42.907715,0,0
21667,2024 10 23,05:27:10.542,-0.593188,0.487947,0.511583,0.385122,-2.734458,-0.610859,1.810114,-136.779785,-46.936035,42.907715,0,0
21668,2024 10 23,05:27:10.551,-0.593717,0.491223,0.502412,0.39215,-1.480026,-1.499557,0.996124,-86.05957,137.145996,34.057617,0,0
21669,2024 10 23,05:27:10.559,-0.594126,0.493213,0.492388,0.401633,-0.652852,-1.155797,0.755394,-114.929199,71.533203,7.507324,0,0
21670,2024 10 23,05:27:10.567,-0.589698,0.497763,0.488599,0.407136,-1.613819,-1.31547,1.849666,-110.717773,3.845215,-7.751465,0,0
21671,2024 10 23,05:27:10.576,-0.587385,0.498816,0.483504,0.415194,-1.408734,-1.571825,1.50444,-82.946777,69.152832,-26.367188,0,0
21672,2024 10 23,05:27:10.584,-0.585409,0.497452,0.479031,0.424698,-1.268593,-1.934629,1.353069,-77.453613,68.908691,-51.696777,0,0
21673,2024 10 23,05:27:10.592,-0.585409,0.497452,0.479031,0.424698,-1.268593,-1.934629,1.353069,-77.453613,68.908691,-51.696777,0,0
21674,2024 10 23,05:27:10.601,-0.581371,0.496546,0.474256,0.436498,-0.231941,0.017579,1.023957,-132.568359,80.932617,-69.152832,1,0
21675,2024 10 23,05:27:10.609,-0.579174,0.496883,0.470413,0.443143,-0.510758,0.43556,0.112308,-22.216797,22.827148,-18.310547,0,0
21676,2024 10 23,05:27:10.617,-0.579556,0.496862,0.471819,0.441169,-1.300821,0.046876,-0.228034,13.61084,-21.362305,8.911133,0,0
21677,2024 10 23,05:27:10.626,-0.580335,0.496305,0.471473,0.441141,-1.226112,0.062014,-0.205573,10.498047,23.4375,2.197266,0,0
21678,2024 10 23,05:27:10.634,-0.580268,0.495407,0.469778,0.444038,-0.845241,0.369152,0.087405,-30.029297,30.822754,-19.897461,0,0
21679,2024 10 23,05:27:10.642,-0.580268,0.495407,0.469778,0.444038,-0.845241,0.369152,0.087405,-30.029297,30.822754,-19.897461,0,0
21680,2024 10 23,05:27:10.651,-0.580263,0.494047,0.46932,0.446039,-1.039582,0.104984,-0.063478,6.103516,19.775391,-16.784668,0,0
21681,2024 10 23,05:27:10.659,-0.581056,0.492292,0.468875,0.447414,-1.045442,0.094729,-0.001953,6.713867,26.550293,-10.498047,0,0
21682,2024 10 23,05:27:10.667,-0.581706,0.490856,0.467993,0.449066,-0.96292,0.141606,0.091311,-4.699707,25.695801,-10.375977,0,0
21683,2024 10 23,05:27:10.676,-0.582153,0.489733,0.46713,0.45061,-0.882839,0.165532,0.104984,0.061035,20.568848,-8.911133,0,0
21684,2024 10 23,05:27:10.684,-0.582323,0.488835,0.467013,0.451485,-0.845241,0.143071,0.187506,0.488281,7.8125,-9.643555,0,0
21685,2024 10 23,05:27:10.692,-0.582323,0.488835,0.467013,0.451485,-0.845241,0.143071,0.187506,0.488281,7.8125,-9.643555,0,0
21686,2024 10 23,05:27:10.701,-0.58184,0.488407,0.467484,0.452083,-0.830592,0.142094,0.18067,-1.220703,-3.78418,-12.329102,0,0
21687,2024 10 23,05:27:10.709,-0.580705,0.488393,0.468642,0.45236,-0.885769,0.128422,0.087893,-2.258301,-15.869141,-15.319824,0,0
21688,2024 10 23,05:27:10.717,-0.5788,0.488691,0.470414,0.452639,-1.000519,0.158208,0.024415,-5.554199,-23.254395,-21.850586,0,0
21689,2024 10 23,05:27:10.726,-0.576716,0.488801,0.472349,0.453165,-1.041047,0.083499,-0.014649,-5.371094,-20.324707,-25.146484,0,0
21690,2024 10 23,05:27:10.734,-0.574679,0.488852,0.473901,0.454076,-1.039094,0.098148,0.001465,-9.277344,-14.648438,-24.353027,0,0
21691,2024 10 23,05:27:10.742,-0.572894,0.488815,0.475083,0.455135,-1.044954,0.107425,0.001953,-9.521484,-9.94873,-22.644043,0,0
21692,2024 10 23,05:27:10.751,-0.572894,0.488815,0.475083,0.455135,-1.044954,0.107425,0.001953,-9.521484,-9.94873,-22.644043,0,0
21693,2024 10 23,05:27:10.759,-0.571391,0.488644,0.475973,0.456277,-1.061068,0.116703,0.022462,-8.544922,-5.310059,-20.507813,0,0
21694,2024 10 23,05:27:10.767,-0.57027,0.488298,0.476619,0.457375,-1.063021,0.129398,0.020997,-6.164551,-1.464844,-18.005371,0,0
21695,2024 10 23,05:27:10.776,-0.569392,0.48783,0.477167,0.458396,-1.063021,0.1377,0.039064,-3.845215,0.610352,-16.723633,0,0
21696,2024 10 23,05:27:10.784,-0.568799,0.487155,0.477612,0.459385,-1.033235,0.118168,0.045412,-1.647949,3.540039,-15.563965,0,0
21697,2024 10 23,05:27:10.792,-0.568256,0.486476,0.478071,0.460299,-1.006867,0.113285,0.053713,-1.098633,2.01416,-14.953613,0,0
21698,2024 10 23,05:27:10.801,-0.568256,0.486476,0.478071,0.460299,-1.006867,0.113285,0.053713,-1.098633,2.01416,-14.953613,0,0
21699,2024 10 23,05:27:10.809,-0.567676,0.485905,0.478636,0.461028,-1.004913,0.110355,0.049318,-0.305176,-0.366211,-13.85498,0,0
21700,2024 10 23,05:27:10.817,-0.56715,0.485381,0.479246,0.461594,-1.006378,0.0918,0.034181,0.793457,-0.793457,-12.329102,0,0
21701,2024 10 23,05:27:10.826,-0.566743,0.484862,0.47978,0.462085,-0.986847,0.095218,0.058596,1.342773,0.12207,-10.803223,0,0
21702,2024 10 23,05:27:10.834,-0.566424,0.484348,0.480243,0.462533,-0.984893,0.089358,0.047853,1.220703,0.366211,-9.82666,0,0
21703,2024 10 23,05:27:10.842,-0.566073,0.483913,0.480705,0.462939,-1.006867,0.0918,0.018555,1.098633,-0.427246,-9.338379,0,0
21704,2024 10 23,05:27:10.851,-0.566073,0.483913,0.480705,0.462939,-1.006867,0.0918,0.018555,1.098633,-0.427246,-9.338379,0,0
21705,2024 10 23,05:27:10.859,-0.565772,0.48344,0.481125,0.463363,-0.9888,0.090335,0.050783,1.403809,1.098633,-9.338379,0,0
21706,2024 10 23,05:27:10.867,-0.565467,0.482969,0.481532,0.463805,-0.967315,0.08594,0.050295,0.854492,0.244141,-9.399414,0,0
21707,2024 10 23,05:27:10.876,-0.565034,0.482574,0.48206,0.464195,-0.96292,0.090823,0.058107,0.671387,-2.01416,-10.131836,0,0
21708,2024 10 23,05:27:10.884,-0.564503,0.482212,0.482701,0.464551,-0.948759,0.093265,0.07178,0.793457,-3.845215,-10.864258,0,0
21709,2024 10 23,05:27:10.892,-0.563821,0.481921,0.483527,0.464822,-0.958037,0.082522,0.052248,0.793457,-6.896973,-11.84082,0,0
21710,2024 10 23,05:27:10.901,-0.563821,0.481921,0.483527,0.464822,-0.958037,0.082522,0.052248,0.793457,-6.896973,-11.84082,0,0
21711,2024 10 23,05:27:10.909,-0.563032,0.481709,0.484454,0.465032,-0.98294,0.082522,0.043458,0.671387,-8.178711,-12.023926,0,0
21712,2024 10 23,05:27:10.917,-0.562297,0.481424,0.485322,0.465313,-0.96292,0.072756,0.054689,0.488281,-5.79834,-12.084961,0,0
21713,2024 10 23,05:27:10.926,-0.56168,0.48111,0.486051,0.465622,-0.979522,0.069338,0.027345,0.366211,-4.821777,-10.803223,0,0
21714,2024 10 23,05:27:10.934,-0.561126,0.480813,0.486683,0.465936,-0.972198,0.048341,0.020508,0.671387,-2.807617,-9.765625,0,0
21715,2024 10 23,05:27:10.942,-0.560745,0.480471,0.487071,0.466342,-0.920927,0.057131,0.06006,-0.732422,-0.244141,-8.300781,0,0
21716,2024 10 23,05:27:10.951,-0.560745,0.480471,0.487071,0.466342,-0.920927,0.057131,0.06006,-0.732422,-0.244141,-8.300781,0,0
21717,2024 10 23,05:27:10.959,-0.560286,0.480242,0.487453,0.46673,-0.936064,0.058107,0.060549,-1.647949,-2.380371,-8.361816,0,0
21718,2024 10 23,05:27:10.967,-0.559676,0.480112,0.48787,0.46716,-0.966338,0.06885,0.037599,-2.868652,-3.295898,-9.155273,0,0
21719,2024 10 23,05:27:10.976,-0.559055,0.479964,0.488265,0.467643,-0.997589,0.06592,0.028809,-3.417969,-1.953125,-9.460449,0,0
21720,2024 10 23,05:27:10.984,-0.558572,0.479707,0.48851,0.468227,-1.010773,0.059572,0.018067,-3.173828,1.464844,-8.911133,0,0
21721,2024 10 23,05:27:10.992,-0.558238,0.479372,0.488554,0.468922,-1.014679,0.055666,0.027345,-2.929688,4.272461,-8.178711,0,0
21722,2024 10 23,05:27:11.001,-0.558238,0.479372,0.488554,0.468922,-1.014679,0.055666,0.027345,-2.929688,4.272461,-8.178711,0,0
21723,2024 10 23,05:27:11.009,-0.558091,0.478896,0.48842,0.469723,-1.027863,0.065432,0.020997,-3.234863,8.300781,-7.568359,0,0
21724,2024 10 23,05:27:11.017,-0.558042,0.478311,0.488113,0.470694,-1.031281,0.079592,0.023438,-3.295898,10.803223,-8.239746,0,0
21725,2024 10 23,05:27:11.026,-0.558082,0.477573,0.487773,0.471748,-1.042512,0.079104,0.034669,-3.112793,12.695313,-9.338379,0,0
21726,2024 10 23,05:27:11.034,-0.558137,0.476714,0.487431,0.472904,-1.04593,0.091311,0.047853,-2.01416,13.671875,-10.437012,0,0
21727,2024 10 23,05:27:11.042,-0.558129,0.47574,0.487277,0.474051,-1.073275,0.081057,0.061037,-1.037598,11.535645,-13.000488,0,0
21728,2024 10 23,05:27:11.051,-0.558129,0.47574,0.487277,0.474051,-1.073275,0.081057,0.061037,-1.037598,11.535645,-13.000488,0,0
21729,2024 10 23,05:27:11.059,-0.55793,0.474684,0.487335,0.475283,-1.087435,0.072756,0.008789,-0.183105,11.230469,-15.50293,0,0
21730,2024 10 23,05:27:11.067,-0.557567,0.473574,0.48756,0.476584,-1.104526,0.070315,0.004395,-1.525879,9.765625,-18.798828,0,0
21731,2024 10 23,05:27:11.076,-0.556854,0.472426,0.488001,0.478103,-1.163121,0.048341,-0.076662,-2.258301,7.568359,-23.620605,0,0
21732,2024 10 23,05:27:11.084,-0.555208,0.47149,0.488877,0.480043,-1.436079,0.163579,-0.020997,-9.521484,-0.427246,-34.790039,0,0
21733,2024 10 23,05:27:11.092,-0.553125,0.469587,0.490282,0.482872,-1.478072,0.135258,-0.094729,-5.371094,8.972168,-52.246094,0,0
21734,2024 10 23,05:27:11.101,-0.553125,0.469587,0.490282,0.482872,-1.478072,0.135258,-0.094729,-5.371094,8.972168,-52.246094,0,0
21735,2024 10 23,05:27:11.109,-0.549965,0.466861,0.492501,0.486849,-1.667043,0.199225,-0.085452,-11.474609,4.02832,-78.308105,0,0
21736,2024 10 23,05:27:11.117,-0.545563,0.462832,0.49592,0.492149,-1.919981,0.354991,0.0,-7.751465,6.225586,-107.788086,0,0
21737,2024 10 23,05:27:11.126,-0.540547,0.456739,0.500447,0.49875,-1.71392,0.298349,0.275399,4.02832,17.211914,-136.59668,0,0
21738,2024 10 23,05:27:11.134,-0.53543,0.448612,0.505543,0.506447,-1.54741,0.071291,0.107913,5.67627,24.902344,-156.799316,0,0
21739,2024 10 23,05:27:11.142,-0.528388,0.440435,0.511585,0.514882,-1.419477,0.159673,-0.188971,-3.601074,8.544922,-174.865723,0,0
21740,2024 10 23,05:27:11.151,-0.528388,0.440435,0.511585,0.514882,-1.419477,0.159673,-0.188971,-3.601074,8.544922,-174.865723,0,0
21741,2024 10 23,05:27:11.159,-0.519624,0.433348,0.518165,0.523168,-1.456099,0.375988,0.302255,-7.751465,-8.239746,-179.6875,0,0
21742,2024 10 23,05:27:11.167,-0.511775,0.423947,0.524572,0.532146,-0.835963,-0.156255,-0.410657,-0.732422,21.911621,-192.932129,0,0
21743,2024 10 23,05:27:11.176,-0.500759,0.417092,0.531009,0.541575,-0.711936,-0.120121,-0.787133,-40.344238,-31.12793,-194.702148,0,1
21744,2024 10 23,05:27:11.184,-0.486098,0.414542,0.537566,0.550351,-0.611835,-0.11475,-0.720237,-80.383301,-70.739746,-183.532715,0,0
21745,2024 10 23,05:27:11.192,-0.470511,0.415726,0.541266,0.559305,-0.595233,0.090335,-0.889676,-120.666504,-81.115723,-149.536133,0,0
21746,2024 10 23,05:27:11.201,-0.455108,0.420981,0.541264,0.568054,-0.561541,1.334513,-0.588397,-172.851563,-79.650879,-100.708008,0,0
21747,2024 10 23,05:27:11.209,-0.455108,0.420981,0.541264,0.568054,-0.561541,1.334513,-0.588397,-172.851563,-79.650879,-100.708008,0,0
21748,2024 10 23,05:27:11.217,-0.44664,0.428942,0.534097,0.575553,-0.822779,1.583544,0.381848,-162.902832,-3.601074,8.483887,0,0
21749,2024 10 23,05:27:11.226,-0.44743,0.433567,0.519547,0.584719,0.116214,0.989288,-0.323252,-197.08252,121.520996,57.128906,0,0
21750,2024 10 23,05:27:11.234,-0.448653,0.439801,0.500747,0.595431,0.269539,0.762719,-1.673391,-208.92334,96.069336,85.632324,0,0
21751,2024 10 23,05:27:11.242,-0.444945,0.452994,0.483799,0.602295,-0.084475,1.244179,-0.056642,-246.09375,7.751465,102.355957,0,0
21752,2024 10 23,05:27:11.251,-0.444078,0.465181,0.463968,0.609209,-0.090823,1.270547,-0.498062,-241.455078,59.448242,128.173828,0,0
21753,2024 10 23,05:27:11.259,-0.444078,0.465181,0.463968,0.609209,-0.090823,1.270547,-0.498062,-241.455078,59.448242,128.173828,0,0
21754,2024 10 23,05:27:11.267,-0.44388,0.478063,0.444486,0.613888,-0.06006,0.929716,-0.531754,-223.815918,23.55957,143.432617,0,0
21755,2024 10 23,05:27:11.276,-0.442615,0.492281,0.426108,0.61659,-0.201178,0.806665,-0.502457,-221.252441,-0.061035,145.996094,0,0
21756,2024 10 23,05:27:11.284,-0.440221,0.50779,0.408754,0.617475,-0.48439,0.867214,-0.335948,-216.61377,-35.522461,148.742676,0,0
21757,2024 10 23,05:27:11.292,-0.437771,0.523892,0.392303,0.616435,-0.712424,0.735374,-0.033204,-203.125,-46.813965,156.066895,0,0
21758,2024 10 23,05:27:11.301,-0.435646,0.539425,0.376013,0.614693,-0.804224,0.63625,-0.089846,-195.617676,-49.987793,157.531738,0,0
21759,2024 10 23,05:27:11.309,-0.435646,0.539425,0.376013,0.614693,-0.804224,0.63625,-0.089846,-195.617676,-49.987793,157.531738,0,0
21760,2024 10 23,05:27:11.317,-0.433016,0.55538,0.360857,0.611419,-0.973174,0.529313,0.149907,-185.974121,-72.875977,156.799316,0,0
21761,2024 10 23,05:27:11.326,-0.430083,0.571238,0.346367,0.607245,-1.20365,0.405286,0.275887,-180.969238,-79.040527,154.907227,0,0
21762,2024 10 23,05:27:11.334,-0.426856,0.586425,0.332296,0.602892,-1.299844,0.140141,0.3296,-175.78125,-78.308105,148.010254,0,0
21763,2024 10 23,05:27:11.342,-0.422661,0.601098,0.31849,0.598835,-1.396527,-0.044923,0.416028,-181.274414,-78.979492,137.023926,0,0
21764,2024 10 23,05:27:11.351,-0.417367,0.615338,0.304962,0.595115,-1.509323,-0.185064,0.631367,-186.767578,-78.613281,125.427246,0,0
21765,2024 10 23,05:27:11.359,-0.417367,0.615338,0.304962,0.595115,-1.509323,-0.185064,0.631367,-186.767578,-78.613281,125.427246,0,0
21766,2024 10 23,05:27:11.367,-0.411373,0.628513,0.291592,0.592214,-1.565966,-0.252937,0.806665,-186.035156,-67.260742,112.365723,0,0
21767,2024 10 23,05:27:11.376,-0.405188,0.639971,0.278983,0.590279,-1.45024,-0.423353,0.828639,-175.537109,-54.199219,94.299316,0,0
21768,2024 10 23,05:27:11.384,-0.398395,0.649871,0.268353,0.589013,-1.38139,-0.644551,0.81106,-160.949707,-53.771973,65.490723,0,0
21769,2024 10 23,05:27:11.392,-0.390324,0.658505,0.260972,0.588143,-1.366253,-0.739769,0.897977,-142.944336,-61.889648,25.756836,0,0
21770,2024 10 23,05:27:11.401,-0.381107,0.665464,0.25728,0.587981,-1.510788,-0.827174,0.886746,-120.422363,-65.063477,-18.737793,0,0
21771,2024 10 23,05:27:11.409,-0.381107,0.665464,0.25728,0.587981,-1.510788,-0.827174,0.886746,-120.422363,-65.063477,-18.737793,0,0
21772,2024 10 23,05:27:11.417,-0.367443,0.673013,0.25987,0.586947,-2.869716,0.472182,5.921567,-120.239258,-120.544434,-100.219727,0,0
21773,2024 10 23,05:27:11.426,-0.3735,0.655266,0.259322,0.603222,-2.826746,-3.371685,1.09183,63.659668,354.431152,-67.016602,0,0
21774,2024 10 23,05:27:11.434,-0.369359,0.63795,0.249824,0.627839,1.163121,-0.061525,0.628437,-112.487793,287.29248,-99.182129,0,0
21775,2024 10 23,05:27:11.442,-0.366149,0.632221,0.244187,0.637655,-0.26661,0.741234,1.832087,-72.937012,61.035156,-24.108887,0,0
21776,2024 10 23,05:27:11.451,-0.369496,0.627171,0.241322,0.641789,-0.653829,-0.337901,0.452651,38.757324,107.543945,19.40918,0,0
21777,2024 10 23,05:27:11.459,-0.369496,0.627171,0.241322,0.641789,-0.653829,-0.337901,0.452651,38.757324,107.543945,19.40918,0,0
21778,2024 10 23,05:27:11.467,-0.370198,0.623239,0.237304,0.646694,-0.568377,0.377453,-0.336436,-28.686523,53.344727,-2.624512,0,0
21779,2024 10 23,05:27:11.476,-0.367877,0.624728,0.237892,0.646366,-1.132847,0.380871,0.501968,-17.211914,-33.26416,-23.620605,0,0
21780,2024 10 23,05:27:11.484,-0.366953,0.623927,0.239118,0.647211,-1.29545,0.033204,-0.356945,12.207031,18.859863,-17.456055,0,0
21781,2024 10 23,05:27:11.492,-0.367199,0.62245,0.239539,0.648338,-0.95999,0.025391,0.000488,3.234863,13.977051,-7.080078,0,0
21782,2024 10 23,05:27:11.501,-0.366424,0.622253,0.239567,0.648954,-1.175329,0.207526,-0.039064,-4.699707,5.004883,-9.399414,0,0
21783,2024 10 23,05:27:11.509,-0.366424,0.622253,0.239567,0.648954,-1.175329,0.207526,-0.039064,-4.699707,5.004883,-9.399414,0,0
21784,2024 10 23,05:27:11.517,-0.366088,0.621096,0.239681,0.650209,-0.992706,0.11182,0.143071,-0.610352,20.690918,-12.512207,0,0
21785,2024 10 23,05:27:11.526,-0.365703,0.619803,0.239593,0.65169,-0.906278,0.124027,0.105472,-2.01416,16.601563,-11.413574,0,0
21786,2024 10 23,05:27:11.534,-0.365173,0.61927,0.239889,0.652386,-0.923368,0.123539,0.182623,-0.854492,2.990723,-10.375977,0,0
21787,2024 10 23,05:27:11.542,-0.36447,0.619155,0.240382,0.652706,-1.010285,0.135258,0.100589,-2.197266,-1.953125,-10.253906,0,0
21788,2024 10 23,05:27:11.551,-0.363844,0.619158,0.240948,0.652844,-1.076205,0.133305,0.049318,-0.061035,-2.868652,-9.033203,0,0
21789,2024 10 23,05:27:11.559,-0.363844,0.619158,0.240948,0.652844,-1.076205,0.133305,0.049318,-0.061035,-2.868652,-9.033203,0,0
21790,2024 10 23,05:27:11.567,-0.363323,0.618993,0.241426,0.653114,-1.092807,0.141606,0.059084,0.0,1.586914,-8.911133,0,0
21791,2024 10 23,05:27:11.576,-0.362995,0.618389,0.241756,0.653745,-1.019562,0.093753,0.069826,0.854492,8.728027,-9.033203,0,0
21792,2024 10 23,05:27:11.584,-0.362643,0.617699,0.241892,0.654543,-0.95999,0.096683,0.101566,-1.586914,9.216309,-8.483887,0,0
21793,2024 10 23,05:27:11.592,-0.362261,0.617204,0.241966,0.655194,-0.963408,0.115238,0.116703,-1.89209,6.164551,-6.958008,0,0
21794,2024 10 23,05:27:11.601,-0.362,0.616777,0.242025,0.655718,-0.95706,0.121586,0.135746,-0.671387,5.859375,-5.371094,0,0
21795,2024 10 23,05:27:11.609,-0.361844,0.616441,0.242144,0.656075,-0.95706,0.121586,0.135746,-0.671387,5.859375,-5.371094,0,0
21796,2024 10 23,05:27:11.617,-0.361844,0.616441,0.242144,0.656075,-0.958525,0.114261,0.115238,0.366211,2.807617,-4.211426,0,0
21797,2024 10 23,05:27:11.626,-0.361717,0.616299,0.242361,0.656199,-0.995636,0.100101,0.096683,0.915527,0.671387,-3.173828,0,0
21798,2024 10 23,05:27:11.634,-0.361588,0.616107,0.242488,0.656404,-0.998566,0.10596,0.08301,0.427246,2.685547,-3.173828,0,0
21799,2024 10 23,05:27:11.642,-0.361475,0.615832,0.242534,0.656707,-0.992218,0.108402,0.090335,-0.610352,4.089355,-3.173828,0,0
21800,2024 10 23,05:27:11.651,-0.361363,0.615512,0.242523,0.657073,-0.96585,0.102542,0.107425,-0.305176,4.882813,-3.051758,0,0
21801,2024 10 23,05:27:11.659,-0.361265,0.615222,0.242491,0.65741,-0.961455,0.102054,0.106449,-0.854492,4.02832,-2.441406,0,0
21802,2024 10 23,05:27:11.667,-0.361265,0.615222,0.242491,0.65741,-0.961455,0.102054,0.106449,-0.854492,4.02832,-2.441406,0,0
21803,2024 10 23,05:27:11.676,-0.361203,0.614962,0.242439,0.657706,-0.963897,0.102542,0.10889,-0.427246,4.394531,-1.831055,0,0
21804,2024 10 23,05:27:11.684,-0.361194,0.614675,0.242329,0.65802,-0.961943,0.100101,0.096683,-0.671387,4.760742,-1.281738,0,0
21805,2024 10 23,05:27:11.692,-0.361229,0.614404,0.242166,0.658313,-0.958525,0.091311,0.100101,-0.854492,5.004883,-0.305176,0,0
21806,2024 10 23,05:27:11.701,-0.361271,0.614136,0.241895,0.65864,-0.953154,0.097659,0.102054,-1.647949,5.737305,0.366211,0,0
21807,2024 10 23,05:27:11.709,-0.361346,0.613882,0.241542,0.658966,-0.942412,0.099612,0.115238,-2.197266,5.859375,1.342773,0,0
21808,2024 10 23,05:27:11.717,-0.361346,0.613882,0.241542,0.658966,-0.942412,0.099612,0.115238,-2.197266,5.859375,1.342773,0,0
21809,2024 10 23,05:27:11.726,-0.361465,0.61363,0.241132,0.659285,-0.947295,0.10303,0.113773,-1.953125,6.286621,2.075195,0,0
21810,2024 10 23,05:27:11.734,-0.361661,0.613373,0.240672,0.659584,-0.952666,0.099124,0.110843,-1.77002,6.530762,2.990723,0,0
21811,2024 10 23,05:27:11.742,-0.361944,0.613066,0.240153,0.659904,-0.948759,0.099124,0.112308,-1.464844,7.751465,3.90625,0,0
21812,2024 10 23,05:27:11.751,-0.362255,0.612741,0.239593,0.660239,-0.949736,0.100589,0.117191,-1.586914,7.873535,4.211426,0,0
21813,2024 10 23,05:27:11.759,-0.362541,0.612443,0.239019,0.660566,-0.947295,0.110843,0.119633,-2.319336,7.568359,4.02832,0,0
21814,2024 10 23,05:27:11.767,-0.362541,0.612443,0.239019,0.660566,-0.947295,0.110843,0.119633,-2.319336,7.568359,4.02832,0,0
21815,2024 10 23,05:27:11.776,-0.362754,0.612216,0.238479,0.660855,-0.957549,0.111332,0.130863,-2.258301,6.164551,3.479004,0,0
21816,2024 10 23,05:27:11.784,-0.362908,0.612027,0.238022,0.66111,-0.973174,0.115726,0.131352,-2.502441,5.432129,2.563477,0,0
21817,2024 10 23,05:27:11.792,-0.362988,0.611812,0.237581,0.661423,-0.980499,0.114261,0.119144,-2.990723,5.981445,1.464844,0,0
21818,2024 10 23,05:27:11.801,-0.362979,0.611602,0.237161,0.661774,-0.988311,0.116703,0.121586,-3.662109,5.859375,0.671387,0,0
21819,2024 10 23,05:27:11.809,-0.362903,0.611348,0.236752,0.662196,-0.9888,0.121097,0.127445,-3.723145,6.408691,-0.366211,0,0
21820,2024 10 23,05:27:11.817,-0.362903,0.611348,0.236752,0.662196,-0.9888,0.121097,0.127445,-3.723145,6.408691,-0.366211,0,0
21821,2024 10 23,05:27:11.826,-0.362699,0.611149,0.236415,0.662611,-1.023957,0.120121,0.101077,-4.455566,5.065918,-1.89209,0,0
21822,2024 10 23,05:27:11.834,-0.362408,0.610849,0.236077,0.663168,-1.016144,0.129887,0.13184,-4.638672,7.751465,-3.173828,0,0
21823,2024 10 23,05:27:11.842,-0.362237,0.610371,0.235831,0.663789,-1.012726,0.135258,0.124516,-1.89209,8.239746,-3.540039,0,0
21824,2024 10 23,05:27:11.851,-0.36213,0.60985,0.235812,0.664333,-1.024445,0.146489,0.080569,0.12207,7.93457,-4.882813,0,0
21825,2024 10 23,05:27:11.859,-0.361989,0.609242,0.235956,0.664915,-1.025422,0.117191,0.136723,1.647949,7.93457,-6.713867,0,0
21826,2024 10 23,05:27:11.867,-0.361989,0.609242,0.235956,0.664915,-1.025422,0.117191,0.136723,1.647949,7.93457,-6.713867,0,0
21827,2024 10 23,05:27:11.876,-0.361616,0.608658,0.236232,0.665555,-1.043977,0.128422,0.084475,-0.793457,6.652832,-9.70459,0,0
21828,2024 10 23,05:27:11.884,-0.361004,0.60822,0.236761,0.6661,-1.122593,0.122074,0.041017,-0.061035,2.380371,-12.451172,0,0
21829,2024 10 23,05:27:11.892,-0.359772,0.607984,0.237403,0.666753,-1.16654,0.142582,0.072756,-4.333496,2.075195,-19.226074,0,0
21830,2024 10 23,05:27:11.901,-0.358187,0.607254,0.238495,0.667881,-1.157262,0.110355,-0.030274,-3.78418,4.760742,-29.23584,0,0
21831,2024 10 23,05:27:11.909,-0.355551,0.606891,0.240287,0.668976,-1.047884,0.033204,-0.04004,-8.483887,-6.04248,-41.625977,0,0
21832,2024 10 23,05:27:11.917,-0.355551,0.606891,0.240287,0.668976,-1.047884,0.033204,-0.04004,-8.483887,-6.04248,-41.625977,0,0
21833,2024 10 23,05:27:11.926,-0.351135,0.607551,0.243083,0.6697,-1.48149,0.282235,0.229499,-21.54541,-32.409668,-59.692383,0,0
21834,2024 10 23,05:27:11.934,-0.345457,0.607767,0.247013,0.671017,-1.538621,0.182623,0.267586,-7.995605,-14.221191,-80.322266,0,0
21835,2024 10 23,05:27:11.942,-0.339373,0.606167,0.251024,0.674073,-1.377483,0.166509,0.039064,-14.648438,-0.610352,-95.581055,0,0
21836,2024 10 23,05:27:11.951,-0.332753,0.6048,0.256467,0.676548,-1.30961,-0.068361,-0.061037,-5.981445,-13.73291,-105.102539,0,0
21837,2024 10 23,05:27:11.959,-0.324821,0.603857,0.261318,0.679382,-1.385296,0.19483,-0.005371,-26.123047,-14.038086,-107.727051,0,0
21838,2024 10 23,05:27:11.967,-0.324821,0.603857,0.261318,0.679382,-1.385296,0.19483,-0.005371,-26.123047,-14.038086,-107.727051,0,0
21839,2024 10 23,05:27:11.976,-0.3171,0.602083,0.265861,0.682834,-0.957549,-0.253426,-0.525895,-22.216797,4.943848,-112.304688,0,0
21840,2024 10 23,05:27:11.984,-0.306965,0.601844,0.269132,0.686385,-0.893094,-0.116214,-0.769555,-63.232422,-23.742676,-114.013672,1,0
21841,2024 10 23,05:27:11.992,-0.295018,0.604163,0.271516,0.688644,-1.176305,-0.075198,-0.285165,-86.914063,-46.081543,-108.825684,0,0
21842,2024 10 23,05:27:12.001,-0.282426,0.605902,0.270658,0.692722,-1.086459,0.276376,-0.463393,-118.347168,-7.263184,-98.022461,0,0
21843,2024 10 23,05:27:12.009,-0.271573,0.607042,0.265039,0.698214,-1.196326,0.50441,-0.056642,-143.432617,23.193359,-49.987793,0,0
21844,2024 10 23,05:27:12.017,-0.271573,0.607042,0.265039,0.698214,-1.196326,0.50441,-0.056642,-143.432617,23.193359,-49.987793,0,0
21845,2024 10 23,05:27:12.026,-0.263454,0.606388,0.254729,0.70569,-0.553728,0.514176,-0.181158,-171.630859,83.618164,-13.549805,0,0
21846,2024 10 23,05:27:12.034,-0.256094,0.605634,0.241448,0.713671,-0.431654,0.472182,-0.702658,-180.114746,68.17627,6.347656,0,0
21847,2024 10 23,05:27:12.042,-0.247746,0.607763,0.22861,0.719016,-0.491714,0.521012,-0.123051,-186.645508,38.574219,9.521484,0,0
21848,2024 10 23,05:27:12.051,-0.240166,0.608911,0.214837,0.724839,-0.381359,0.666524,-0.494644,-180.664063,49.560547,19.714355,0,0
21849,2024 10 23,05:27:12.059,-0.233501,0.611453,0.201736,0.728632,-0.420911,0.631367,-0.110843,-168.029785,23.620605,30.883789,0,0
21850,2024 10 23,05:27:12.067,-0.227923,0.613636,0.189066,0.731953,-0.336436,0.581072,-0.334483,-154.907227,26.367188,35.949707,0,0
21851,2024 10 23,05:27:12.076,-0.227923,0.613636,0.189066,0.731953,-0.336436,0.581072,-0.334483,-154.907227,26.367188,35.949707,0,0
21852,2024 10 23,05:27:12.084,-0.222837,0.616978,0.177538,0.733595,-0.386731,0.582537,-0.168462,-140.258789,-3.356934,39.0625,0,0
21853,2024 10 23,05:27:12.092,-0.218476,0.621134,0.16699,0.733877,-0.472671,0.61623,-0.082034,-126.89209,-15.991211,43.762207,0,0
21854,2024 10 23,05:27:12.101,-0.215125,0.625779,0.157384,0.733043,-0.545915,0.586444,-0.00586,-109.619141,-30.822754,49.316406,0,0
21855,2024 10 23,05:27:12.109,-0.212783,0.630833,0.148625,0.73122,-0.59328,0.538591,0.028809,-96.130371,-39.550781,55.358887,0,0
21856,2024 10 23,05:27:12.117,-0.211296,0.636384,0.140424,0.728457,-0.686056,0.48146,0.041993,-85.083008,-52.79541,62.072754,0,0
21857,2024 10 23,05:27:12.126,-0.211296,0.636384,0.140424,0.728457,-0.686056,0.48146,0.041993,-85.083008,-52.79541,62.072754,0,0
21858,2024 10 23,05:27:12.134,-0.210476,0.642467,0.132608,0.724811,-0.833033,0.393567,0.156743,-78.186035,-60.48584,67.993164,0,0
21859,2024 10 23,05:27:12.142,-0.210137,0.648415,0.124825,0.720984,-0.944365,0.263192,0.147954,-75.195313,-59.631348,72.021484,0,0
21860,2024 10 23,05:27:12.151,-0.209827,0.654216,0.116806,0.717169,-1.022492,0.098148,0.164068,-78.186035,-56.396484,74.279785,0,0
21861,2024 10 23,05:27:12.159,-0.208995,0.659782,0.108234,0.713649,-1.071322,-0.072756,0.154302,-88.500977,-52.001953,73.242188,0,0
21862,2024 10 23,05:27:12.167,-0.207077,0.665289,0.099003,0.710428,-1.146519,-0.199225,0.21778,-103.33252,-49.316406,68.54248,0,0
21863,2024 10 23,05:27:12.176,-0.207077,0.665289,0.099003,0.710428,-1.146519,-0.199225,0.21778,-103.33252,-49.316406,68.54248,0,0
21864,2024 10 23,05:27:12.184,-0.203818,0.670538,0.089165,0.707734,-1.189489,-0.242195,0.294931,-118.347168,-42.480469,60.913086,0,0
21865,2024 10 23,05:27:12.192,-0.199299,0.675349,0.07878,0.705675,-1.222205,-0.225593,0.37257,-131.347656,-34.484863,53.283691,0,0
21866,2024 10 23,05:27:12.201,-0.193867,0.679627,0.068125,0.704188,-1.239784,-0.204596,0.45851,-138.793945,-26.123047,46.325684,0,0
21867,2024 10 23,05:27:12.209,-0.187715,0.683185,0.057457,0.703363,-1.244179,-0.225105,0.454115,-142.76123,-15.930176,38.146973,0,0
21868,2024 10 23,05:27:12.217,-0.180829,0.686093,0.047112,0.703105,-1.18656,-0.244636,0.45851,-144.165039,-8.056641,27.648926,0,0
21869,2024 10 23,05:27:12.226,-0.180829,0.686093,0.047112,0.703105,-1.18656,-0.244636,0.45851,-144.165039,-8.056641,27.648926,0,0
21870,2024 10 23,05:27:12.234,-0.173226,0.688571,0.037368,0.703183,-1.135777,-0.20069,0.452651,-143.798828,-5.126953,16.113281,0,0
21871,2024 10 23,05:27:12.242,-0.165261,0.690828,0.028392,0.703306,-1.065951,-0.099612,0.474624,-138.671875,-5.004883,7.629395,0,0
21872,2024 10 23,05:27:12.251,-0.157533,0.692932,0.020247,0.703291,-1.070833,-0.001465,0.525895,-128.417969,-7.324219,3.356934,0,0
21873,2024 10 23,05:27:12.259,-0.150417,0.694579,0.013189,0.703392,-1.042512,0.040529,0.554704,-112.792969,-1.831055,-1.342773,0,0
21874,2024 10 23,05:27:12.267,-0.14397,0.695507,0.007377,0.703909,-0.910184,0.069826,0.462416,-96.435547,3.295898,-7.263184,0,0
21875,2024 10 23,05:27:12.276,-0.14397,0.695507,0.007377,0.703909,-0.910184,0.069826,0.462416,-96.435547,3.295898,-7.263184,0,0
21876,2024 10 23,05:27:12.284,-0.138074,0.69648,0.002947,0.704161,-0.857936,0.146489,0.473159,-80.932617,-3.051758,-13.85498,0,0
21877,2024 10 23,05:27:12.292,-0.132864,0.697464,-5.7e-05,0.704195,-0.798853,0.238289,0.473647,-63.476563,-6.04248,-19.40918,0,0
21878,2024 10 23,05:27:12.301,-0.128369,0.699953,-0.001748,0.702555,-3.689566,0.731956,1.253456,-53.894043,-56.213379,-19.348145,0,0
21879,2024 10 23,05:27:12.309,-0.130702,0.692315,-0.000259,0.70966,-1.031281,-1.460006,1.864315,105.163574,215.393066,5.79834,0,0
21880,2024 10 23,05:27:12.317,-0.125715,0.675275,-0.00596,0.726748,0.113285,1.086947,-0.994171,-123.535156,217.529297,-20.263672,0,0
21881,2024 10 23,05:27:12.326,-0.125715,0.675275,-0.00596,0.726748,0.113285,1.086947,-0.994171,-123.535156,217.529297,-20.263672,0,0
21882,2024 10 23,05:27:12.334,-0.126786,0.676279,-0.005085,0.725635,-0.91995,-0.464858,1.262246,53.100586,-45.471191,9.399414,0,0
21883,2024 10 23,05:27:12.342,-0.125517,0.673357,-0.006996,0.728551,-0.747581,0.50441,0.082034,-29.785156,73.364258,-0.366211,0,0
21884,2024 10 23,05:27:12.351,-0.12629,0.672147,-0.007264,0.729531,-0.861843,0.063967,-0.459487,2.319336,-14.953613,4.699707,0,0
21885,2024 10 23,05:27:12.359,-0.124983,0.675374,-0.007304,0.726771,-1.291055,0.314463,0.428724,-13.366699,-36.804199,-9.033203,0,0
21886,2024 10 23,05:27:12.367,-0.124568,0.674372,-0.006959,0.727775,-0.996612,0.205084,-0.33253,4.699707,22.949219,-6.835938,0,0
21887,2024 10 23,05:27:12.376,-0.124568,0.674372,-0.006959,0.727775,-0.996612,0.205084,-0.33253,4.699707,22.949219,-6.835938,0,0
21888,2024 10 23,05:27:12.384,-0.124704,0.674805,-0.006062,0.727358,-1.006378,0.107425,0.110355,7.446289,-16.113281,-5.065918,0,0
21889,2024 10 23,05:27:12.392,-0.124364,0.675163,-0.005538,0.727089,-1.003449,0.142582,0.132328,-0.549316,1.098633,-6.835938,0,0
21890,2024 10 23,05:27:12.401,-0.123733,0.674877,-0.005287,0.727463,-0.956084,0.15772,-0.0918,-1.831055,2.01416,-7.69043,0,0
21891,2024 10 23,05:27:12.409,-0.123176,0.675264,-0.004836,0.727202,-1.006378,0.137211,0.124516,-1.342773,-4.577637,-7.69043,0,0
21892,2024 10 23,05:27:12.417,-0.12262,0.67479,-0.004602,0.727737,-0.886746,0.115238,0.064943,-1.831055,10.559082,-6.835938,0,0
21893,2024 10 23,05:27:12.426,-0.12262,0.67479,-0.004602,0.727737,-0.886746,0.115238,0.064943,-1.831055,10.559082,-6.835938,0,0
21894,2024 10 23,05:27:12.434,-0.122026,0.674577,-0.004516,0.728035,-0.863796,0.11475,0.061525,-3.845215,0.366211,-5.432129,0,0
21895,2024 10 23,05:27:12.442,-0.121408,0.674893,-0.004546,0.727845,-0.901395,0.098148,0.126957,-6.591797,-4.272461,-4.455566,0,0
21896,2024 10 23,05:27:12.451,-0.120462,0.675273,-0.004875,0.727648,-0.905789,0.1377,0.061525,-11.291504,-5.493164,-5.004883,0,0
21897,2024 10 23,05:27:12.459,-0.11938,0.676029,-0.00523,0.727122,-0.96878,0.138188,0.059084,-13.183594,-10.803223,-5.859375,0,0
21898,2024 10 23,05:27:12.467,-0.118149,0.676817,-0.005624,0.726586,-1.030305,0.161626,0.050783,-13.671875,-9.338379,-6.774902,0,0
21899,2024 10 23,05:27:12.476,-0.118149,0.676817,-0.005624,0.726586,-1.030305,0.161626,0.050783,-13.671875,-9.338379,-6.774902,0,0
21900,2024 10 23,05:27:12.484,-0.116838,0.677421,-0.005911,0.726233,-1.044954,0.164068,0.020997,-13.000488,-6.591797,-8.361816,0,0
21901,2024 10 23,05:27:12.492,-0.115631,0.677864,-0.006144,0.726012,-1.046907,0.16895,0.057619,-11.413574,-3.90625,-7.751465,0,0
21902,2024 10 23,05:27:12.501,-0.11461,0.678037,-0.006355,0.726009,-1.034211,0.161626,0.04004,-9.643555,-0.244141,-6.652832,0,0
21903,2024 10 23,05:27:12.509,-0.113759,0.678046,-0.006521,0.726133,-1.023957,0.156743,0.06592,-7.446289,1.708984,-5.615234,0,0
21904,2024 10 23,05:27:12.517,-0.11305,0.677924,-0.006702,0.726357,-0.994659,0.153813,0.065432,-6.713867,3.173828,-4.455566,0,0
21905,2024 10 23,05:27:12.526,-0.112441,0.677875,-0.00683,0.726495,-0.996612,0.15772,0.082522,-5.310059,1.159668,-4.211426,0,0
21906,2024 10 23,05:27:12.534,-0.112441,0.677875,-0.00683,0.726495,-0.996612,0.15772,0.082522,-5.310059,1.159668,-4.211426,0,0
21907,2024 10 23,05:27:12.542,-0.111902,0.677869,-0.006896,0.726583,-1.006867,0.15479,0.074221,-4.760742,0.671387,-4.089355,0,0
21908,2024 10 23,05:27:12.551,-0.111406,0.677932,-0.006931,0.726601,-1.02298,0.167486,0.070803,-3.967285,-0.671387,-3.90625,0,0
21909,2024 10 23,05:27:12.559,-0.111006,0.67798,-0.006831,0.726618,-1.037141,0.15186,0.030763,-1.831055,-0.061035,-4.272461,0,0
21910,2024 10 23,05:27:12.567,-0.110656,0.67797,-0.006671,0.726683,-1.004425,0.139653,0.074221,-1.281738,0.915527,-4.089355,0,0
21911,2024 10 23,05:27:12.576,-0.110314,0.677853,-0.006577,0.726844,-0.968291,0.145024,0.063967,-2.075195,1.831055,-3.723145,0,0
21912,2024 10 23,05:27:12.584,-0.110314,0.677853,-0.006577,0.726844,-0.968291,0.145024,0.063967,-2.075195,1.831055,-3.723145,0,0
21913,2024 10 23,05:27:12.592,-0.109936,0.67792,-0.006457,0.726841,-0.988311,0.147465,0.056154,-2.380371,-1.464844,-4.272461,0,0
21914,2024 10 23,05:27:12.601,-0.109508,0.678039,-0.00629,0.726795,-1.001495,0.137211,0.047365,-1.708984,-1.342773,-5.004883,0,0
21915,2024 10 23,05:27:12.609,-0.109062,0.678145,-0.006082,0.726765,-0.95999,0.134281,0.079104,-2.01416,-1.525879,-5.249023,0,0
21916,2024 10 23,05:27:12.617,-0.108595,0.678369,-0.005883,0.726628,-0.951201,0.138676,0.071291,-2.380371,-4.089355,-5.371094,0,0
21917,2024 10 23,05:27:12.626,-0.108131,0.678721,-0.00567,0.72637,-0.98294,0.127445,0.045412,-2.319336,-5.432129,-5.065918,0,0
21918,2024 10 23,05:27:12.634,-0.108131,0.678721,-0.00567,0.72637,-0.98294,0.127445,0.045412,-2.319336,-5.432129,-5.065918,0,0
21919,2024 10 23,05:27:12.642,-0.107696,0.679042,-0.005501,0.726136,-0.972686,0.125004,0.063478,-2.319336,-4.150391,-4.455566,0,0
21920,2024 10 23,05:27:12.651,-0.107289,0.679249,-0.005386,0.726004,-0.958037,0.132817,0.052248,-2.624512,-2.624512,-3.967285,0,0
21921,2024 10 23,05:27:12.659,-0.106888,0.679477,-0.005286,0.72585,-0.968291,0.133793,0.054689,-2.685547,-3.356934,-3.90625,0,0
21922,2024 10 23,05:27:12.667,-0.106515,0.67959,-0.005195,0.7258,-0.961455,0.127445,0.055666,-2.13623,-0.549316,-3.601074,0,0
21923,2024 10 23,05:27:12.676,-0.106163,0.679579,-0.005133,0.725861,-0.939482,0.118168,0.053224,-2.502441,0.610352,-3.417969,0,0
21924,2024 10 23,05:27:12.684,-0.106163,0.679579,-0.005133,0.725861,-0.939482,0.118168,0.053224,-2.502441,0.610352,-3.417969,0,0
21925,2024 10 23,05:27:12.692,-0.105743,0.679569,-0.005138,0.725933,-0.928739,0.123051,0.084475,-3.417969,0.732422,-3.540039,0,0
21926,2024 10 23,05:27:12.701,-0.105303,0.67955,-0.005153,0.726014,-0.936064,0.116214,0.07178,-3.723145,0.366211,-3.723145,0,0
21927,2024 10 23,05:27:12.709,-0.104795,0.679601,-0.00519,0.726039,-0.968291,0.125492,0.072268,-4.394531,-0.305176,-3.967285,0,0
21928,2024 10 23,05:27:12.717,-0.104278,0.679592,-0.005236,0.726123,-0.972686,0.129887,0.043947,-4.394531,0.915527,-4.089355,0,0
21929,2024 10 23,05:27:12.726,-0.103748,0.679565,-0.005245,0.726223,-0.986358,0.134281,0.077639,-4.089355,1.281738,-4.638672,0,0
21930,2024 10 23,05:27:12.734,-0.103748,0.679565,-0.005245,0.726223,-0.986358,0.134281,0.077639,-4.089355,1.281738,-4.638672,0,0
21931,2024 10 23,05:27:12.742,-0.103189,0.679387,-0.005273,0.726469,-0.977081,0.125004,0.046388,-4.455566,3.967285,-4.638672,0,0
21932,2024 10 23,05:27:12.751,-0.102621,0.679205,-0.005317,0.726719,-0.973662,0.120121,0.070315,-4.638672,3.479004,-4.577637,0,0
21933,2024 10 23,05:27:12.759,-0.102031,0.678967,-0.005405,0.727024,-0.967803,0.132328,0.073733,-5.065918,4.821777,-4.394531,0,0
21934,2024 10 23,05:27:12.767,-0.101446,0.678731,-0.005455,0.727326,-0.994171,0.139164,0.066408,-4.577637,4.089355,-4.943848,0,0
21935,2024 10 23,05:27:12.776,-0.100848,0.678448,-0.005408,0.727673,-1.012726,0.144047,0.067873,-3.479004,5.432129,-6.04248,0,0
21936,2024 10 23,05:27:12.784,-0.100848,0.678448,-0.005408,0.727673,-1.012726,0.144047,0.067873,-3.479004,5.432129,-6.04248,0,0
21937,2024 10 23,05:27:12.792,-0.100253,0.678086,-0.005263,0.728094,-1.023469,0.133793,0.06592,-2.929688,6.225586,-6.713867,0,0
21938,2024 10 23,05:27:12.801,-0.099681,0.677606,-0.005105,0.72862,-1.017609,0.132817,0.06299,-2.319336,8.422852,-6.530762,0,0
21939,2024 10 23,05:27:12.809,-0.09913,0.677129,-0.004918,0.72914,-1.032258,0.135746,0.058107,-2.13623,7.568359,-6.591797,0,0
21940,2024 10 23,05:27:12.817,-0.098585,0.676644,-0.004691,0.729665,-1.073275,0.146489,0.058107,-1.403809,8.300781,-6.896973,0,0
21941,2024 10 23,05:27:12.826,-0.098054,0.676152,-0.004364,0.730195,-1.168493,0.179693,0.015625,-0.488281,7.873535,-7.93457,0,0
21942,2024 10 23,05:27:12.834,-0.098054,0.676152,-0.004364,0.730195,-1.168493,0.179693,0.015625,-0.488281,7.873535,-7.93457,0,0
21943,2024 10 23,05:27:12.842,-0.097547,0.675477,-0.00381,0.73089,-1.272012,0.224128,-0.028809,2.502441,12.634277,-10.070801,0,0
21944,2024 10 23,05:27:12.851,-0.097043,0.674182,-0.002734,0.732157,-1.315958,0.335459,-0.049806,9.033203,23.010254,-16.052246,0,0
21945,2024 10 23,05:27:12.859,-0.09678,0.672227,-0.000419,0.733992,-1.370647,0.226569,-0.142094,22.399902,30.456543,-25.268555,0,0
21946,2024 10 23,05:27:12.867,-0.095581,0.669876,0.002581,0.73629,-1.485397,0.212409,-0.119633,19.65332,38.330078,-39.428711,0,0
21947,2024 10 23,05:27:12.876,-0.093032,0.667536,0.00689,0.73871,-1.5103,0.245125,-0.182134,13.061523,30.517578,-64.880371,0,0
21948,2024 10 23,05:27:12.884,-0.093032,0.667536,0.00689,0.73871,-1.5103,0.245125,-0.182134,13.061523,30.517578,-64.880371,0,0
21949,2024 10 23,05:27:12.892,-0.087286,0.666849,0.012944,0.73995,-1.599658,0.038087,0.273446,16.113281,6.958008,-106.750488,0,0
21950,2024 10 23,05:27:12.901,-0.078152,0.666314,0.020629,0.741277,-1.848201,0.450209,0.307627,-16.845703,2.624512,-147.766113,0,0
21951,2024 10 23,05:27:12.909,-0.067591,0.665115,0.030243,0.74306,-1.414106,-0.013184,0.173833,12.268066,18.554688,-170.898438,0,0
21952,2024 10 23,05:27:12.917,-0.055717,0.663822,0.040222,0.744727,-1.310587,0.269539,-0.187994,-18.249512,1.708984,-179.321289,0,0
21953,2024 10 23,05:27:12.926,-0.043038,0.664331,0.049379,0.744563,-1.222205,0.236824,0.166021,-10.925293,-11.230469,-181.213379,0,0
21954,2024 10 23,05:27:12.934,-0.043038,0.664331,0.049379,0.744563,-1.222205,0.236824,0.166021,-10.925293,-11.230469,-181.213379,0,0
21955,2024 10 23,05:27:12.942,-0.030066,0.663026,0.058759,0.745681,-0.743675,0.014161,-0.693381,-31.494141,5.371094,-184.875488,0,1
21956,2024 10 23,05:27:12.951,-0.015222,0.665002,0.065904,0.743772,-0.91995,-0.114261,-0.494644,-56.45752,-53.771973,-176.818848,0,0
21957,2024 10 23,05:27:12.959,0.000945,0.667643,0.069844,0.741198,-0.81106,0.109867,-0.479995,-98.937988,-46.75293,-158.874512,0,0
21958,2024 10 23,05:27:12.967,0.016975,0.66935,0.06935,0.739508,-0.71633,1.044954,-0.653829,-136.535645,-36.437988,-122.802734,0,0
21959,2024 10 23,05:27:12.976,0.028812,0.669648,0.063541,0.739394,-1.245643,0.807154,0.324717,-121.887207,2.868652,-39.428711,0,0
21960,2024 10 23,05:27:12.984,0.037311,0.662633,0.052776,0.74615,-0.265633,0.882839,-0.335459,-173.828125,136.535645,15.014648,0,0
21961,2024 10 23,05:27:12.992,0.037311,0.662633,0.052776,0.74615,-0.265633,0.882839,-0.335459,-173.828125,136.535645,15.014648,0,0
21962,2024 10 23,05:27:13.001,0.043881,0.655008,0.039601,0.753306,0.06299,0.376476,-0.988311,-179.748535,82.214355,40.344238,0,0
21963,2024 10 23,05:27:13.009,0.052314,0.652188,0.024501,0.755853,-0.204596,0.311045,-0.307138,-201.477051,40.95459,38.452148,0,0
21964,2024 10 23,05:27:13.017,0.061614,0.647831,0.007919,0.759247,-0.138188,0.583026,-0.798364,-217.956543,45.471191,44.616699,0,0
21965,2024 10 23,05:27:13.026,0.069794,0.645607,-0.009776,0.760411,-0.313974,0.592792,-0.223151,-215.332031,16.479492,62.011719,0,0
21966,2024 10 23,05:27:13.034,0.076922,0.642419,-0.027902,0.761973,-0.241707,0.599628,-0.541032,-211.364746,27.22168,72.44873,0,0
21967,2024 10 23,05:27:13.042,0.076922,0.642419,-0.027902,0.761973,-0.241707,0.599628,-0.541032,-211.364746,27.22168,72.44873,0,0
21968,2024 10 23,05:27:13.051,0.082942,0.640635,-0.045947,0.761969,-0.299326,0.534684,-0.335459,-200.439453,-3.295898,79.162598,0,0
21969,2024 10 23,05:27:13.059,0.087985,0.639856,-0.063721,0.760778,-0.414563,0.585955,-0.269051,-190.307617,-17.456055,83.92334,0,0
21970,2024 10 23,05:27:13.067,0.09161,0.640084,-0.080854,0.758527,-0.486831,0.617206,-0.141118,-171.630859,-37.109375,89.84375,0,0
21971,2024 10 23,05:27:13.076,0.093649,0.641456,-0.097009,0.755217,-0.576678,0.609882,0.020997,-151.611328,-54.260254,93.505859,0,0
21972,2024 10 23,05:27:13.084,0.094244,0.64384,-0.112092,0.751015,-0.668966,0.601581,0.095218,-131.591797,-71.594238,95.88623,0,0
21973,2024 10 23,05:27:13.092,0.094244,0.64384,-0.112092,0.751015,-0.668966,0.601581,0.095218,-131.591797,-71.594238,95.88623,0,0
21974,2024 10 23,05:27:13.101,0.093377,0.647381,-0.126001,0.745857,-0.799341,0.539079,0.259285,-110.900879,-88.806152,97.045898,0,0
21975,2024 10 23,05:27:13.109,0.091518,0.651639,-0.13879,0.740087,-0.925321,0.470717,0.360851,-95.397949,-98.693848,95.64209,0,0
21976,2024 10 23,05:27:13.117,0.088934,0.656262,-0.15069,0.733964,-1.055208,0.356456,0.453627,-83.984375,-104.187012,94.848633,0,0
21977,2024 10 23,05:27:13.126,0.086127,0.660668,-0.162165,0.727875,-1.148473,0.251961,0.532731,-81.665039,-99.79248,95.214844,0,0
21978,2024 10 23,05:27:13.134,0.083556,0.664396,-0.173758,0.722084,-1.248573,0.122562,0.602069,-86.486816,-91.85791,96.313477,0,0
21979,2024 10 23,05:27:13.142,0.083556,0.664396,-0.173758,0.722084,-1.248573,0.122562,0.602069,-86.486816,-91.85791,96.313477,0,0
21980,2024 10 23,05:27:13.151,0.081733,0.667187,-0.185627,0.716745,-1.321329,-0.022462,0.675802,-95.275879,-77.758789,94.848633,0,0
21981,2024 10 23,05:27:13.159,0.081073,0.668819,-0.197743,0.712043,-1.3726,-0.092776,0.716819,-106.262207,-61.706543,90.332031,0,0
21982,2024 10 23,05:27:13.167,0.08159,0.669382,-0.209759,0.708005,-1.371136,-0.20069,0.748558,-112.854004,-45.349121,82.641602,0,0
21983,2024 10 23,05:27:13.176,0.0832,0.669216,-0.221172,0.704493,-1.367229,-0.293466,0.753441,-114.318848,-34.301758,71.044922,0,0
21984,2024 10 23,05:27:13.184,0.085651,0.668863,-0.231333,0.701264,-1.343791,-0.361339,0.797388,-107.666016,-27.404785,54.748535,0,0
21985,2024 10 23,05:27:13.192,0.085651,0.668863,-0.231333,0.701264,-1.343791,-0.361339,0.797388,-107.666016,-27.404785,54.748535,0,0
21986,2024 10 23,05:27:13.201,0.08869,0.668518,-0.239458,0.698483,-1.267617,-0.503922,0.810083,-93.994141,-22.460938,34.118652,0,0
21987,2024 10 23,05:27:13.209,0.092327,0.668951,-0.24505,0.695651,-1.273965,-0.569842,0.905789,-75.622559,-26.245117,6.591797,0,0
21988,2024 10 23,05:27:13.217,0.09729,0.671668,-0.246875,0.6917,-3.389752,-0.39259,1.696341,-61.340332,-60.913086,-52.307129,0,0
21989,2024 10 23,05:27:13.226,0.102243,0.668682,-0.2396,0.696421,-2.127995,-2.123112,1.77984,65.429688,147.583008,-74.035645,0,0
21990,2024 10 23,05:27:13.234,0.1151,0.657466,-0.231287,0.707811,0.075686,0.261727,0.33253,-42.053223,195.678711,-115.234375,1,0
21991,2024 10 23,05:27:13.242,0.1151,0.657466,-0.231287,0.707811,0.075686,0.261727,0.33253,-42.053223,195.678711,-115.234375,0,0
21992,2024 10 23,05:27:13.251,0.119783,0.653516,-0.226726,0.712154,-0.89407,-0.096194,0.159185,18.676758,53.405762,-40.100098,0,0
21993,2024 10 23,05:27:13.259,0.121363,0.649835,-0.224097,0.716077,-1.333537,-0.119144,-0.143071,26.855469,77.514648,-8.239746,0,0
21994,2024 10 23,05:27:13.267,0.123251,0.645109,-0.222606,0.720479,-0.757347,-0.080081,-0.204596,-0.12207,76.660156,-6.225586,0,0
21995,2024 10 23,05:27:13.276,0.126197,0.642617,-0.222993,0.722074,-0.788598,0.226081,0.260262,-23.31543,28.686523,-13.916016,0,0
21996,2024 10 23,05:27:13.284,0.12847,0.641646,-0.22295,0.722551,-1.020051,0.225593,-0.112796,-11.535645,15.258789,-15.441895,0,0
21997,2024 10 23,05:27:13.292,0.12847,0.641646,-0.22295,0.722551,-1.020051,0.225593,-0.112796,-11.535645,15.258789,-15.441895,0,0
21998,2024 10 23,05:27:13.301,0.12906,0.641068,-0.222336,0.723147,-1.107456,0.036622,-0.047853,2.197266,12.634277,-5.065918,0,0
21999,2024 10 23,05:27:13.309,0.130454,0.639984,-0.222049,0.723945,-1.033723,0.175787,-0.006348,-7.873535,22.033691,-10.131836,0,0
22000,2024 10 23,05:27:13.317,0.131747,0.63882,-0.221512,0.724903,-1.010285,0.12598,0.010254,-2.197266,19.65332,-10.070801,0,0
22001,2024 10 23,05:27:13.326,0.133029,0.637936,-0.220994,0.725605,-0.949736,0.179693,0.199713,-5.981445,16.174316,-11.901855,0,0
22002,2024 10 23,05:27:13.334,0.134422,0.637359,-0.220418,0.72603,-0.962432,0.164556,0.064943,-4.638672,8.850098,-14.465332,0,0
22003,2024 10 23,05:27:13.342,0.134422,0.637359,-0.220418,0.72603,-0.962432,0.164556,0.064943,-4.638672,8.850098,-14.465332,0,0
22004,2024 10 23,05:27:13.350,0.135555,0.63769,-0.219837,0.725705,-1.01175,0.133793,0.132328,-3.417969,-3.845215,-15.075684,0,0
22005,2024 10 23,05:27:13.359,0.136641,0.638123,-0.219286,0.725287,-0.9888,0.112308,0.101566,-4.333496,-2.807617,-14.831543,0,0
22006,2024 10 23,05:27:13.367,0.137835,0.638627,-0.218864,0.724746,-1.016144,0.130863,0.054201,-6.103516,-5.737305,-15.136719,0,0
22007,2024 10 23,05:27:13.375,0.138974,0.639188,-0.218459,0.724155,-1.040071,0.113773,0.072756,-5.79834,-4.516602,-14.648438,0,0
22008,2024 10 23,05:27:13.384,0.140194,0.63945,-0.218047,0.723813,-1.017609,0.138676,0.054201,-5.737305,-0.183105,-14.160156,0,0
22009,2024 10 23,05:27:13.392,0.140194,0.63945,-0.218047,0.723813,-1.017609,0.138676,0.054201,-5.737305,-0.183105,-14.160156,0,0
22010,2024 10 23,05:27:13.400,0.141294,0.639647,-0.217579,0.723566,-1.009308,0.120121,0.076174,-4.516602,0.12207,-13.305664,0,0
22011,2024 10 23,05:27:13.409,0.142319,0.639775,-0.217116,0.723391,-1.018586,0.118656,0.06885,-3.479004,1.281738,-12.145996,0,0
22012,2024 10 23,05:27:13.417,0.143188,0.639876,-0.216652,0.723269,-1.007843,0.121097,0.084475,-2.13623,0.976563,-10.742188,0,0
22013,2024 10 23,05:27:13.425,0.143902,0.640032,-0.216237,0.723113,-1.013214,0.117191,0.06592,-1.953125,-0.305176,-9.277344,0,0
22014,2024 10 23,05:27:13.434,0.144458,0.640171,-0.215831,0.723001,-1.013214,0.098148,0.057619,-0.549316,0.427246,-7.69043,0,0
22015,2024 10 23,05:27:13.442,0.144985,0.640196,-0.215512,0.722968,-0.993683,0.112308,0.07178,-1.342773,1.708984,-6.469727,0,0
22016,2024 10 23,05:27:13.450,0.144985,0.640196,-0.215512,0.722968,-0.993683,0.112308,0.07178,-1.342773,1.708984,-6.469727,0,0
22017,2024 10 23,05:27:13.459,0.145468,0.640135,-0.215211,0.723014,-0.983917,0.104007,0.075686,-1.098633,2.624512,-5.92041,0,0
22018,2024 10 23,05:27:13.467,0.145918,0.640061,-0.214919,0.723076,-0.976592,0.105472,0.078616,-0.549316,2.502441,-5.432129,0,0
22019,2024 10 23,05:27:13.475,0.146368,0.640018,-0.214656,0.723102,-0.96292,0.11475,0.093265,-1.220703,1.77002,-5.554199,0,0
22020,2024 10 23,05:27:13.484,0.146751,0.640044,-0.214354,0.72309,-0.966826,0.104495,0.078616,-0.12207,0.793457,-5.432129,0,0
22021,2024 10 23,05:27:13.492,0.147109,0.640112,-0.214043,0.72305,-0.976104,0.098636,0.072756,0.12207,0.671387,-5.371094,0,0
22022,2024 10 23,05:27:13.500,0.147109,0.640112,-0.214043,0.72305,-0.976104,0.098636,0.072756,0.12207,0.671387,-5.371094,0,0
22023,2024 10 23,05:27:13.509,0.147458,0.640129,-0.213726,0.723058,-0.976592,0.098148,0.072756,0.0,1.708984,-5.187988,0,0
22024,2024 10 23,05:27:13.517,0.147802,0.640044,-0.213417,0.723154,-0.970244,0.087405,0.067385,0.0,3.112793,-4.516602,0,0
22025,2024 10 23,05:27:13.525,0.148172,0.639852,-0.213163,0.723323,-0.953154,0.093753,0.082522,-0.671387,4.638672,-4.089355,0,0
22026,2024 10 23,05:27:13.534,0.148539,0.639572,-0.212948,0.723558,-0.949736,0.091311,0.078616,-0.793457,5.310059,-3.234863,0,0
22027,2024 10 23,05:27:13.542,0.148878,0.639283,-0.21278,0.723794,-0.940947,0.093265,0.093265,-0.976563,5.310059,-2.685547,0,0
22028,2024 10 23,05:27:13.550,0.148878,0.639283,-0.21278,0.723794,-0.940947,0.093265,0.093265,-0.976563,5.310059,-2.685547,0,0
22029,2024 10 23,05:27:13.559,0.149177,0.638944,-0.212627,0.724076,-0.934111,0.092288,0.087893,-0.915527,5.737305,-2.13623,0,0
22030,2024 10 23,05:27:13.567,0.149486,0.638662,-0.212531,0.72429,-0.942412,0.089846,0.087405,-1.525879,4.516602,-2.13623,0,0
22031,2024 10 23,05:27:13.575,0.149798,0.638397,-0.212461,0.724479,-0.947295,0.090823,0.084964,-1.831055,4.333496,-2.13623,0,0
22032,2024 10 23,05:27:13.584,0.150132,0.638159,-0.212426,0.72463,-0.949736,0.098636,0.094729,-2.380371,3.601074,-2.13623,0,0
22033,2024 10 23,05:27:13.592,0.150483,0.637962,-0.21241,0.724735,-0.973174,0.100101,0.0918,-2.624512,3.173828,-2.441406,0,0
22034,2024 10 23,05:27:13.600,0.150483,0.637962,-0.21241,0.724735,-0.973174,0.100101,0.0918,-2.624512,3.173828,-2.441406,0,0
22035,2024 10 23,05:27:13.609,0.150849,0.637753,-0.212384,0.724851,-0.976104,0.092288,0.084964,-2.563477,3.479004,-2.502441,0,0
22036,2024 10 23,05:27:13.617,0.151229,0.637521,-0.212345,0.724987,-0.983428,0.093265,0.08887,-2.502441,4.02832,-2.502441,0,0
22037,2024 10 23,05:27:13.625,0.15166,0.637199,-0.212324,0.725186,-0.994171,0.100101,0.089846,-3.417969,5.493164,-2.563477,0,0
22038,2024 10 23,05:27:13.634,0.152109,0.636826,-0.212263,0.725438,-1.003937,0.105472,0.088382,-2.502441,6.286621,-2.990723,0,0
22039,2024 10 23,05:27:13.642,0.152617,0.636413,-0.212099,0.725741,-1.008332,0.120609,0.099612,-2.13623,7.446289,-4.272461,0,0
22040,2024 10 23,05:27:13.650,0.152617,0.636413,-0.212099,0.725741,-1.008332,0.120609,0.099612,-2.13623,7.446289,-4.272461,0,0
22041,2024 10 23,05:27:13.659,0.153142,0.63601,-0.211753,0.726085,-0.999542,0.110355,0.098148,-0.366211,7.446289,-5.737305,0,0
22042,2024 10 23,05:27:13.667,0.153717,0.635714,-0.211283,0.72636,-1.00882,0.115238,0.093265,-0.12207,6.408691,-7.629395,0,0
22043,2024 10 23,05:27:13.675,0.154372,0.635475,-0.210696,0.726601,-1.01175,0.106937,0.096194,0.183105,6.347656,-9.277344,0,0
22044,2024 10 23,05:27:13.684,0.155066,0.635254,-0.210014,0.726843,-1.009796,0.092288,0.085452,1.098633,6.469727,-9.82666,0,0
22045,2024 10 23,05:27:13.692,0.155831,0.635092,-0.209298,0.727028,-1.020051,0.090335,0.064455,0.183105,5.67627,-11.108398,0,0
22046,2024 10 23,05:27:13.700,0.155831,0.635092,-0.209298,0.727028,-1.020051,0.090335,0.064455,0.183105,5.67627,-11.108398,0,0
22047,2024 10 23,05:27:13.709,0.156709,0.635002,-0.208623,0.727112,-1.051302,0.102542,0.062014,-0.732422,4.821777,-11.901855,0,0
22048,2024 10 23,05:27:13.717,0.157825,0.634984,-0.207867,0.727102,-1.122593,0.132328,0.043458,-3.173828,3.601074,-16.784668,0,0
22049,2024 10 23,05:27:13.725,0.159484,0.634988,-0.206894,0.727015,-1.188513,0.163091,-0.006348,-3.967285,6.286621,-22.644043,0,0
22050,2024 10 23,05:27:13.734,0.161507,0.635284,-0.205377,0.726739,-1.343791,0.195318,-0.02295,-2.563477,1.586914,-32.653809,0,0
22051,2024 10 23,05:27:13.742,0.164438,0.636091,-0.202985,0.726048,-1.396527,0.226081,0.031251,1.037598,1.342773,-50.048828,0,0
22052,2024 10 23,05:27:13.750,0.164438,0.636091,-0.202985,0.726048,-1.396527,0.226081,0.031251,1.037598,1.342773,-50.048828,0,0
22053,2024 10 23,05:27:13.759,0.168542,0.637131,-0.199243,0.725231,-1.402875,0.153325,0.126469,-0.549316,2.624512,-73.181152,0,0
22054,2024 10 23,05:27:13.767,0.174385,0.638973,-0.194145,0.72361,-1.522996,0.080081,0.027345,-2.868652,-5.493164,-101.074219,0,0
22055,2024 10 23,05:27:13.775,0.182505,0.641716,-0.188729,0.720607,-1.715384,0.401868,0.319346,-18.737793,-15.991211,-125.915527,0,0
22056,2024 10 23,05:27:13.784,0.191381,0.643976,-0.180818,0.718313,-1.626514,0.108402,0.108402,4.211426,4.455566,-148.986816,0,0
22057,2024 10 23,05:27:13.792,0.201471,0.646463,-0.171298,0.715648,-1.418989,0.193854,-0.199225,2.075195,-2.13623,-168.273926,0,0
22058,2024 10 23,05:27:13.800,0.201471,0.646463,-0.171298,0.715648,-1.418989,0.193854,-0.199225,2.075195,-2.13623,-168.273926,0,0
22059,2024 10 23,05:27:13.809,0.21182,0.650376,-0.162374,0.711181,-1.611377,0.403821,0.363292,-1.464844,-26.306152,-170.898438,0,0
22060,2024 10 23,05:27:13.817,0.222244,0.65253,-0.151627,0.708394,-0.983917,-0.062014,-0.109867,15.74707,19.40918,-180.725098,0,0
22061,2024 10 23,05:27:13.825,0.233873,0.655003,-0.141615,0.704429,-0.736839,-0.114261,-0.630879,-17.333984,-21.54541,-183.837891,0,1
22062,2024 10 23,05:27:13.834,0.246114,0.66056,-0.134778,0.696364,-0.796899,-0.312021,-0.452162,-42.541504,-69.213867,-179.748535,0,0
22063,2024 10 23,05:27:13.842,0.260349,0.665369,-0.131421,0.687191,-0.753929,-0.101566,-0.785668,-92.102051,-77.575684,-165.893555,0,0
22064,2024 10 23,05:27:13.850,0.260349,0.665369,-0.131421,0.687191,-0.753929,-0.101566,-0.785668,-92.102051,-77.575684,-165.893555,0,0
22065,2024 10 23,05:27:13.859,0.27431,0.670138,-0.132196,0.6769,-0.786157,0.021485,-0.528825,-117.980957,-95.397949,-133.728027,0,0
22066,2024 10 23,05:27:13.867,0.287679,0.672451,-0.136669,0.66811,-0.796411,0.819361,-0.4214,-158.325195,-67.382813,-90.148926,0,0
22067,2024 10 23,05:27:13.875,0.297894,0.669781,-0.145641,0.66441,-1.242714,0.549333,0.224128,-151.306152,1.281738,1.159668,0,0
22068,2024 10 23,05:27:13.884,0.308198,0.658942,-0.156142,0.668154,-0.125492,0.546403,-0.313486,-207.580566,120.483398,36.254883,0,0
22069,2024 10 23,05:27:13.892,0.318747,0.647093,-0.168887,0.671676,0.043947,0.322764,-1.082064,-220.581055,65.673828,44.677734,0,0
22070,2024 10 23,05:27:13.900,0.3295,0.639474,-0.18472,0.669613,-0.22364,0.542497,-0.097171,-236.816406,10.681152,40.710449,0,0
22071,2024 10 23,05:27:13.909,0.3295,0.639474,-0.18472,0.669613,-0.22364,0.542497,-0.097171,-236.816406,10.681152,40.710449,0,0
22072,2024 10 23,05:27:13.917,0.340038,0.629729,-0.201117,0.668856,-0.238289,0.953642,-0.550798,-237.670898,28.076172,59.387207,0,0
22073,2024 10 23,05:27:13.925,0.347014,0.621548,-0.218235,0.667558,-0.34962,0.865749,0.062502,-209.289551,3.967285,84.228516,0,0
22074,2024 10 23,05:27:13.934,0.352119,0.61244,-0.234199,0.667893,-0.161138,0.706565,-0.400403,-189.086914,23.55957,96.496582,0,0
22075,2024 10 23,05:27:13.942,0.354909,0.605506,-0.250433,0.666847,-0.245613,0.641133,-0.292978,-169.433594,-23.742676,105.529785,0,0
22076,2024 10 23,05:27:13.950,0.355476,0.600405,-0.266986,0.664732,-0.467299,0.644063,-0.087405,-152.648926,-41.503906,115.539551,0,0
22077,2024 10 23,05:27:13.959,0.355476,0.600405,-0.266986,0.664732,-0.467299,0.644063,-0.087405,-152.648926,-41.503906,115.539551,0,0
22078,2024 10 23,05:27:13.967,0.354246,0.595835,-0.283056,0.66285,-0.556169,0.584002,-0.094729,-132.995605,-49.865723,124.938965,0,0
22079,2024 10 23,05:27:13.975,0.351251,0.592082,-0.298755,0.660913,-0.622578,0.445326,-0.016114,-116.516113,-59.020996,132.995605,0,0
22080,2024 10 23,05:27:13.984,0.347177,0.588773,-0.314273,0.658823,-0.690451,0.352062,-0.044923,-108.337402,-68.237305,137.756348,0,0
22081,2024 10 23,05:27:13.992,0.342154,0.586268,-0.329898,0.656039,-0.827662,0.258797,0.075198,-103.088379,-83.068848,140.014648,0,0
22082,2024 10 23,05:27:14.000,0.336816,0.584054,-0.345465,0.652755,-0.950713,0.150395,0.178228,-102.233887,-87.219238,138.427734,0,0
22083,2024 10 23,05:27:14.009,0.336816,0.584054,-0.345465,0.652755,-0.950713,0.150395,0.178228,-102.233887,-87.219238,138.427734,0,0
22084,2024 10 23,05:27:14.017,0.331903,0.581694,-0.36085,0.649045,-1.043001,0.003418,0.193854,-108.398438,-86.791992,132.93457,0,0
