frame,date,time,quaternion_x,quaternion_y,quaternion_z,quaternion_w,accel_x,accel_y,accel_z,gyro_x,gyro_y,gyro_z,HS,TO
13781,2024 10 17,09:01:54.828,-0.537108,0.464611,0.517409,0.477431,-1.26957,0.221198,0.050783,13.244629,18.737793,-103.271484,0,0
13782,2024 10 17,09:01:54.837,-0.541312,0.469824,0.514503,0.470673,-1.215369,0.151372,0.045412,15.930176,22.155762,-114.929199,0,0
13783,2024 10 17,09:01:54.845,-0.545832,0.475376,0.51173,0.462836,-1.194372,0.158696,0.078616,21.606445,30.395508,-123.413086,0,0
13784,2024 10 17,09:01:54.853,-0.545832,0.475376,0.51173,0.462836,-1.194372,0.158696,0.078616,21.606445,30.395508,-123.413086,0,0
13785,2024 10 17,09:01:54.862,-0.550413,0.48129,0.509242,0.453958,-1.158238,0.108402,0.159673,29.23584,38.391113,-130.859375,0,0
13786,2024 10 17,09:01:54.870,-0.555049,0.487292,0.5072,0.444089,-1.130894,0.025391,0.151372,36.132813,47.180176,-134.033203,0,0
13787,2024 10 17,09:01:54.878,-0.55981,0.493011,0.506017,0.433013,-1.145543,0.021485,0.21778,50.90332,57.128906,-135.620117,0,0
13788,2024 10 17,09:01:54.887,-0.564663,0.498474,0.50535,0.421072,-1.208045,0.04883,0.218268,61.706543,61.645508,-137.756348,0,0
13789,2024 10 17,09:01:54.895,-0.569871,0.503324,0.504727,0.408855,-1.291055,0.264168,0.091311,69.396973,56.030273,-136.291504,0,0
13790,2024 10 17,09:01:54.903,-0.569871,0.503324,0.504727,0.408855,-1.291055,0.264168,0.091311,69.396973,56.030273,-136.291504,0,0
13791,2024 10 17,09:01:54.912,-0.575917,0.506091,0.503765,0.39801,-1.281777,0.576189,0.005371,73.181152,23.498535,-117.126465,0,0
13792,2024 10 17,09:01:54.920,-0.582603,0.505866,0.501804,0.39098,-1.22074,0.607929,0.140141,71.533203,-22.583008,-83.251953,0,0
13793,2024 10 17,09:01:54.928,-0.589618,0.503056,0.499474,0.387054,-0.910672,0.787133,0.160161,75.744629,-53.283691,-51.330566,0,0
13794,2024 10 17,09:01:54.937,-0.596162,0.498337,0.497829,0.385251,-0.697287,0.686544,0.203131,72.20459,-59.692383,-23.071289,0,0
13795,2024 10 17,09:01:54.945,-0.602066,0.49304,0.497236,0.383647,-0.625996,0.740745,0.255867,76.538086,-50.90332,-12.756348,0,0
13796,2024 10 17,09:01:54.953,-0.602066,0.49304,0.497236,0.383647,-0.625996,0.740745,0.255867,76.538086,-50.90332,-12.756348,0,0
13797,2024 10 17,09:01:54.962,-0.60737,0.487798,0.497321,0.381872,-0.563982,0.803247,0.27784,76.782227,-41.748047,-8.911133,0,0
13798,2024 10 17,09:01:54.970,-0.611787,0.48278,0.498128,0.380143,-0.546892,0.883816,0.242683,71.533203,-30.578613,-0.915527,0,0
13799,2024 10 17,09:01:54.978,-0.615032,0.478032,0.499562,0.379023,-0.545427,0.939482,0.219245,60.974121,-22.521973,10.742188,0,0
13800,2024 10 17,09:01:54.987,-0.616987,0.473718,0.501432,0.378793,-0.559587,0.952666,0.200201,46.936035,-14.831543,21.911621,0,0
13801,2024 10 17,09:01:54.995,-0.617673,0.470029,0.503558,0.37945,-0.577166,0.932646,0.186529,31.37207,-8.056641,31.005859,0,0
13802,2024 10 17,09:01:55.003,-0.617673,0.470029,0.503558,0.37945,-0.577166,0.932646,0.186529,31.37207,-8.056641,31.005859,0,0
13803,2024 10 17,09:01:55.012,-0.617147,0.466984,0.505946,0.380885,-0.557634,0.894559,0.185064,17.150879,0.427246,39.672852,0,0
13804,2024 10 17,09:01:55.020,-0.615282,0.464602,0.508886,0.382894,-0.592303,0.868679,0.200201,4.760742,12.390137,49.01123,0,0
13805,2024 10 17,09:01:55.028,-0.612118,0.462816,0.512389,0.385448,-0.642598,0.832545,0.184576,-6.591797,23.132324,58.044434,0,0
13806,2024 10 17,09:01:55.037,-0.607842,0.461466,0.516346,0.388542,-0.678732,0.784204,0.193365,-16.174316,31.494141,66.711426,0,0
13807,2024 10 17,09:01:55.045,-0.602549,0.460394,0.520809,0.392084,-0.732444,0.724631,0.203131,-23.254395,40.039063,75.866699,0,0
13808,2024 10 17,09:01:55.053,-0.602549,0.460394,0.520809,0.392084,-0.732444,0.724631,0.203131,-23.254395,40.039063,75.866699,0,0
13809,2024 10 17,09:01:55.062,-0.596344,0.459371,0.52585,0.396022,-0.806177,0.674825,0.212409,-27.160645,46.75293,85.998535,0,0
13810,2024 10 17,09:01:55.070,-0.589524,0.458087,0.531296,0.400428,-0.876492,0.617695,0.20069,-29.23584,48.217773,95.825195,0,0
13811,2024 10 17,09:01:55.078,-0.582385,0.456355,0.536989,0.40523,-0.912137,0.551286,0.225593,-28.381348,47.790527,103.820801,0,0
13812,2024 10 17,09:01:55.087,-0.575041,0.454137,0.543052,0.4101,-0.962432,0.50148,0.233406,-24.230957,49.194336,110.229492,0,0
13813,2024 10 17,09:01:55.095,-0.56759,0.451383,0.549505,0.414897,-1.02298,0.474136,0.227546,-18.554688,49.926758,115.722656,0,0
13814,2024 10 17,09:01:55.103,-0.56759,0.451383,0.549505,0.414897,-1.02298,0.474136,0.227546,-18.554688,49.926758,115.722656,0,0
13815,2024 10 17,09:01:55.112,-0.560137,0.448006,0.556244,0.419678,-1.069857,0.459975,0.239753,-13.366699,48.400879,121.276855,0,0
13816,2024 10 17,09:01:55.120,-0.552693,0.444007,0.563177,0.424524,-1.093783,0.433607,0.24659,-9.033203,46.386719,126.708984,0,0
13817,2024 10 17,09:01:55.128,-0.545165,0.4395,0.570297,0.429413,-1.114292,0.403333,0.244636,-5.92041,45.715332,131.896973,0,0
13818,2024 10 17,09:01:55.137,-0.537585,0.434544,0.577525,0.434325,-1.126987,0.378918,0.261238,-3.356934,44.067383,135.681152,0,0
13819,2024 10 17,09:01:55.145,-0.529961,0.42923,0.584751,0.439283,-1.126987,0.358898,0.265145,-1.77002,42.419434,138.61084,0,0
13820,2024 10 17,09:01:55.153,-0.529961,0.42923,0.584751,0.439283,-1.126987,0.358898,0.265145,-1.77002,42.419434,138.61084,0,0
13821,2024 10 17,09:01:55.162,-0.522234,0.423646,0.591994,0.444229,-1.089389,0.331065,0.278817,-0.488281,42.785645,141.113281,0,0
13822,2024 10 17,09:01:55.170,-0.514175,0.41802,0.599396,0.449007,-1.106479,0.306162,0.255867,-0.305176,47.302246,142.883301,0,0
13823,2024 10 17,09:01:55.178,-0.505855,0.412489,0.606748,0.453673,-1.145543,0.28663,0.255379,-2.319336,48.950195,142.39502,0,0
13824,2024 10 17,09:01:55.187,-0.497461,0.407142,0.613752,0.458341,-1.173376,0.247078,0.224616,-5.79834,48.156738,139.526367,0,0
13825,2024 10 17,09:01:55.195,-0.489091,0.402121,0.620265,0.462989,-1.215369,0.183111,0.205573,-10.314941,47.302246,134.70459,0,0
13826,2024 10 17,09:01:55.203,-0.489091,0.402121,0.620265,0.462989,-1.215369,0.183111,0.205573,-10.314941,47.302246,134.70459,0,0
13827,2024 10 17,09:01:55.212,-0.4809,0.397507,0.626141,0.467622,-1.275429,0.114261,0.181646,-15.075684,44.250488,127.990723,0,0
13828,2024 10 17,09:01:55.220,-0.473236,0.39315,0.631183,0.472323,-1.294473,0.044435,0.136235,-18.249512,34.729004,120.117188,0,0
13829,2024 10 17,09:01:55.228,-0.466406,0.388677,0.635303,0.477269,-1.161168,-0.066408,0.176275,-20.019531,23.620605,115.05127,0,0
13830,2024 10 17,09:01:55.237,-0.459782,0.384299,0.639332,0.48184,-1.095737,-0.155278,0.131352,-17.76123,25.57373,112.060547,0,0
13831,2024 10 17,09:01:55.245,-0.453086,0.38013,0.643538,0.485873,-1.079134,-0.209479,0.118168,-13.122559,32.836914,109.069824,0,0
13832,2024 10 17,09:01:55.253,-0.446275,0.376355,0.647863,0.489356,-1.142613,-0.287606,0.041505,-11.413574,37.353516,104.370117,0,0
13833,2024 10 17,09:01:55.262,-0.446275,0.376355,0.647863,0.489356,-1.142613,-0.287606,0.041505,-11.413574,37.353516,104.370117,0,0
13834,2024 10 17,09:01:55.270,-0.439703,0.372803,0.652011,0.492505,-1.14066,-0.382336,-0.022462,-10.131836,37.231445,99.54834,0,0
13835,2024 10 17,09:01:55.278,-0.433397,0.36934,0.655986,0.495417,-1.13773,-0.466323,-0.047853,-9.277344,35.766602,96.618652,0,0
13836,2024 10 17,09:01:55.287,-0.42742,0.365937,0.65964,0.498274,-1.164586,-0.57033,-0.126469,-9.399414,31.433105,92.590332,0,0
13837,2024 10 17,09:01:55.295,-0.422289,0.362556,0.662667,0.501097,-1.106479,-0.703635,-0.139164,-8.911133,21.972656,84.228516,0,0
13838,2024 10 17,09:01:55.303,-0.418107,0.359588,0.66508,0.503539,-1.105991,-0.862819,-0.207038,-7.629395,16.662598,70.678711,0,0
13839,2024 10 17,09:01:55.312,-0.418107,0.359588,0.66508,0.503539,-1.105991,-0.862819,-0.207038,-7.629395,16.662598,70.678711,0,0
13840,2024 10 17,09:01:55.320,-0.41506,0.357152,0.666895,0.505389,-1.134312,-1.034211,-0.263192,-3.601074,10.498047,55.541992,0,0
13841,2024 10 17,09:01:55.328,-0.41335,0.354998,0.66808,0.506742,-1.162145,-1.15482,-0.290048,0.183105,0.244141,41.931152,0,0
13842,2024 10 17,09:01:55.337,-0.413209,0.353102,0.668399,0.50776,-1.18656,-1.22367,-0.311533,2.563477,-13.977051,25.268555,0,0
13843,2024 10 17,09:01:55.345,-0.414781,0.351754,0.667632,0.508422,-1.135777,-1.243202,-0.305673,2.990723,-26.489258,4.394531,0,0
13844,2024 10 17,09:01:55.353,-0.41798,0.352798,0.667369,0.505416,-4.737449,-1.894589,-0.747581,54.748535,20.446777,-60.058594,0,0
13845,2024 10 17,09:01:55.362,-0.41798,0.352798,0.667369,0.505416,-4.737449,-1.894589,-0.747581,54.748535,20.446777,-60.058594,0,0
13846,2024 10 17,09:01:55.370,-0.428751,0.360973,0.662834,0.49651,-1.704154,-0.685079,-0.566424,36.254883,-109.924316,-166.381836,0,0
13847,2024 10 17,09:01:55.378,-0.445119,0.368542,0.650314,0.49309,0.193854,-0.692892,-0.729514,-12.695313,-116.210938,-216.003418,0,0
13848,2024 10 17,09:01:55.387,-0.4581,0.377548,0.64352,0.483202,-1.231971,0.959014,0.614277,32.470703,-10.070801,-218.383789,1,0
13849,2024 10 17,09:01:55.395,-0.465559,0.389368,0.634351,0.478796,-2.089419,0.215339,-0.210944,-66.955566,-38.94043,-189.941406,0,0
13850,2024 10 17,09:01:55.403,-0.476279,0.398141,0.621583,0.477783,-1.763726,0.179205,-0.10303,-57.556152,-108.459473,-181.213379,0,0
13851,2024 10 17,09:01:55.412,-0.476279,0.398141,0.621583,0.477783,-1.763726,0.179205,-0.10303,-57.556152,-108.459473,-181.213379,0,0
13852,2024 10 17,09:01:55.420,-0.489037,0.403217,0.606542,0.479964,-1.238807,-0.28077,-0.230964,-60.424805,-158.325195,-152.709961,0,0
13853,2024 10 17,09:01:55.428,-0.499036,0.40586,0.595391,0.481404,-1.250038,-0.120609,-0.027345,-38.818359,-111.755371,-99.42627,0,0
13854,2024 10 17,09:01:55.437,-0.505655,0.406952,0.586396,0.484605,-0.934599,0.033692,0.107913,-49.560547,-101.5625,-58.166504,0,0
13855,2024 10 17,09:01:55.445,-0.510095,0.407997,0.579113,0.487822,-0.927763,0.069826,-0.279305,-44.921875,-77.758789,-44.494629,0,0
13856,2024 10 17,09:01:55.453,-0.514619,0.408316,0.57263,0.490449,-0.858425,0.074221,-0.023438,-30.090332,-73.974609,-41.320801,0,0
13857,2024 10 17,09:01:55.462,-0.514619,0.408316,0.57263,0.490449,-0.858425,0.074221,-0.023438,-30.090332,-73.974609,-41.320801,0,0
13858,2024 10 17,09:01:55.470,-0.517728,0.408633,0.567371,0.493018,-0.997101,0.117191,0.040529,-35.949707,-59.448242,-23.803711,0,0
13859,2024 10 17,09:01:55.478,-0.519476,0.408858,0.562677,0.496361,-0.957549,0.126469,-0.033204,-42.358398,-52.67334,-10.864258,0,0
13860,2024 10 17,09:01:55.487,-0.52105,0.408815,0.558312,0.499665,-0.823267,0.096683,-0.158696,-36.315918,-50.048828,-9.521484,0,0
13861,2024 10 17,09:01:55.495,-0.522215,0.408863,0.555151,0.501927,-0.834986,0.080569,-0.153813,-24.536133,-30.700684,-7.263184,0,0
13862,2024 10 17,09:01:55.503,-0.522848,0.408944,0.55332,0.503222,-0.859401,0.117191,-0.158696,-12.695313,-17.150879,-4.455566,0,0
13863,2024 10 17,09:01:55.512,-0.522848,0.408944,0.55332,0.503222,-0.859401,0.117191,-0.158696,-12.695313,-17.150879,-4.455566,0,0
13864,2024 10 17,09:01:55.520,-0.523381,0.408973,0.552457,0.503591,-0.926298,0.184576,-0.018555,-3.295898,-6.958008,-5.126953,0,0
13865,2024 10 17,09:01:55.528,-0.5239,0.409131,0.551948,0.503482,-0.953642,0.17481,-0.077151,-0.183105,-5.737305,-7.568359,0,0
13866,2024 10 17,09:01:55.537,-0.524713,0.409213,0.551568,0.502985,-0.922391,0.199713,-0.051759,6.164551,-2.868652,-11.047363,0,0
13867,2024 10 17,09:01:55.545,-0.52554,0.409455,0.551465,0.502037,-0.9429,0.199713,-0.061037,8.789063,0.305176,-13.549805,0,0
13868,2024 10 17,09:01:55.553,-0.526419,0.409847,0.551434,0.500829,-0.961455,0.174322,-0.052736,8.544922,2.868652,-15.869141,0,0
13869,2024 10 17,09:01:55.562,-0.526419,0.409847,0.551434,0.500829,-0.961455,0.174322,-0.052736,8.544922,2.868652,-15.869141,0,0
13870,2024 10 17,09:01:55.570,-0.52731,0.410307,0.551361,0.499592,-0.936064,0.189459,-0.069826,8.422852,2.258301,-15.991211,0,0
13871,2024 10 17,09:01:55.578,-0.528044,0.410822,0.551314,0.498446,-0.963897,0.179205,-0.037111,7.629395,3.967285,-14.831543,0,0
13872,2024 10 17,09:01:55.587,-0.528831,0.411276,0.551246,0.49731,-0.974639,0.183599,-0.041993,7.446289,1.831055,-15.197754,0,0
13873,2024 10 17,09:01:55.595,-0.529706,0.411686,0.551032,0.496275,-0.966338,0.187506,-0.054201,7.080078,0.183105,-15.319824,0,0
13874,2024 10 17,09:01:55.603,-0.530608,0.412097,0.550691,0.495349,-0.977569,0.170904,-0.017579,5.249023,-1.647949,-15.441895,0,0
13875,2024 10 17,09:01:55.612,-0.530608,0.412097,0.550691,0.495349,-0.977569,0.170904,-0.017579,5.249023,-1.647949,-15.441895,0,0
13876,2024 10 17,09:01:55.620,-0.531603,0.412442,0.550221,0.494516,-0.941435,0.170904,-0.063967,4.821777,-3.90625,-15.319824,0,0
13877,2024 10 17,09:01:55.628,-0.532554,0.412783,0.549692,0.493796,-0.933134,0.167974,-0.059084,3.601074,-3.417969,-14.648438,0,0
13878,2024 10 17,09:01:55.637,-0.533394,0.413168,0.549188,0.493129,-0.941923,0.165532,-0.045412,2.807617,-2.868652,-13.85498,0,0
13879,2024 10 17,09:01:55.645,-0.534194,0.413578,0.548661,0.492506,-0.942412,0.159673,-0.043947,2.075195,-3.112793,-13.85498,0,0
13880,2024 10 17,09:01:55.653,-0.535015,0.413985,0.548078,0.49192,-0.930692,0.163091,-0.061037,1.220703,-3.540039,-13.977051,0,0
13881,2024 10 17,09:01:55.662,-0.535746,0.414526,0.54755,0.491258,-0.933134,0.170415,-0.06299,1.098633,-0.854492,-14.648438,0,0
13882,2024 10 17,09:01:55.670,-0.535746,0.414526,0.54755,0.491258,-0.933134,0.170415,-0.06299,1.098633,-0.854492,-14.648438,0,0
13883,2024 10 17,09:01:55.678,-0.536407,0.41517,0.546949,0.49066,-0.921415,0.170904,-0.066408,-0.671387,-1.281738,-14.770508,0,0
13884,2024 10 17,09:01:55.687,-0.536909,0.416006,0.546365,0.490054,-0.931181,0.155766,-0.070803,-2.746582,1.953125,-15.075684,0,0
13885,2024 10 17,09:01:55.695,-0.537305,0.416958,0.545792,0.48945,-0.928251,0.155766,-0.077639,-3.78418,2.380371,-15.075684,0,0
13886,2024 10 17,09:01:55.703,-0.537614,0.418022,0.545193,0.488869,-0.940947,0.146001,-0.064455,-5.310059,3.723145,-15.197754,0,0
13887,2024 10 17,09:01:55.712,-0.53791,0.419099,0.544581,0.488303,-0.938505,0.138188,-0.049806,-5.065918,2.868652,-15.075684,0,0
13888,2024 10 17,09:01:55.720,-0.53791,0.419099,0.544581,0.488303,-0.938505,0.138188,-0.049806,-5.065918,2.868652,-15.075684,0,0
13889,2024 10 17,09:01:55.728,-0.538235,0.420108,0.543973,0.487757,-0.944365,0.133793,-0.04297,-4.150391,2.746582,-14.526367,0,0
13890,2024 10 17,09:01:55.737,-0.538621,0.421046,0.543393,0.487167,-0.953642,0.148442,-0.049318,-3.540039,1.831055,-14.892578,0,0
13891,2024 10 17,09:01:55.745,-0.539057,0.421945,0.542724,0.486652,-0.955596,0.136235,-0.064455,-3.967285,0.549316,-14.770508,0,0
13892,2024 10 17,09:01:55.753,-0.539595,0.422739,0.54198,0.486196,-0.944853,0.121586,-0.063478,-3.662109,-1.831055,-14.648438,0,0
13893,2024 10 17,09:01:55.762,-0.540237,0.423459,0.541266,0.485651,-0.948759,0.123051,-0.064455,-2.075195,-1.403809,-15.197754,0,0
13894,2024 10 17,09:01:55.770,-0.540237,0.423459,0.541266,0.485651,-0.948759,0.123051,-0.064455,-2.075195,-1.403809,-15.197754,0,0
13895,2024 10 17,09:01:55.778,-0.54094,0.424129,0.54056,0.48507,-0.945341,0.118656,-0.050295,-0.671387,-2.319336,-15.563965,0,0
13896,2024 10 17,09:01:55.787,-0.541768,0.42473,0.539868,0.48439,-0.955596,0.123051,-0.059572,0.732422,-2.746582,-16.235352,0,0
13897,2024 10 17,09:01:55.795,-0.542655,0.42538,0.53918,0.483593,-0.951201,0.124516,-0.064455,2.01416,-1.708984,-18.371582,0,0
13898,2024 10 17,09:01:55.803,-0.543619,0.426107,0.538499,0.482628,-0.977569,0.138188,-0.057131,3.051758,-1.159668,-20.080566,0,0
13899,2024 10 17,09:01:55.812,-0.544749,0.426903,0.537721,0.481517,-0.970733,0.127445,-0.096683,3.234863,-2.197266,-23.254395,0,0
13900,2024 10 17,09:01:55.820,-0.544749,0.426903,0.537721,0.481517,-0.970733,0.127445,-0.096683,3.234863,-2.197266,-23.254395,0,0
13901,2024 10 17,09:01:55.828,-0.546008,0.427833,0.536965,0.480107,-0.970244,0.133305,-0.077151,5.310059,0.854492,-26.306152,0,0
13902,2024 10 17,09:01:55.837,-0.547287,0.429007,0.536302,0.47834,-0.975127,0.150395,-0.099612,6.774902,4.211426,-30.273438,0,0
13903,2024 10 17,09:01:55.845,-0.548598,0.430543,0.535674,0.476159,-0.996612,0.130863,-0.054201,7.324219,8.789063,-35.27832,0,0
13904,2024 10 17,09:01:55.853,-0.550101,0.43239,0.535114,0.473372,-1.064974,0.135746,-0.08301,10.681152,11.413574,-42.114258,0,0
13905,2024 10 17,09:01:55.862,-0.552234,0.434263,0.534201,0.470194,-1.064974,0.133305,-0.023438,13.671875,5.615234,-49.987793,0,0
13906,2024 10 17,09:01:55.870,-0.552234,0.434263,0.534201,0.470194,-1.064974,0.133305,-0.023438,13.671875,5.615234,-49.987793,0,0
13907,2024 10 17,09:01:55.878,-0.554745,0.436371,0.533059,0.466568,-1.090365,0.139653,-0.0459,15.563965,7.141113,-57.434082,0,0
13908,2024 10 17,09:01:55.887,-0.557551,0.438735,0.531487,0.462785,-1.16654,0.156743,-0.024415,12.939453,3.417969,-63.720703,0,0
13909,2024 10 17,09:01:55.895,-0.560802,0.441415,0.529223,0.458886,-1.239784,0.182623,-0.051759,10.253906,-2.01416,-73.242188,0,0
13910,2024 10 17,09:01:55.903,-0.564682,0.4445,0.526145,0.45467,-1.285684,0.211432,-0.046876,8.056641,-6.713867,-86.364746,0,0
13911,2024 10 17,09:01:55.912,-0.5692,0.448223,0.522189,0.449918,-1.327189,0.215827,-0.040529,5.79834,-10.070801,-102.233887,0,0
13912,2024 10 17,09:01:55.920,-0.5692,0.448223,0.522189,0.449918,-1.327189,0.215827,-0.040529,5.79834,-10.070801,-102.233887,0,0
13913,2024 10 17,09:01:55.928,-0.574528,0.45254,0.51712,0.444648,-1.333048,0.225593,-0.003906,3.417969,-18.188477,-119.07959,0,0
13914,2024 10 17,09:01:55.937,-0.580332,0.45763,0.511072,0.438858,-1.304239,0.242683,-0.052736,-0.671387,-17.700195,-135.009766,0,0
13915,2024 10 17,09:01:55.945,-0.586494,0.463675,0.504136,0.432293,-1.353557,0.270516,-0.036134,-5.432129,-17.51709,-153.015137,0,0
13916,2024 10 17,09:01:55.953,-0.593064,0.470718,0.495937,0.425142,-1.411176,0.273446,-0.042482,-13.61084,-21.30127,-172.119141,0,0
13917,2024 10 17,09:01:55.962,-0.600232,0.478816,0.486492,0.416872,-1.512741,0.301767,-0.037599,-15.808105,-21.057129,-197.570801,0,0
13918,2024 10 17,09:01:55.970,-0.600232,0.478816,0.486492,0.416872,-1.512741,0.301767,-0.037599,-15.808105,-21.057129,-197.570801,0,0
13919,2024 10 17,09:01:55.978,-0.608429,0.487992,0.475439,0.406983,-1.717826,0.368664,-0.082522,-16.174316,-25.939941,-230.957031,0,0
13920,2024 10 17,09:01:55.987,-0.618084,0.498091,0.462294,0.395173,-1.73101,0.440443,-0.06592,-11.962891,-30.212402,-270.446777,0,0
13921,2024 10 17,09:01:55.995,-0.628919,0.509366,0.447193,0.380823,-2.137272,0.602557,-0.073244,-10.314941,-32.348633,-313.232422,0,0
13922,2024 10 17,09:01:56.003,-0.641103,0.522053,0.428988,0.363891,-2.529374,0.633808,-0.190435,-15.075684,-44.73877,-367.980957,0,0
13923,2024 10 17,09:01:56.012,-0.654943,0.536004,0.406501,0.344247,-2.758385,0.578143,-0.093753,-18.493652,-61.584473,-428.466797,0,0
13924,2024 10 17,09:01:56.020,-0.654943,0.536004,0.406501,0.344247,-2.758385,0.578143,-0.093753,-18.493652,-61.584473,-428.466797,0,0
13925,2024 10 17,09:01:56.028,-0.669296,0.551119,0.379968,0.32239,-2.775475,0.397961,-0.177252,-34.912109,-79.467773,-473.449707,0,0
13926,2024 10 17,09:01:56.037,-0.68279,0.567073,0.349808,0.299769,-2.90878,0.152348,-0.170904,-53.283691,-88.500977,-498.840332,0,0
13927,2024 10 17,09:01:56.045,-0.694647,0.583325,0.317554,0.276328,-2.649495,-0.47853,-0.131352,-70.617676,-94.970703,-509.70459,0,1
13928,2024 10 17,09:01:56.053,-0.70558,0.597831,0.285851,0.251085,-2.703696,-0.413099,0.101077,-45.166016,-70.678711,-505.615234,0,0
13929,2024 10 17,09:01:56.062,-0.715766,0.610217,0.25482,0.224458,-3.004486,0.054689,0.113285,-28.442383,-73.364258,-509.277344,0,0
13930,2024 10 17,09:01:56.070,-0.725137,0.620502,0.222953,0.198608,-2.482986,0.458022,0.542985,-19.897461,-81.90918,-497.619629,0,0
13931,2024 10 17,09:01:56.078,-0.725137,0.620502,0.222953,0.198608,-2.482986,0.458022,0.542985,-19.897461,-81.90918,-497.619629,0,0
13932,2024 10 17,09:01:56.087,-0.733643,0.628494,0.193401,0.171344,-1.970275,1.063021,0.578631,3.662109,-51.025391,-487.121582,0,0
13933,2024 10 17,09:01:56.095,-0.74136,0.634401,0.167044,0.141479,-1.347209,1.30668,1.066439,30.883789,0.427246,-477.783203,0,0
13934,2024 10 17,09:01:56.103,-0.747923,0.638514,0.146145,0.107482,-1.309122,0.855495,0.973174,54.077148,81.665039,-467.773438,0,0
13935,2024 10 17,09:01:56.112,-0.756692,0.637458,0.128239,0.067965,-0.722678,0.333506,0.533219,140.625,123.168945,-488.220215,0,0
13936,2024 10 17,09:01:56.120,-0.768064,0.628495,0.116582,0.038475,1.860408,1.300821,1.823298,216.247559,70.43457,-263.244629,0,0
13937,2024 10 17,09:01:56.128,-0.768064,0.628495,0.116582,0.038475,1.860408,1.300821,1.823298,216.247559,70.43457,-263.244629,0,0
13938,2024 10 17,09:01:56.137,-0.773164,0.621935,0.119697,0.032954,0.062014,1.639699,0.029786,59.631348,73.974609,56.57959,0,0
13939,2024 10 17,09:01:56.145,-0.776833,0.613144,0.138726,0.036608,-1.426313,2.188055,-0.102054,114.501953,135.192871,206.481934,0,0
13940,2024 10 17,09:01:56.153,-0.777248,0.607014,0.156241,0.054844,-1.132359,1.385296,0.387707,19.348145,-15.014648,303.405762,0,0
13941,2024 10 17,09:01:56.162,-0.775533,0.60194,0.172593,0.080175,-0.739769,0.98001,0.188482,-16.357422,-27.832031,353.69873,0,0
13942,2024 10 17,09:01:56.170,-0.772099,0.597233,0.188681,0.107585,-0.50734,0.718284,0.588885,-24.841309,-54.931641,361.755371,0,0
13943,2024 10 17,09:01:56.178,-0.772099,0.597233,0.188681,0.107585,-0.50734,0.718284,0.588885,-24.841309,-54.931641,361.755371,0,0
13944,2024 10 17,09:01:56.187,-0.767532,0.592659,0.204506,0.133518,-0.250008,0.454115,0.546403,-20.324707,-19.836426,344.116211,0,0
13945,2024 10 17,09:01:56.195,-0.762411,0.587691,0.222529,0.154365,-0.26661,0.350108,0.560564,-6.286621,30.212402,315.856934,0,0
13946,2024 10 17,09:01:56.203,-0.756991,0.582285,0.24199,0.171315,-0.333995,0.397961,0.523453,6.408691,66.711426,296.447754,0,0
13947,2024 10 17,09:01:56.212,-0.751138,0.576453,0.262379,0.186151,-0.472182,0.476089,0.39845,12.939453,83.679199,288.024902,0,0
13948,2024 10 17,09:01:56.220,-0.744718,0.570203,0.283178,0.200184,-0.646504,0.538591,0.312998,14.770508,92.773438,287.29248,0,0
13949,2024 10 17,09:01:56.228,-0.744718,0.570203,0.283178,0.200184,-0.646504,0.538591,0.312998,14.770508,92.773438,287.29248,0,0
13950,2024 10 17,09:01:56.237,-0.737547,0.563509,0.304196,0.214352,-0.761254,0.560564,0.236335,12.023926,92.041016,294.006348,0,0
13951,2024 10 17,09:01:56.245,-0.729413,0.556337,0.325358,0.229322,-0.779321,0.548357,0.181158,7.202148,92.651367,306.70166,0,0
13952,2024 10 17,09:01:56.253,-0.719968,0.548721,0.347282,0.24484,-0.852565,0.533219,0.167974,1.403809,99.975586,321.655273,0,0
13953,2024 10 17,09:01:56.262,-0.708979,0.540778,0.369964,0.260835,-0.934599,0.500992,0.152348,-4.699707,109.558105,335.327148,0,0
13954,2024 10 17,09:01:56.270,-0.696342,0.532476,0.393601,0.276868,-1.052767,0.508805,0.142582,-9.460449,123.779297,347.717285,0,0
13955,2024 10 17,09:01:56.278,-0.696342,0.532476,0.393601,0.276868,-1.052767,0.508805,0.142582,-9.460449,123.779297,347.717285,0,0
13956,2024 10 17,09:01:56.287,-0.682058,0.52387,0.417805,0.292911,-1.261269,0.507828,0.11475,-15.74707,133.056641,356.384277,0,0
13957,2024 10 17,09:01:56.295,-0.666536,0.514943,0.441649,0.309044,-1.469771,0.459487,0.10596,-21.789551,132.141113,358.886719,0,0
13958,2024 10 17,09:01:56.303,-0.650236,0.505605,0.464503,0.325257,-1.564013,0.400891,0.065432,-27.22168,125.488281,357.971191,0,0
13959,2024 10 17,09:01:56.312,-0.633306,0.495722,0.486567,0.341226,-1.627491,0.367199,0.076174,-27.46582,124.816895,358.093262,0,0
13960,2024 10 17,09:01:56.320,-0.61557,0.485216,0.508112,0.357017,-1.743217,0.350597,0.055177,-28.442383,123.10791,361.816406,0,0
13961,2024 10 17,09:01:56.328,-0.61557,0.485216,0.508112,0.357017,-1.743217,0.350597,0.055177,-28.442383,123.10791,361.816406,0,0
13962,2024 10 17,09:01:56.337,-0.597157,0.473837,0.528963,0.372935,-1.849177,0.323252,0.058596,-29.785156,117.858887,367.553711,0,0
13963,2024 10 17,09:01:56.345,-0.578045,0.461505,0.549163,0.388969,-1.988342,0.278817,0.096683,-30.517578,112.976074,374.511719,0,0
13964,2024 10 17,09:01:56.353,-0.55835,0.44812,0.568693,0.404996,-2.155339,0.209967,0.172369,-29.052734,107.48291,380.859375,0,0
13965,2024 10 17,09:01:56.362,-0.538096,0.433663,0.58768,0.42074,-2.324778,0.090823,0.244636,-24.780273,104.675293,386.779785,0,0
13966,2024 10 17,09:01:56.370,-0.517472,0.418068,0.606091,0.436,-2.501053,-0.097171,0.353038,-19.226074,99.243164,391.784668,0,0
13967,2024 10 17,09:01:56.378,-0.517472,0.418068,0.606091,0.436,-2.501053,-0.097171,0.353038,-19.226074,99.243164,391.784668,0,0
13968,2024 10 17,09:01:56.387,-0.496662,0.401349,0.623806,0.450679,-2.630451,-0.395032,0.385754,-12.390137,94.360352,395.446777,0,0
13969,2024 10 17,09:01:56.395,-0.475554,0.383812,0.641076,0.464283,-2.699301,-0.782739,0.399915,-3.845215,96.374512,396.54541,0,0
13970,2024 10 17,09:01:56.403,-0.454201,0.366037,0.657781,0.47649,-2.739341,-1.213904,0.376965,2.197266,100.891113,390.380859,0,0
13971,2024 10 17,09:01:56.412,-0.43282,0.349074,0.67355,0.486975,-2.821375,-1.672414,0.285165,4.516602,108.886719,371.09375,0,0
13972,2024 10 17,09:01:56.420,-0.412172,0.33391,0.687732,0.495624,-2.763268,-2.119205,0.166021,2.075195,112.182617,336.975098,0,0
13973,2024 10 17,09:01:56.428,-0.412172,0.33391,0.687732,0.495624,-2.763268,-2.119205,0.166021,2.075195,112.182617,336.975098,0,0
13974,2024 10 17,09:01:56.437,-0.392967,0.321705,0.699776,0.502391,-2.357982,-2.58211,-0.144536,-5.249023,117.30957,286.92627,0,0
13975,2024 10 17,09:01:56.445,-0.375041,0.314032,0.710091,0.506456,-1.683157,-3.091891,-0.621601,-6.103516,141.723633,222.045898,0,0
13976,2024 10 17,09:01:56.453,-0.35794,0.312301,0.719216,0.507025,-1.784722,-4.213508,-1.359905,-9.643555,184.936523,152.038574,0,0
13977,2024 10 17,09:01:56.462,-0.341744,0.315476,0.728386,0.50313,-3.017182,-4.433729,-1.694388,22.888184,213.989258,95.947266,0,0
13978,2024 10 17,09:01:56.470,-0.333558,0.318814,0.733818,0.498606,-3.529405,-4.241828,-1.910215,25.20752,99.914551,33.813477,0,0
13979,2024 10 17,09:01:56.478,-0.339325,0.318168,0.732703,0.496763,-2.457106,-3.759392,-1.288125,33.38623,-78.00293,-24.536133,0,0
13980,2024 10 17,09:01:56.487,-0.339325,0.318168,0.732703,0.496763,-2.457106,-3.759392,-1.288125,33.38623,-78.00293,-24.536133,0,0
13981,2024 10 17,09:01:56.495,-0.351856,0.316049,0.728832,0.49509,-1.456587,-2.926359,-0.867214,47.546387,-116.210938,-60.119629,0,0
13982,2024 10 17,09:01:56.503,-0.360982,0.322516,0.738581,0.469226,-9.547167,-1.280313,-3.426862,499.694824,301.940918,-252.319336,0,0
13983,2024 10 17,09:01:56.512,-0.403687,0.324172,0.714539,0.470513,1.546434,0.324229,2.209052,-139.038086,-692.626953,-259.70459,0,0
13984,2024 10 17,09:01:56.520,-0.43553,0.32934,0.693599,0.469861,2.36726,1.132847,-0.092776,-78.186035,-68.359375,-307.495117,0,0
13985,2024 10 17,09:01:56.528,-0.440807,0.357167,0.690554,0.448616,-3.354594,2.078677,0.536149,89.84375,95.52002,-390.50293,1,0
13986,2024 10 17,09:01:56.537,-0.440807,0.357167,0.690554,0.448616,-3.354594,2.078677,0.536149,89.84375,95.52002,-390.50293,0,0
13987,2024 10 17,09:01:56.545,-0.456702,0.380081,0.664114,0.453777,-1.584521,-1.177282,-0.944853,-285.461426,-194.519043,-326.171875,0,0
13988,2024 10 17,09:01:56.553,-0.468969,0.3964,0.64615,0.453239,-2.472732,-0.951689,-0.675802,-49.255371,-65.979004,-234.619141,0,0
13989,2024 10 17,09:01:56.562,-0.484141,0.400954,0.632254,0.452877,-1.565966,-0.164068,0.084475,-34.606934,-191.40625,-152.46582,0,0
13990,2024 10 17,09:01:56.570,-0.497304,0.402251,0.618917,0.455877,-1.368206,0.245613,0.769555,-49.804688,-157.775879,-112.182617,0,0
13991,2024 10 17,09:01:56.578,-0.505124,0.404564,0.605688,0.462946,-1.066927,-0.173345,0.020508,-101.318359,-163.085938,-67.443848,0,0
13992,2024 10 17,09:01:56.587,-0.505124,0.404564,0.605688,0.462946,-1.066927,-0.173345,0.020508,-101.318359,-163.085938,-67.443848,0,0
13993,2024 10 17,09:01:56.595,-0.512878,0.404779,0.593482,0.469988,-0.755882,-0.153813,-0.301767,-70.800781,-145.996094,-54.443359,0,0
13994,2024 10 17,09:01:56.603,-0.519636,0.404036,0.583558,0.475597,-0.855495,0.073244,0.076174,-53.833008,-129.577637,-39.489746,0,0
13995,2024 10 17,09:01:56.612,-0.524138,0.403592,0.575349,0.481007,-0.939482,0.036134,-0.110843,-56.274414,-100.280762,-23.742676,0,0
13996,2024 10 17,09:01:56.620,-0.528215,0.402789,0.568627,0.485194,-0.672384,-0.015137,-0.353526,-33.38623,-84.472656,-23.010254,0,0
13997,2024 10 17,09:01:56.628,-0.531411,0.402021,0.564859,0.48674,-0.739769,0.059572,-0.267586,-7.202148,-43.457031,-18.737793,0,0
13998,2024 10 17,09:01:56.637,-0.531411,0.402021,0.564859,0.48674,-0.739769,0.059572,-0.267586,-7.202148,-43.457031,-18.737793,0,0
13999,2024 10 17,09:01:56.645,-0.533295,0.401679,0.562927,0.487199,-0.92288,0.131352,-0.001465,-3.417969,-23.742676,-12.756348,0,0
14000,2024 10 17,09:01:56.653,-0.534881,0.40146,0.561459,0.487335,-0.950224,0.210456,-0.055177,1.525879,-20.385742,-14.160156,0,0
14001,2024 10 17,09:01:56.662,-0.536376,0.401525,0.560346,0.48692,-1.024934,0.221686,0.014649,3.356934,-12.878418,-17.883301,0,0
14002,2024 10 17,09:01:56.670,-0.538142,0.401704,0.559139,0.48621,-0.970733,0.207526,-0.003906,6.286621,-15.441895,-23.071289,0,0
14003,2024 10 17,09:01:56.678,-0.540076,0.402021,0.55787,0.48526,-0.934599,0.155766,-0.079592,5.371094,-13.305664,-25.268555,0,0
14004,2024 10 17,09:01:56.686,-0.540076,0.402021,0.55787,0.48526,-0.934599,0.155766,-0.079592,5.371094,-13.305664,-25.268555,0,0
14005,2024 10 17,09:01:56.695,-0.541857,0.402492,0.556765,0.484152,-0.941923,0.146977,-0.08301,5.249023,-9.155273,-25.024414,0,0
14006,2024 10 17,09:01:56.703,-0.543419,0.403023,0.555857,0.483002,-0.946318,0.185553,-0.0459,6.164551,-6.835938,-23.254395,0,0
14007,2024 10 17,09:01:56.711,-0.544719,0.403648,0.55489,0.482128,-0.91702,0.160649,-0.092776,1.89209,-6.713867,-20.935059,0,0
14008,2024 10 17,09:01:56.720,-0.54568,0.404369,0.553912,0.481561,-0.905789,0.146977,-0.08301,-4.089355,-4.882813,-17.211914,0,0
14009,2024 10 17,09:01:56.728,-0.546295,0.405204,0.553088,0.481108,-0.927274,0.158696,-0.069826,-3.78418,-1.464844,-15.075684,0,0
14010,2024 10 17,09:01:56.736,-0.546295,0.405204,0.553088,0.481108,-0.927274,0.158696,-0.069826,-3.78418,-1.464844,-15.075684,0,0
14011,2024 10 17,09:01:56.745,-0.546696,0.406094,0.55241,0.480681,-0.928739,0.146977,-0.06299,-4.882813,0.671387,-13.73291,0,0
14012,2024 10 17,09:01:56.753,-0.547058,0.406944,0.551818,0.48023,-0.966826,0.137211,-0.016114,-3.845215,0.671387,-13.000488,0,0
14013,2024 10 17,09:01:56.761,-0.547514,0.407629,0.551207,0.479832,-0.968291,0.143559,-0.016114,-3.051758,-2.319336,-12.390137,0,0
14014,2024 10 17,09:01:56.770,-0.54812,0.408137,0.550496,0.479523,-0.958037,0.156255,-0.047365,-2.075195,-4.516602,-12.268066,0,0
14015,2024 10 17,09:01:56.778,-0.548777,0.408622,0.549648,0.479331,-0.92288,0.162603,-0.066897,-3.967285,-5.981445,-12.207031,0,0
14016,2024 10 17,09:01:56.786,-0.548777,0.408622,0.549648,0.479331,-0.92288,0.162603,-0.066897,-3.967285,-5.981445,-12.207031,0,0
14017,2024 10 17,09:01:56.795,-0.549307,0.409226,0.548789,0.479194,-0.923856,0.153325,-0.069338,-5.187988,-3.845215,-12.207031,0,0
14018,2024 10 17,09:01:56.803,-0.549633,0.410043,0.547921,0.479114,-0.928251,0.135746,-0.073733,-8.972168,-2.13623,-11.962891,0,0
14019,2024 10 17,09:01:56.811,-0.549832,0.410997,0.547104,0.479003,-0.968291,0.148442,-0.068361,-8.850098,-0.12207,-12.084961,0,0
14020,2024 10 17,09:01:56.820,-0.550096,0.411985,0.546231,0.478847,-0.950224,0.133305,-0.058596,-9.70459,-2.01416,-13.183594,0,0
14021,2024 10 17,09:01:56.828,-0.550504,0.412863,0.545188,0.47881,-0.951201,0.106449,-0.04004,-8.666992,-4.516602,-13.183594,0,0
14022,2024 10 17,09:01:56.836,-0.551111,0.413537,0.544091,0.478779,-0.956084,0.119633,-0.064943,-6.469727,-7.629395,-13.427734,0,0
14023,2024 10 17,09:01:56.845,-0.551111,0.413537,0.544091,0.478779,-0.956084,0.119633,-0.064943,-6.469727,-7.629395,-13.427734,0,0
14024,2024 10 17,09:01:56.853,-0.551949,0.414017,0.542943,0.478701,-0.92581,0.089358,-0.063967,-4.394531,-9.765625,-13.61084,0,0
14025,2024 10 17,09:01:56.861,-0.552896,0.414297,0.541921,0.478524,-0.915555,0.104495,-0.090823,-1.403809,-10.009766,-12.756348,0,0
14026,2024 10 17,09:01:56.870,-0.553898,0.414445,0.540988,0.478293,-0.941923,0.119144,-0.062502,0.671387,-10.070801,-12.634277,0,0
14027,2024 10 17,09:01:56.878,-0.554968,0.414557,0.540117,0.477939,-0.962432,0.117679,-0.053224,2.01416,-10.192871,-13.427734,0,0
14028,2024 10 17,09:01:56.886,-0.556206,0.414632,0.539199,0.477472,-0.970244,0.141606,-0.084475,4.272461,-10.498047,-15.74707,0,0
14029,2024 10 17,09:01:56.895,-0.556206,0.414632,0.539199,0.477472,-0.970244,0.141606,-0.084475,4.272461,-10.498047,-15.74707,0,0
14030,2024 10 17,09:01:56.903,-0.557575,0.414816,0.538166,0.476881,-0.984405,0.140629,-0.095218,3.356934,-10.742188,-18.798828,0,0
14031,2024 10 17,09:01:56.911,-0.559053,0.415249,0.53714,0.475929,-0.978545,0.124027,-0.100589,4.394531,-8.239746,-23.31543,0,0
14032,2024 10 17,09:01:56.920,-0.560765,0.415842,0.536242,0.474408,-1.001984,0.123539,-0.091311,9.82666,-4.882813,-28.625488,0,0
14033,2024 10 17,09:01:56.928,-0.562837,0.41654,0.535324,0.472375,-1.023957,0.132817,-0.137211,12.084961,-5.92041,-34.912109,0,0
14034,2024 10 17,09:01:56.936,-0.565304,0.417535,0.534317,0.469682,-1.052278,0.147465,-0.092776,17.63916,-0.976563,-44.677734,0,0
14035,2024 10 17,09:01:56.945,-0.565304,0.417535,0.534317,0.469682,-1.052278,0.147465,-0.092776,17.63916,-0.976563,-44.677734,0,0
14036,2024 10 17,09:01:56.953,-0.568041,0.419093,0.533549,0.46585,-1.1348,0.15186,-0.093265,23.31543,5.981445,-56.274414,0,0
14037,2024 10 17,09:01:56.961,-0.571433,0.420955,0.532411,0.461302,-1.216346,0.187506,-0.119633,27.160645,2.990723,-68.969727,0,0
14038,2024 10 17,09:01:56.970,-0.575685,0.423189,0.530711,0.455898,-1.222205,0.196295,-0.076662,29.907227,0.12207,-84.655762,0,0
14039,2024 10 17,09:01:56.978,-0.580495,0.425999,0.528362,0.449871,-1.278848,0.213385,-0.06885,28.198242,-1.403809,-97.717285,0,0
14040,2024 10 17,09:01:56.986,-0.585742,0.429332,0.524875,0.443944,-1.257851,0.219245,-0.018067,17.883301,-12.390137,-106.689453,0,0
14041,2024 10 17,09:01:56.995,-0.585742,0.429332,0.524875,0.443944,-1.257851,0.219245,-0.018067,17.883301,-12.390137,-106.689453,0,0
14042,2024 10 17,09:01:57.003,-0.591135,0.433279,0.520149,0.43849,-1.35551,0.243171,-0.038087,6.591797,-18.188477,-115.17334,0,0
14043,2024 10 17,09:01:57.011,-0.596892,0.438206,0.514693,0.432188,-1.498093,0.256844,-0.068361,5.493164,-15.014648,-135.620117,0,0
14044,2024 10 17,09:01:57.020,-0.603738,0.443862,0.507762,0.425046,-1.555712,0.312998,0.023438,0.549316,-28.381348,-158.38623,0,0
14045,2024 10 17,09:01:57.028,-0.611332,0.45057,0.499065,0.417364,-1.577685,0.328623,0.029786,-7.324219,-35.095215,-181.945801,0,0
14046,2024 10 17,09:01:57.036,-0.619679,0.458443,0.488379,0.40904,-1.696829,0.391125,0.097659,-17.63916,-45.410156,-208.496094,0,0
14047,2024 10 17,09:01:57.045,-0.619679,0.458443,0.488379,0.40904,-1.696829,0.391125,0.097659,-17.63916,-45.410156,-208.496094,0,0
14048,2024 10 17,09:01:57.053,-0.628706,0.467814,0.475572,0.399638,-1.844783,0.517594,-0.016114,-29.968262,-51.147461,-241.271973,0,0
14049,2024 10 17,09:01:57.061,-0.638699,0.478833,0.460623,0.388085,-2.118717,0.612323,-0.169927,-30.151367,-48.522949,-287.04834,0,0
14050,2024 10 17,09:01:57.070,-0.650673,0.491001,0.443071,0.373136,-2.458083,0.740745,-0.005371,-22.338867,-63.293457,-344.360352,0,0
14051,2024 10 17,09:01:57.078,-0.66475,0.504237,0.421199,0.35559,-2.649495,0.774926,0.003906,-24.291992,-83.80127,-405.090332,0,0
14052,2024 10 17,09:01:57.086,-0.680012,0.518922,0.396029,0.333864,-3.245216,0.786645,-0.276376,-19.53125,-82.519531,-471.008301,0,0
14053,2024 10 17,09:01:57.095,-0.680012,0.518922,0.396029,0.333864,-3.245216,0.786645,-0.276376,-19.53125,-82.519531,-471.008301,0,0
14054,2024 10 17,09:01:57.103,-0.696109,0.534573,0.365336,0.310151,-3.135838,0.474136,0.053224,-47.668457,-124.694824,-521.240234,0,0
14055,2024 10 17,09:01:57.111,-0.710569,0.551449,0.331049,0.28531,-2.890225,-0.172369,-0.340831,-63.964844,-123.840332,-550.720215,0,1
14056,2024 10 17,09:01:57.120,-0.724055,0.566817,0.295662,0.258932,-2.445875,-0.400403,0.0918,-49.560547,-117.431641,-544.921875,0,0
14057,2024 10 17,09:01:57.128,-0.735432,0.580239,0.263395,0.230402,-2.972747,-0.26661,-0.108402,-32.531738,-75.561523,-533.325195,0,0
14058,2024 10 17,09:01:57.136,-0.746641,0.590402,0.231338,0.201084,-2.396069,0.534196,0.684103,-2.075195,-88.684082,-528.991699,0,0
14059,2024 10 17,09:01:57.145,-0.746641,0.590402,0.231338,0.201084,-2.396069,0.534196,0.684103,-2.075195,-88.684082,-528.991699,0,0
14060,2024 10 17,09:01:57.153,-0.755837,0.5989,0.201652,0.171366,-1.979553,0.976104,0.604999,5.493164,-51.147461,-506.103516,0,0
14061,2024 10 17,09:01:57.161,-0.763848,0.605289,0.175483,0.139168,-1.475143,1.194861,0.881863,31.188965,1.037598,-499.145508,0,0
14062,2024 10 17,09:01:57.170,-0.770658,0.6095,0.155418,0.102186,-1.782769,0.933622,0.853053,62.438965,94.421387,-490.05127,0,0
14063,2024 10 17,09:01:57.178,-0.778824,0.608652,0.139128,0.060163,-1.013214,0.608905,0.399426,140.991211,133.605957,-506.835938,0,0
14064,2024 10 17,09:01:57.186,-0.78917,0.600065,0.127155,0.031063,2.089908,1.729057,2.024476,203.552246,42.236328,-249.938965,0,0
14065,2024 10 17,09:01:57.195,-0.78917,0.600065,0.127155,0.031063,2.089908,1.729057,2.024476,203.552246,42.236328,-249.938965,0,0
14066,2024 10 17,09:01:57.203,-0.792004,0.595394,0.131853,0.029154,-0.306162,2.012757,-0.422376,12.573242,77.392578,101.867676,0,0
14067,2024 10 17,09:01:57.211,-0.792878,0.589424,0.149301,0.040408,-1.482955,2.227607,0.113773,45.959473,48.522949,256.103516,0,0
14068,2024 10 17,09:01:57.220,-0.789849,0.587149,0.164308,0.066319,-1.004425,1.185583,0.518082,-47.546387,-50.476074,348.571777,0,0
14069,2024 10 17,09:01:57.228,-0.785501,0.584282,0.18042,0.095141,-0.847194,0.792993,0.517594,-52.978516,-43.945313,377.441406,0,0
14070,2024 10 17,09:01:57.236,-0.780274,0.580926,0.195643,0.124186,-0.281747,0.614765,0.79397,-40.95459,-49.743652,366.088867,0,0
14071,2024 10 17,09:01:57.245,-0.774381,0.577198,0.212622,0.148217,-0.071291,0.334971,0.627949,-25.024414,15.50293,333.129883,0,0
14072,2024 10 17,09:01:57.253,-0.774381,0.577198,0.212622,0.148217,-0.071291,0.334971,0.627949,-25.024414,15.50293,333.129883,0,0
14073,2024 10 17,09:01:57.261,-0.768575,0.572555,0.232158,0.166056,-0.137211,0.229011,0.814478,1.281738,73.669434,300.65918,0,0
14074,2024 10 17,09:01:57.270,-0.762635,0.566948,0.254476,0.179442,-0.32374,0.355968,0.593768,25.817871,121.459961,286.804199,0,0
14075,2024 10 17,09:01:57.278,-0.756429,0.560203,0.278566,0.19076,-0.579608,0.5215,0.482437,40.222168,144.042969,285.27832,0,0
14076,2024 10 17,09:01:57.286,-0.749645,0.552499,0.303464,0.20171,-0.843287,0.609882,0.317881,43.762207,147.033691,291.931152,0,0
14077,2024 10 17,09:01:57.295,-0.742283,0.543748,0.327981,0.213971,-0.940458,0.655293,0.242683,42.175293,132.507324,306.70166,0,0
14078,2024 10 17,09:01:57.303,-0.742283,0.543748,0.327981,0.213971,-0.940458,0.655293,0.242683,42.175293,132.507324,306.70166,0,0
14079,2024 10 17,09:01:57.311,-0.734046,0.534,0.35211,0.22812,-0.963897,0.651387,0.130863,35.583496,118.896484,326.782227,0,0
14080,2024 10 17,09:01:57.320,-0.724701,0.523389,0.375981,0.243947,-0.946318,0.584002,0.127445,29.174805,112.060547,345.092773,0,0
14081,2024 10 17,09:01:57.328,-0.713897,0.512188,0.400332,0.260284,-1.036164,0.556169,0.069338,24.414063,120.666504,357.48291,0,0
14082,2024 10 17,09:01:57.336,-0.701714,0.500582,0.424902,0.276539,-1.150426,0.555193,0.064943,20.935059,127.441406,362.121582,0,0
14083,2024 10 17,09:01:57.345,-0.688274,0.488788,0.449338,0.292336,-1.281289,0.538102,0.019044,16.601563,134.460449,361.38916,0,0
14084,2024 10 17,09:01:57.353,-0.688274,0.488788,0.449338,0.292336,-1.281289,0.538102,0.019044,16.601563,134.460449,361.38916,0,0
14085,2024 10 17,09:01:57.361,-0.673713,0.476909,0.473312,0.307642,-1.422895,0.539079,0.006348,12.207031,138.916016,358.886719,0,0
14086,2024 10 17,09:01:57.370,-0.658058,0.464987,0.496715,0.322523,-1.542039,0.549333,-0.008789,6.286621,142.211914,357.116699,0,0
14087,2024 10 17,09:01:57.378,-0.641271,0.453048,0.519354,0.337328,-1.626026,0.551775,-0.050295,-2.624512,143.310547,357.421875,0,0
14088,2024 10 17,09:01:57.386,-0.62313,0.441128,0.541336,0.352236,-1.722709,0.55031,-0.098148,-13.671875,147.399902,361.328125,0,0
14089,2024 10 17,09:01:57.395,-0.603377,0.429131,0.56284,0.367416,-1.896054,0.560564,-0.097659,-24.291992,152.709961,369.262695,0,0
14090,2024 10 17,09:01:57.403,-0.603377,0.429131,0.56284,0.367416,-1.896054,0.560564,-0.097659,-24.291992,152.709961,369.262695,0,0
14091,2024 10 17,09:01:57.411,-0.582019,0.416718,0.583763,0.383171,-2.116764,0.548845,-0.082034,-35.644531,153.259277,381.164551,0,0
14092,2024 10 17,09:01:57.420,-0.55931,0.403581,0.603768,0.3997,-2.358959,0.489273,-0.068361,-46.203613,148.31543,393.432617,0,0
14093,2024 10 17,09:01:57.428,-0.535699,0.389512,0.622443,0.416979,-2.552812,0.272469,-0.091311,-54.80957,137.084961,403.015137,0,0
14094,2024 10 17,09:01:57.436,-0.51167,0.374542,0.639646,0.43447,-2.810633,-0.067385,0.01709,-58.71582,126.342773,407.287598,0,0
14095,2024 10 17,09:01:57.445,-0.487964,0.358818,0.655025,0.451755,-2.899014,-0.586932,-0.034181,-59.997559,108.825684,403.259277,0,0
14096,2024 10 17,09:01:57.453,-0.487964,0.358818,0.655025,0.451755,-2.899014,-0.586932,-0.034181,-59.997559,108.825684,403.259277,0,0
14097,2024 10 17,09:01:57.461,-0.4648,0.342737,0.669003,0.467897,-2.952727,-1.2266,-0.036134,-52.246094,104.431152,393.798828,0,0
14098,2024 10 17,09:01:57.470,-0.442387,0.326731,0.681827,0.48234,-3.014252,-1.838435,-0.012696,-43.457031,97.53418,377.868652,0,0
14099,2024 10 17,09:01:57.478,-0.421726,0.31151,0.692997,0.494837,-2.926359,-2.351634,-0.031251,-36.132813,87.463379,344.726563,0,0
14100,2024 10 17,09:01:57.486,-0.403659,0.298613,0.702072,0.50496,-2.538652,-2.7828,-0.141118,-32.714844,78.857422,289.978027,0,0
14101,2024 10 17,09:01:57.495,-0.388109,0.289711,0.709335,0.512135,-1.968322,-3.362407,-0.345225,-28.503418,91.552734,222.65625,0,0
14102,2024 10 17,09:01:57.503,-0.388109,0.289711,0.709335,0.512135,-1.968322,-3.362407,-0.345225,-28.503418,91.552734,222.65625,0,0
14103,2024 10 17,09:01:57.511,-0.373368,0.286127,0.7164,0.515266,-1.702689,-4.153447,-0.646504,-15.686035,135.681152,159.667969,0,0
14104,2024 10 17,09:01:57.520,-0.358667,0.287122,0.724183,0.514274,-2.368236,-4.545549,-1.20072,6.225586,176.574707,113.525391,0,0
14105,2024 10 17,09:01:57.528,-0.347774,0.289612,0.731096,0.510565,-3.247658,-4.484512,-1.55913,28.442383,137.329102,66.345215,0,0
14106,2024 10 17,09:01:57.536,-0.347469,0.289953,0.733781,0.506714,-3.050386,-4.269173,-1.475143,50.537109,3.051758,5.737305,0,0
14107,2024 10 17,09:01:57.545,-0.357826,0.288102,0.732601,0.502248,-1.983947,-3.671987,-1.106967,77.697754,-96.191406,-53.649902,0,0
14108,2024 10 17,09:01:57.553,-0.357826,0.288102,0.732601,0.502248,-1.983947,-3.671987,-1.106967,77.697754,-96.191406,-53.649902,0,0
14109,2024 10 17,09:01:57.561,-0.369952,0.2897,0.738383,0.483735,-11.398787,-0.443861,-3.628529,347.290039,102.416992,-166.19873,0,0
14110,2024 10 17,09:01:57.570,-0.408558,0.292334,0.726743,0.46847,0.50148,0.601581,0.10596,-94.665527,-618.041992,-234.069824,0,0
14111,2024 10 17,09:01:57.578,-0.447658,0.288102,0.705344,0.468071,3.605579,2.727134,1.438032,6.591797,-226.44043,-269.287109,0,0
14112,2024 10 17,09:01:57.586,-0.452121,0.312221,0.706069,0.446734,-2.268136,2.418531,-0.375011,135.986328,120.727539,-368.225098,1,0
14113,2024 10 17,09:01:57.595,-0.468723,0.335471,0.685026,0.445531,-1.469283,-0.579607,0.717307,-230.529785,-137.512207,-346.069336,0,0
14114,2024 10 17,09:01:57.603,-0.468723,0.335471,0.685026,0.445531,-1.469283,-0.579608,0.717307,-230.529785,-137.512207,-346.069336,0,0
14115,2024 10 17,09:01:57.611,-0.477622,0.358253,0.667928,0.444302,-2.973724,-1.02884,-0.980499,-120.178223,-31.066895,-266.540527,0,0
14116,2024 10 17,09:01:57.620,-0.491491,0.367125,0.653432,0.443489,-1.808649,-0.416517,-0.083987,-57.067871,-162.109375,-175.354004,0,0
14117,2024 10 17,09:01:57.628,-0.505792,0.369582,0.640556,0.444152,-1.354534,0.284677,0.730491,-17.76123,-164.611816,-130.859375,0,0
14118,2024 10 17,09:01:57.636,-0.515418,0.372429,0.628245,0.448274,-1.164586,-0.313486,-0.208502,-83.862305,-143.981934,-85.083008,0,0
14119,2024 10 17,09:01:57.645,-0.523565,0.373186,0.617455,0.453167,-0.849147,0.033692,-0.035646,-51.452637,-133.850098,-58.71582,0,0
14120,2024 10 17,09:01:57.653,-0.5309,0.372806,0.608552,0.456974,-0.912625,0.130863,-0.041505,-32.592773,-122.314453,-47.302246,0,0
14121,2024 10 17,09:01:57.661,-0.5309,0.372806,0.608552,0.456974,-0.912625,0.130863,-0.041505,-32.592773,-122.314453,-47.302246,0,0
14122,2024 10 17,09:01:57.670,-0.53695,0.372344,0.600202,0.461306,-0.921415,0.090335,0.1377,-52.368164,-108.032227,-33.935547,0,0
14123,2024 10 17,09:01:57.678,-0.541494,0.372237,0.593133,0.465206,-0.692404,-0.008301,-0.394055,-38.574219,-87.768555,-27.954102,0,0
14124,2024 10 17,09:01:57.686,-0.54562,0.371683,0.588143,0.46716,-0.819849,0.166509,-0.111332,-14.160156,-61.401367,-24.780273,0,0
14125,2024 10 17,09:01:57.695,-0.548336,0.371518,0.584424,0.468776,-0.883328,0.137211,-0.097659,-19.714355,-46.691895,-16.784668,0,0
14126,2024 10 17,09:01:57.703,-0.550351,0.371373,0.581484,0.470182,-0.865749,0.126957,-0.239753,-11.352539,-34.301758,-13.061523,0,0
14127,2024 10 17,09:01:57.711,-0.550351,0.371373,0.581484,0.470182,-0.865749,0.126957,-0.239753,-11.352539,-34.301758,-13.061523,0,0
14128,2024 10 17,09:01:57.720,-0.551941,0.371173,0.579732,0.470641,-1.023469,0.231452,0.062014,-5.432129,-21.362305,-12.207031,0,0
14129,2024 10 17,09:01:57.728,-0.55344,0.371227,0.578021,0.470943,-0.983917,0.188971,-0.036134,-4.02832,-22.949219,-15.50293,0,0
14130,2024 10 17,09:01:57.736,-0.555288,0.371195,0.576452,0.470715,-0.937529,0.182623,0.00293,1.525879,-20.874023,-18.676758,0,0
14131,2024 10 17,09:01:57.745,-0.557251,0.371208,0.574963,0.470206,-0.900418,0.192877,-0.090335,4.760742,-20.446777,-20.324707,0,0
14132,2024 10 17,09:01:57.753,-0.558988,0.371312,0.573734,0.469562,-0.918973,0.219733,-0.092776,4.02832,-14.343262,-19.65332,0,0
14133,2024 10 17,09:01:57.761,-0.558988,0.371312,0.573734,0.469562,-0.918973,0.219733,-0.092776,4.02832,-14.343262,-19.65332,0,0
14134,2024 10 17,09:01:57.770,-0.560326,0.37175,0.572563,0.469051,-0.897488,0.167486,-0.106937,-1.281738,-10.437012,-18.432617,0,0
14135,2024 10 17,09:01:57.778,-0.561381,0.372378,0.571581,0.468488,-0.905789,0.204108,-0.115726,-2.197266,-6.408691,-17.700195,0,0
14136,2024 10 17,09:01:57.786,-0.562043,0.373302,0.570567,0.468196,-0.909207,0.177252,-0.096683,-7.263184,-3.173828,-15.74707,0,0
14137,2024 10 17,09:01:57.795,-0.562431,0.374342,0.569716,0.467935,-0.929716,0.152837,-0.073733,-8.361816,-0.915527,-14.160156,0,0
14138,2024 10 17,09:01:57.803,-0.562807,0.375299,0.569005,0.467581,-0.956572,0.159673,-0.039064,-5.310059,-0.366211,-13.73291,0,0
14139,2024 10 17,09:01:57.811,-0.562807,0.375299,0.569005,0.467581,-0.956572,0.159673,-0.039064,-5.310059,-0.366211,-13.73291,0,0
14140,2024 10 17,09:01:57.820,-0.563323,0.376084,0.568341,0.467136,-0.949736,0.157231,-0.039064,-3.234863,-2.01416,-13.85498,0,0
14141,2024 10 17,09:01:57.828,-0.563933,0.376733,0.567704,0.466652,-0.960967,0.172857,-0.044923,-1.342773,-2.868652,-13.671875,0,0
14142,2024 10 17,09:01:57.836,-0.564606,0.377329,0.566952,0.466271,-0.924345,0.173833,-0.072756,-3.234863,-4.882813,-13.671875,0,0
14143,2024 10 17,09:01:57.845,-0.565191,0.378063,0.566096,0.466007,-0.918485,0.18067,-0.092288,-5.249023,-3.173828,-13.85498,0,0
14144,2024 10 17,09:01:57.853,-0.565537,0.379038,0.565322,0.465734,-0.915555,0.17188,-0.093753,-7.995605,-0.061035,-13.85498,0,0
14145,2024 10 17,09:01:57.861,-0.565537,0.379038,0.565322,0.465734,-0.915555,0.17188,-0.093753,-7.995605,-0.061035,-13.85498,0,0
14146,2024 10 17,09:01:57.870,-0.565711,0.38024,0.564567,0.46546,-0.931181,0.162603,-0.08594,-10.009766,2.319336,-14.282227,0,0
14147,2024 10 17,09:01:57.878,-0.565807,0.381555,0.563843,0.465144,-0.953642,0.15772,-0.055666,-9.70459,3.601074,-14.831543,0,0
14148,2024 10 17,09:01:57.886,-0.565997,0.382878,0.563136,0.464683,-0.946318,0.140629,-0.055666,-8.911133,2.563477,-16.296387,0,0
14149,2024 10 17,09:01:57.895,-0.56631,0.384117,0.562383,0.46419,-0.954619,0.146001,-0.061525,-7.019043,2.01416,-16.662598,0,0
14150,2024 10 17,09:01:57.903,-0.566766,0.385258,0.561575,0.463665,-0.957549,0.156255,-0.064943,-5.615234,-0.183105,-17.456055,0,0
14151,2024 10 17,09:01:57.911,-0.566766,0.385258,0.561575,0.463665,-0.957549,0.156255,-0.064943,-5.615234,-0.183105,-17.456055,0,0
14152,2024 10 17,09:01:57.920,-0.567384,0.386292,0.560654,0.463163,-0.947783,0.121097,-0.045412,-5.187988,-2.685547,-17.51709,0,0
14153,2024 10 17,09:01:57.928,-0.568152,0.387107,0.559709,0.462686,-0.926786,0.123539,-0.089846,-3.723145,-5.187988,-16.540527,0,0
14154,2024 10 17,09:01:57.936,-0.569006,0.387754,0.558815,0.462174,-0.93704,0.117679,-0.061037,-1.281738,-5.432129,-15.869141,0,0
14155,2024 10 17,09:01:57.945,-0.569893,0.388275,0.558042,0.461578,-0.947783,0.130375,-0.093265,0.793457,-5.249023,-15.74707,0,0
14156,2024 10 17,09:01:57.953,-0.570903,0.388707,0.557238,0.460936,-0.94583,0.130375,-0.070315,1.647949,-6.713867,-16.540527,0,0
14157,2024 10 17,09:01:57.961,-0.570903,0.388707,0.557238,0.460936,-0.94583,0.130375,-0.070315,1.647949,-6.713867,-16.540527,0,0
14158,2024 10 17,09:01:57.970,-0.571994,0.389175,0.556534,0.460039,-0.971709,0.154302,-0.075686,4.02832,-4.577637,-18.798828,0,0
14159,2024 10 17,09:01:57.978,-0.573172,0.389794,0.55573,0.45902,-0.993683,0.15186,-0.080569,3.601074,-4.760742,-21.911621,0,0
14160,2024 10 17,09:01:57.986,-0.574523,0.390598,0.554887,0.457664,-0.984405,0.133305,-0.080569,4.882813,-3.601074,-26.306152,0,0
14161,2024 10 17,09:01:57.995,-0.575983,0.39157,0.554102,0.455948,-0.996124,0.149907,-0.119633,7.507324,-0.549316,-30.517578,0,0
14162,2024 10 17,09:01:58.003,-0.577675,0.39278,0.553391,0.453623,-1.030305,0.17774,-0.073733,11.657715,2.13623,-37.29248,0,0
14163,2024 10 17,09:01:58.011,-0.577675,0.39278,0.553391,0.453623,-1.030305,0.17774,-0.073733,11.657715,2.13623,-37.29248,0,0
14164,2024 10 17,09:01:58.020,-0.579626,0.394333,0.552642,0.450691,-1.063997,0.170415,-0.092288,13.244629,4.211426,-45.410156,0,0
14165,2024 10 17,09:01:58.028,-0.581948,0.396281,0.551722,0.447102,-1.098178,0.20069,-0.069338,15.930176,6.04248,-55.419922,0,0
14166,2024 10 17,09:01:58.036,-0.584481,0.398849,0.550498,0.443005,-1.158727,0.184088,-0.080569,12.695313,7.568359,-65.307617,0,0
14167,2024 10 17,09:01:58.045,-0.587387,0.401896,0.548705,0.43861,-1.254433,0.241218,-0.066408,10.314941,4.02832,-74.768066,0,0
14168,2024 10 17,09:01:58.053,-0.59069,0.405702,0.54608,0.433921,-1.313028,0.239753,-0.084475,5.615234,2.685547,-89.84375,0,0
14169,2024 10 17,09:01:58.061,-0.594552,0.410406,0.542835,0.428258,-1.385296,0.254891,-0.063967,3.601074,2.929688,-107.849121,0,0
14170,2024 10 17,09:01:58.070,-0.594552,0.410406,0.542835,0.428258,-1.385296,0.254891,-0.063967,3.601074,2.929688,-107.849121,0,0
14171,2024 10 17,09:01:58.078,-0.599132,0.41591,0.538518,0.42197,-1.451705,0.26661,-0.01709,0.793457,-3.112793,-126.281738,0,0
14172,2024 10 17,09:01:58.086,-0.604647,0.422203,0.532981,0.414823,-1.537156,0.304209,-0.00586,0.671387,-9.521484,-148.803711,0,0
14173,2024 10 17,09:01:58.095,-0.611411,0.429266,0.525942,0.406561,-1.596728,0.337413,0.045412,0.549316,-20.324707,-176.025391,0,0
14174,2024 10 17,09:01:58.103,-0.619466,0.437236,0.516991,0.397248,-1.696341,0.41261,0.058107,-2.563477,-31.311035,-205.383301,0,0
14175,2024 10 17,09:01:58.111,-0.628531,0.446519,0.506135,0.386518,-1.866268,0.525407,-0.013184,-9.277344,-37.353516,-239.257813,0,0
14176,2024 10 17,09:01:58.120,-0.628531,0.446519,0.506135,0.386518,-1.866268,0.525407,-0.013184,-9.277344,-37.353516,-239.257813,0,0
14177,2024 10 17,09:01:58.128,-0.638696,0.457581,0.493038,0.373633,-2.123112,0.667989,-0.126469,-10.375977,-38.94043,-286.254883,0,0
14178,2024 10 17,09:01:58.136,-0.650425,0.470391,0.476953,0.358045,-2.409253,0.798364,-0.072756,-16.662598,-52.734375,-341.61377,0,0
14179,2024 10 17,09:01:58.145,-0.663672,0.485176,0.457021,0.339522,-2.857021,0.87405,-0.10889,-20.935059,-62.561035,-405.456543,0,0
14180,2024 10 17,09:01:58.153,-0.678239,0.501878,0.432861,0.317398,-3.444441,0.841334,-0.107913,-26.306152,-79.406738,-474.304199,0,0
14181,2024 10 17,09:01:58.161,-0.693582,0.519909,0.403036,0.293599,-3.338969,0.462416,0.033204,-52.307129,-117.675781,-523.376465,0,0
14182,2024 10 17,09:01:58.170,-0.693582,0.519909,0.403036,0.293599,-3.338969,0.462416,0.033204,-52.307129,-117.675781,-523.376465,0,0
14183,2024 10 17,09:01:58.178,-0.707962,0.538591,0.369579,0.268552,-3.129978,0.002441,0.026856,-61.279297,-122.802734,-549.865723,0,1
14184,2024 10 17,09:01:58.186,-0.720963,0.556013,0.335208,0.242276,-3.049409,-0.099124,0.065432,-45.898438,-118.95752,-546.569824,0,0
14185,2024 10 17,09:01:58.195,-0.7331,0.570337,0.301178,0.215805,-3.222266,0.224616,0.06299,-33.813477,-124.511719,-532.714844,0,0
14186,2024 10 17,09:01:58.203,-0.744772,0.581879,0.265511,0.190357,-2.751549,0.813013,0.739769,-20.385742,-157.958984,-528.198242,0,0
14187,2024 10 17,09:01:58.211,-0.755262,0.591112,0.23028,0.164736,-2.162664,1.382366,0.829615,-0.061035,-137.939453,-515.74707,0,0
14188,2024 10 17,09:01:58.220,-0.755262,0.591112,0.23028,0.164736,-2.162664,1.382366,0.829615,-0.061035,-137.939453,-515.74707,0,0
14189,2024 10 17,09:01:58.228,-0.764435,0.598249,0.197546,0.136794,-1.471725,1.818903,1.144078,20.446777,-100.158691,-513.305664,0,0
14190,2024 10 17,09:01:58.236,-0.771737,0.604063,0.168866,0.10495,-1.173376,1.305216,1.30668,32.775879,-21.54541,-510.803223,0,0
14191,2024 10 17,09:01:58.245,-0.779038,0.606464,0.14496,0.065487,-0.956084,0.472671,0.672384,104.980469,68.481445,-548.583984,0,0
14192,2024 10 17,09:01:58.253,-0.788661,0.60061,0.128042,0.029782,2.225654,0.22364,1.627491,187.988281,62.438965,-361.877441,0,0
14193,2024 10 17,09:01:58.261,-0.796053,0.591087,0.128837,0.017786,0.837916,2.527909,0.5674,119.934082,113.098145,8.544922,0,0
14194,2024 10 17,09:01:58.270,-0.796053,0.591087,0.128837,0.017786,0.837916,2.527909,0.5674,119.934082,113.098145,8.544922,0,0
14195,2024 10 17,09:01:58.278,-0.799008,0.581975,0.149939,0.020241,-1.297403,2.139225,0.024903,123.352051,153.869629,216.430664,0,0
14196,2024 10 17,09:01:58.286,-0.799613,0.574354,0.170952,0.038893,-1.195837,1.414594,0.265145,16.357422,43.029785,341.186523,0,0
14197,2024 10 17,09:01:58.295,-0.798344,0.567176,0.191821,0.064515,-1.195349,1.096225,0.480483,9.765625,9.82666,388.366699,0,0
14198,2024 10 17,09:01:58.303,-0.795535,0.560567,0.209927,0.093909,-0.620136,0.61623,0.598651,-4.943848,-32.897949,394.226074,0,0
14199,2024 10 17,09:01:58.311,-0.791854,0.553477,0.228441,0.120183,-0.204108,0.420423,0.422864,-0.427246,13.366699,368.225098,0,0
14200,2024 10 17,09:01:58.320,-0.791854,0.553477,0.228441,0.120183,-0.204108,0.420423,0.422864,-0.427246,13.366699,368.225098,0,0
14201,2024 10 17,09:01:58.328,-0.787371,0.546233,0.248868,0.140503,-0.176275,0.386242,0.582537,17.822266,71.594238,327.087402,0,0
14202,2024 10 17,09:01:58.336,-0.781971,0.539021,0.271552,0.15568,-0.343272,0.456069,0.524918,28.869629,122.619629,301.147461,0,0
14203,2024 10 17,09:01:58.345,-0.7755,0.531824,0.295566,0.168532,-0.54152,0.639668,0.347667,27.893066,145.141602,293.029785,0,0
14204,2024 10 17,09:01:58.353,-0.767817,0.524616,0.320084,0.181055,-0.781274,0.769066,0.234382,19.775391,152.832031,297.119141,0,0
14205,2024 10 17,09:01:58.361,-0.758803,0.517384,0.344276,0.19495,-0.928251,0.781762,0.151372,3.967285,142.211914,311.035156,0,0
14206,2024 10 17,09:01:58.370,-0.758803,0.517384,0.344276,0.19495,-0.928251,0.781762,0.151372,3.967285,142.211914,311.035156,0,0
14207,2024 10 17,09:01:58.378,-0.748384,0.509978,0.36787,0.210986,-0.979034,0.730979,0.101077,-12.756348,130.981445,330.688477,0,0
14208,2024 10 17,09:01:58.386,-0.736387,0.50225,0.391302,0.228826,-1.020539,0.63625,0.097659,-25.512695,126.281738,350.158691,0,0
14209,2024 10 17,09:01:58.395,-0.722826,0.494059,0.414804,0.247722,-1.095248,0.571306,0.092288,-34.790039,128.723145,364.440918,0,0
14210,2024 10 17,09:01:58.403,-0.707867,0.485453,0.438296,0.266754,-1.217322,0.503433,0.073733,-38.024902,133.300781,369.262695,0,0
14211,2024 10 17,09:01:58.411,-0.691811,0.476412,0.461647,0.28515,-1.342326,0.458022,0.059084,-36.560059,141.479492,367.919922,0,0
14212,2024 10 17,09:01:58.420,-0.691811,0.476412,0.461647,0.28515,-1.342326,0.458022,0.059084,-36.560059,141.479492,367.919922,0,0
14213,2024 10 17,09:01:58.428,-0.674738,0.466839,0.485001,0.302597,-1.516648,0.470717,0.067873,-32.226563,148.803711,367.30957,0,0
14214,2024 10 17,09:01:58.436,-0.656888,0.456448,0.507824,0.319793,-1.709525,0.482437,0.023438,-31.494141,145.385742,370.788574,0,0
14215,2024 10 17,09:01:58.445,-0.638545,0.44498,0.529567,0.33736,-1.824274,0.486831,-0.059572,-33.14209,132.263184,376.647949,0,0
14216,2024 10 17,09:01:58.453,-0.619691,0.432425,0.550195,0.355356,-1.885311,0.473647,-0.076174,-34.301758,124.023438,383.300781,0,0
14217,2024 10 17,09:01:58.461,-0.599875,0.418997,0.570185,0.37347,-2.019593,0.459487,-0.070803,-36.193848,122.375488,391.418457,0,0
14218,2024 10 17,09:01:58.470,-0.579102,0.404631,0.589462,0.391725,-2.20954,0.41847,-0.026856,-38.452148,118.774414,400.085449,0,0
14219,2024 10 17,09:01:58.478,-0.579102,0.404631,0.589462,0.391725,-2.20954,0.41847,-0.026856,-38.452148,118.774414,400.085449,0,0
14220,2024 10 17,09:01:58.486,-0.557437,0.38928,0.607943,0.410037,-2.446364,0.330576,0.024415,-39.672852,114.318848,408.26416,0,0
14221,2024 10 17,09:01:58.495,-0.535251,0.372811,0.625336,0.428339,-2.664144,0.136723,0.118168,-39.428711,104.492188,414.611816,0,0
14222,2024 10 17,09:01:58.503,-0.512963,0.35524,0.641446,0.446341,-2.810633,-0.284188,0.161626,-36.560059,92.773438,416.992188,0,0
14223,2024 10 17,09:01:58.511,-0.491024,0.336873,0.656302,0.463336,-2.852626,-0.864773,0.22071,-28.259277,84.289551,411.621094,0,0
14224,2024 10 17,09:01:58.520,-0.469534,0.318455,0.670172,0.478533,-2.823817,-1.358928,0.181158,-18.859863,83.80127,397.338867,0,0
14225,2024 10 17,09:01:58.528,-0.469534,0.318455,0.670172,0.478533,-2.823817,-1.358928,0.181158,-18.859863,83.80127,397.338867,0,0
14226,2024 10 17,09:01:58.536,-0.448752,0.300964,0.682876,0.491653,-2.80868,-1.741264,0.185553,-13.366699,85.693359,370.849609,0,0
14227,2024 10 17,09:01:58.545,-0.428895,0.285737,0.693999,0.502761,-2.793542,-2.138249,0.111332,-17.089844,90.759277,331.054688,0,0
14228,2024 10 17,09:01:58.553,-0.410534,0.273903,0.703014,0.512064,-2.425855,-2.642659,-0.041017,-27.770996,95.64209,278.686523,0,0
14229,2024 10 17,09:01:58.561,-0.393137,0.26709,0.710471,0.518977,-1.993713,-3.20127,-0.386731,-39.733887,124.87793,216.369629,0,0
14230,2024 10 17,09:01:58.570,-0.376162,0.266309,0.717089,0.522843,-1.439009,-3.429792,-0.789575,-41.381836,164.916992,147.216797,0,0
14231,2024 10 17,09:01:58.578,-0.376162,0.266309,0.717089,0.522843,-1.439009,-3.429792,-0.789575,-41.381836,164.916992,147.216797,0,0
14232,2024 10 17,09:01:58.586,-0.359888,0.271677,0.722645,0.523886,-1.957579,-4.540178,-1.455611,-50.90332,203.491211,80.505371,0,0
14233,2024 10 17,09:01:58.595,-0.345992,0.280515,0.728434,0.520562,-3.136815,-4.51088,-1.294961,-7.263184,203.674316,28.686523,0,0
14234,2024 10 17,09:01:58.603,-0.341615,0.287476,0.730996,0.516044,-3.057222,-4.163701,-1.092319,17.944336,73.791504,-26.733398,0,0
14235,2024 10 17,09:01:58.611,-0.349055,0.290284,0.72948,0.511619,-1.992737,-3.594836,-0.657247,47.424316,-56.396484,-75.195313,0,0
14236,2024 10 17,09:01:58.620,-0.361143,0.29223,0.727478,0.504929,-1.488327,-2.60506,-0.546892,81.542969,-67.199707,-107.48291,0,0
14237,2024 10 17,09:01:58.628,-0.361143,0.29223,0.727478,0.504929,-1.488327,-2.60506,-0.546892,81.542969,-67.199707,-107.48291,0,0
14238,2024 10 17,09:01:58.636,-0.373798,0.294813,0.72581,0.496548,-1.472701,-1.624073,-0.436048,91.186523,-66.772461,-123.474121,0,0
14239,2024 10 17,09:01:58.645,-0.386057,0.30124,0.739255,0.462294,-7.916257,2.723228,-1.112827,661.682129,295.349121,-312.438965,0,0
14240,2024 10 17,09:01:58.653,-0.427088,0.301412,0.716049,0.462622,2.121647,2.788171,1.657277,-166.931152,-615.722656,-225.036621,0,0
14241,2024 10 17,09:01:58.661,-0.455526,0.310017,0.693821,0.463679,2.378002,-0.307138,0.30665,-109.619141,-52.185059,-343.139648,0,0
14242,2024 10 17,09:01:58.670,-0.45936,0.343151,0.691984,0.438627,-4.383435,1.732963,0.099612,2.258301,153.137207,-427.67334,1,0
14243,2024 10 17,09:01:58.678,-0.45936,0.343151,0.691984,0.438627,-4.383435,1.732963,0.099612,2.258301,153.137207,-427.67334,0,0
14244,2024 10 17,09:01:58.686,-0.473895,0.369628,0.660524,0.450007,-2.294992,-2.081118,-0.76223,-358.703613,-240.905762,-312.927246,0,0
14245,2024 10 17,09:01:58.695,-0.48639,0.381713,0.645298,0.448677,-2.853603,-0.316904,-0.268563,12.512207,-84.960938,-190.124512,0,0
14246,2024 10 17,09:01:58.703,-0.503393,0.381942,0.628692,0.453279,-0.963408,0.152348,0.536149,-72.814941,-279.052734,-122.741699,0,0
14247,2024 10 17,09:01:58.711,-0.514937,0.383563,0.614198,0.458782,-1.351115,0.001465,-0.062014,-75.012207,-144.897461,-92.895508,0,0
14248,2024 10 17,09:01:58.720,-0.524104,0.384604,0.600143,0.466072,-0.775903,-0.117191,0.059572,-94.360352,-187.927246,-71.105957,0,0
14249,2024 10 17,09:01:58.728,-0.524104,0.384604,0.600143,0.466072,-0.775903,-0.117191,0.059572,-94.360352,-187.927246,-71.105957,0,0
14250,2024 10 17,09:01:58.736,-0.53207,0.384458,0.588252,0.472285,-0.826685,-0.094729,-0.303232,-51.940918,-141.174316,-52.062988,0,0
14251,2024 10 17,09:01:58.745,-0.538629,0.383251,0.579023,0.477209,-0.914579,0.08594,0.062502,-52.124023,-123.474121,-31.005859,0,0
14252,2024 10 17,09:01:58.753,-0.542888,0.382551,0.571012,0.48257,-0.852565,0.08887,-0.251473,-57.556152,-100.219727,-18.432617,0,0
14253,2024 10 17,09:01:58.761,-0.546491,0.381741,0.564772,0.48647,-0.512223,-0.048341,-0.641133,-26.977539,-72.265625,-17.63916,0,0
14254,2024 10 17,09:01:58.770,-0.548539,0.381214,0.562245,0.487506,-0.966338,0.191412,0.087893,-10.620117,-24.230957,-9.70459,0,0
14255,2024 10 17,09:01:58.778,-0.548539,0.381214,0.562245,0.487506,-0.966338,0.191412,0.087893,-10.620117,-24.230957,-9.70459,0,0
14256,2024 10 17,09:01:58.786,-0.549732,0.381097,0.560231,0.48857,-0.82815,0.114261,-0.305673,-9.216309,-29.907227,-8.728027,0,0
14257,2024 10 17,09:01:58.795,-0.551024,0.380755,0.558885,0.488922,-0.881375,0.138676,-0.046876,-0.610352,-11.779785,-8.483887,0,0
14258,2024 10 17,09:01:58.803,-0.551911,0.380736,0.558467,0.488415,-0.966338,0.204596,-0.086428,5.432129,-8.178711,-11.169434,0,0
14259,2024 10 17,09:01:58.811,-0.55327,0.380701,0.557889,0.487565,-1.010285,0.21485,-0.00293,9.155273,-7.568359,-17.211914,0,0
14260,2024 10 17,09:01:58.820,-0.554906,0.380731,0.557207,0.486459,-0.959014,0.190435,-0.064943,10.192871,-12.207031,-20.507813,0,0
14261,2024 10 17,09:01:58.828,-0.554906,0.380731,0.557207,0.486459,-0.959014,0.190435,-0.064943,10.192871,-12.207031,-20.507813,0,0
14262,2024 10 17,09:01:58.836,-0.556754,0.380751,0.556375,0.485284,-0.962432,0.203619,-0.049318,11.047363,-11.291504,-22.033691,0,0
14263,2024 10 17,09:01:58.845,-0.558523,0.380882,0.555407,0.484256,-0.96585,0.20069,-0.043458,6.713867,-13.427734,-21.728516,0,0
14264,2024 10 17,09:01:58.853,-0.560084,0.381187,0.554098,0.483712,-0.908719,0.192877,-0.148442,-1.708984,-14.221191,-19.470215,0,0
14265,2024 10 17,09:01:58.861,-0.561134,0.381809,0.552794,0.483497,-0.904324,0.188482,-0.093265,-5.432129,-8.300781,-16.662598,0,0
14266,2024 10 17,09:01:58.870,-0.561722,0.38263,0.551615,0.483512,-0.909696,0.146001,-0.131352,-9.765625,-6.835938,-13.183594,0,0
14267,2024 10 17,09:01:58.878,-0.562152,0.383367,0.550586,0.483601,-0.923368,0.132817,-0.083987,-8.544922,-4.516602,-10.620117,0,0
14268,2024 10 17,09:01:58.886,-0.562152,0.383367,0.550586,0.483601,-0.923368,0.132817,-0.083987,-8.544922,-4.516602,-10.620117,0,0
14269,2024 10 17,09:01:58.895,-0.562558,0.383958,0.549743,0.483618,-0.961455,0.150884,-0.064943,-6.408691,-5.432129,-9.521484,0,0
14270,2024 10 17,09:01:58.903,-0.563145,0.384328,0.548893,0.483607,-0.948271,0.153325,-0.062502,-3.479004,-7.202148,-9.82666,0,0
14271,2024 10 17,09:01:58.911,-0.563893,0.384574,0.547997,0.483555,-0.947783,0.154302,-0.086428,-2.746582,-9.643555,-10.253906,0,0
14272,2024 10 17,09:01:58.920,-0.564767,0.384741,0.546979,0.483557,-0.925321,0.161138,-0.11182,-3.601074,-11.352539,-10.742188,0,0
14273,2024 10 17,09:01:58.928,-0.565577,0.385013,0.545931,0.483579,-0.91995,0.181158,-0.132817,-5.065918,-10.009766,-11.169434,0,0
14274,2024 10 17,09:01:58.936,-0.565577,0.385013,0.545931,0.483579,-0.91995,0.181158,-0.132817,-5.065918,-10.009766,-11.169434,0,0
14275,2024 10 17,09:01:58.945,-0.566279,0.385507,0.544818,0.483618,-0.932157,0.17188,-0.115726,-7.568359,-8.544922,-12.268066,0,0
14276,2024 10 17,09:01:58.953,-0.56689,0.3862,0.543654,0.483658,-0.924833,0.160161,-0.125004,-9.216309,-7.080078,-13.183594,0,0
14277,2024 10 17,09:01:58.961,-0.567342,0.387103,0.5426,0.48359,-0.935087,0.138188,-0.092776,-8.911133,-3.295898,-13.671875,0,0
14278,2024 10 17,09:01:58.970,-0.567766,0.388014,0.541626,0.483454,-0.965361,0.121097,-0.097171,-8.728027,-3.845215,-13.427734,0,0
14279,2024 10 17,09:01:58.978,-0.568325,0.388821,0.540585,0.483315,-0.927274,0.122074,-0.08887,-7.324219,-5.432129,-13.977051,0,0
14280,2024 10 17,09:01:58.986,-0.568325,0.388821,0.540585,0.483315,-0.927274,0.122074,-0.08887,-7.324219,-5.432129,-13.977051,0,0
14281,2024 10 17,09:01:58.995,-0.568822,0.389595,0.539692,0.483105,-0.952178,0.117679,-0.117191,-5.859375,-3.173828,-13.305664,0,0
14282,2024 10 17,09:01:59.003,-0.569492,0.390214,0.538829,0.482779,-0.955107,0.120609,-0.113285,-3.78418,-5.981445,-13.977051,0,0
14283,2024 10 17,09:01:59.011,-0.570364,0.390681,0.537965,0.482335,-0.948759,0.129398,-0.128422,-1.159668,-6.774902,-14.831543,0,0
14284,2024 10 17,09:01:59.020,-0.571357,0.391078,0.537084,0.48182,-0.943876,0.13184,-0.110355,-0.061035,-7.873535,-15.625,0,0
14285,2024 10 17,09:01:59.028,-0.572361,0.391559,0.536233,0.481184,-0.965361,0.145512,-0.12891,0.061035,-5.615234,-17.39502,0,0
14286,2024 10 17,09:01:59.036,-0.572361,0.391559,0.536233,0.481184,-0.965361,0.145512,-0.12891,0.061035,-5.615234,-17.39502,0,0
14287,2024 10 17,09:01:59.045,-0.573498,0.392199,0.535444,0.480188,-0.985382,0.154302,-0.157231,2.685547,-3.662109,-21.66748,0,0
14288,2024 10 17,09:01:59.053,-0.574862,0.392998,0.534635,0.478802,-0.995636,0.166509,-0.093265,5.004883,-2.075195,-26.794434,0,0
14289,2024 10 17,09:01:59.061,-0.576369,0.394096,0.533905,0.476899,-1.014191,0.1377,-0.118168,7.995605,1.525879,-32.775879,0,0
14290,2024 10 17,09:01:59.070,-0.578299,0.395359,0.533298,0.474189,-1.082064,0.156743,-0.14893,14.587402,3.845215,-41.931152,0,0
14291,2024 10 17,09:01:59.078,-0.58089,0.396807,0.532554,0.470635,-1.142125,0.15772,-0.109867,20.263672,3.295898,-53.161621,0,0
14292,2024 10 17,09:01:59.086,-0.58089,0.396807,0.532554,0.470635,-1.142125,0.15772,-0.109867,20.263672,3.295898,-53.161621,0,0
14293,2024 10 17,09:01:59.095,-0.584179,0.398592,0.531691,0.466008,-1.189489,0.179205,-0.166509,27.648926,4.577637,-67.871094,0,0
14294,2024 10 17,09:01:59.103,-0.588376,0.400691,0.530401,0.460365,-1.247597,0.226081,-0.11475,34.484863,2.929688,-83.984375,0,0
14295,2024 10 17,09:01:59.111,-0.593337,0.403315,0.528566,0.45377,-1.303262,0.238777,-0.136235,35.827637,0.549316,-100.280762,0,0
14296,2024 10 17,09:01:59.120,-0.599195,0.406411,0.525748,0.446525,-1.344768,0.273934,-0.129887,33.874512,-7.263184,-116.638184,0,0
14297,2024 10 17,09:01:59.128,-0.605718,0.410196,0.521629,0.439032,-1.308634,0.252937,-0.041505,26.489258,-15.441895,-132.080078,0,0
14298,2024 10 17,09:01:59.136,-0.605718,0.410196,0.521629,0.439032,-1.308634,0.252937,-0.041505,26.489258,-15.441895,-132.080078,0,0
14299,2024 10 17,09:01:59.145,-0.612435,0.41476,0.516139,0.431855,-1.397992,0.26661,-0.036622,9.521484,-25.146484,-139.526367,0,0
14300,2024 10 17,09:01:59.153,-0.619503,0.420084,0.509182,0.424829,-1.519578,0.319346,-0.016602,3.90625,-33.081055,-155.822754,0,0
14301,2024 10 17,09:01:59.161,-0.627342,0.426385,0.501113,0.41656,-1.607959,0.30665,-0.013184,2.868652,-33.935547,-181.945801,0,0
14302,2024 10 17,09:01:59.170,-0.636426,0.433461,0.491288,0.407075,-1.661672,0.363292,0.057131,-2.380371,-47.973633,-209.655762,0,0
14303,2024 10 17,09:01:59.178,-0.646308,0.441767,0.4791,0.396978,-1.712455,0.471206,0.022462,-14.404297,-59.448242,-237.976074,0,0
14304,2024 10 17,09:01:59.186,-0.646308,0.441767,0.4791,0.396978,-1.712455,0.471206,0.022462,-14.404297,-59.448242,-237.976074,0,0
14305,2024 10 17,09:01:59.195,-0.656462,0.451898,0.464803,0.385751,-1.894589,0.57326,-0.166997,-31.738281,-59.509277,-270.812988,0,0
14306,2024 10 17,09:01:59.203,-0.667498,0.463665,0.448506,0.371893,-2.227607,0.733909,-0.212409,-29.174805,-58.776855,-319.030762,0,0
14307,2024 10 17,09:01:59.211,-0.680143,0.476829,0.429004,0.354959,-2.503494,0.818873,-0.02002,-31.37207,-74.09668,-377.13623,0,0
14308,2024 10 17,09:01:59.220,-0.694023,0.491685,0.405321,0.3351,-2.990326,0.824732,-0.371593,-41.992188,-88.562012,-438.964844,0,0
14309,2024 10 17,09:01:59.228,-0.708838,0.508092,0.377478,0.31129,-3.277932,0.822779,-0.311045,-50.354004,-97.106934,-506.652832,0,0
14310,2024 10 17,09:01:59.236,-0.708838,0.508092,0.377478,0.31129,-3.277932,0.822779,-0.311045,-50.354004,-97.106934,-506.652832,0,0
14311,2024 10 17,09:01:59.245,-0.722649,0.52615,0.345092,0.286105,-3.320902,0.287118,-0.47853,-80.383301,-118.103027,-539.428711,0,0
14312,2024 10 17,09:01:59.253,-0.735466,0.54367,0.309052,0.260768,-2.849696,-0.401868,-0.242683,-87.82959,-147.766113,-548.64502,0,1
14313,2024 10 17,09:01:59.261,-0.747121,0.558326,0.273811,0.234753,-2.915128,-0.072268,0.056642,-60.60791,-130.67627,-527.832031,0,0
14314,2024 10 17,09:01:59.270,-0.757413,0.570496,0.239043,0.209089,-2.879483,0.505875,0.307138,-39.794922,-141.662598,-519.470215,0,0
14315,2024 10 17,09:01:59.278,-0.766881,0.579798,0.204599,0.184028,-2.119205,1.042512,0.697775,-33.508301,-139.587402,-497.375488,0,0
14316,2024 10 17,09:01:59.286,-0.774445,0.587673,0.17276,0.158207,-1.518113,1.565966,0.684103,-18.920898,-104.919434,-483.398438,0,0
14317,2024 10 17,09:01:59.295,-0.774445,0.587673,0.17276,0.158207,-1.518113,1.565966,0.684103,-18.920898,-104.919434,-483.398438,0,0
14318,2024 10 17,09:01:59.303,-0.780584,0.594196,0.144145,0.129779,-1.195837,1.132847,1.107944,-10.986328,-49.072266,-477.478027,0,0
14319,2024 10 17,09:01:59.311,-0.786535,0.598326,0.119646,0.095148,-1.023957,0.613788,0.527848,48.950195,26.245117,-515.686035,0,0
14320,2024 10 17,09:01:59.320,-0.794396,0.596147,0.099341,0.060625,1.781304,-0.494644,1.178747,121.21582,36.437988,-403.503418,0,0
14321,2024 10 17,09:01:59.328,-0.801486,0.588358,0.096149,0.047019,1.14066,2.49031,0.865261,112.426758,82.03125,-41.748047,0,0
14322,2024 10 17,09:01:59.336,-0.802907,0.583152,0.113032,0.049986,-1.154332,1.736869,-0.411634,72.32666,116.821289,190.368652,0,0
14323,2024 10 17,09:01:59.345,-0.802907,0.583152,0.113032,0.049986,-1.154332,1.736869,-0.411634,72.32666,116.821289,190.368652,0,0
14324,2024 10 17,09:01:59.353,-0.802703,0.57773,0.13094,0.068922,-1.084506,1.24955,0.188482,4.150391,14.953613,322.570801,0,0
14325,2024 10 17,09:01:59.361,-0.800029,0.573274,0.148902,0.095596,-1.123081,0.928251,0.463881,-3.173828,-24.353027,375.12207,0,0
14326,2024 10 17,09:01:59.370,-0.795935,0.569002,0.16404,0.125761,-0.565935,0.424818,0.577166,-19.65332,-65.368652,378.967285,0,0
14327,2024 10 17,09:01:59.378,-0.79143,0.564231,0.178775,0.152714,-0.182134,0.269051,0.447279,-13.183594,-31.12793,344.543457,0,0
14328,2024 10 17,09:01:59.386,-0.786902,0.559368,0.194379,0.173523,-0.087893,0.227058,0.57326,5.065918,19.40918,294.006348,0,0
14329,2024 10 17,09:01:59.395,-0.786902,0.559368,0.194379,0.173523,-0.087893,0.227058,0.57326,5.065918,19.40918,294.006348,0,0
14330,2024 10 17,09:01:59.403,-0.782222,0.554695,0.211524,0.188946,-0.176275,0.311533,0.523453,16.784668,66.223145,260.864258,0,0
14331,2024 10 17,09:01:59.411,-0.776985,0.550234,0.230217,0.201336,-0.404797,0.530778,0.34962,18.859863,96.435547,247.619629,0,0
14332,2024 10 17,09:01:59.420,-0.770882,0.545966,0.249743,0.212816,-0.672384,0.683126,0.243171,12.023926,107.421875,247.86377,0,0
14333,2024 10 17,09:01:59.428,-0.763615,0.541872,0.269123,0.225476,-0.787133,0.715842,0.173833,-2.563477,97.839355,261.71875,0,0
14334,2024 10 17,09:01:59.436,-0.754872,0.537836,0.288276,0.240409,-0.78518,0.687033,0.124027,-20.507813,87.82959,285.400391,0,0
14335,2024 10 17,09:01:59.445,-0.754872,0.537836,0.288276,0.240409,-0.78518,0.687033,0.124027,-20.507813,87.82959,285.400391,0,0
14336,2024 10 17,09:01:59.453,-0.744335,0.533804,0.30782,0.257421,-0.775903,0.617206,0.116703,-36.92627,87.280273,310.852051,0,0
14337,2024 10 17,09:01:59.461,-0.731893,0.529688,0.328398,0.275531,-0.793481,0.540544,0.12891,-46.630859,98.449707,331.420898,0,0
14338,2024 10 17,09:01:59.470,-0.717586,0.52542,0.350208,0.293868,-0.865261,0.494156,0.135746,-52.55127,114.685059,346.008301,0,0
14339,2024 10 17,09:01:59.478,-0.7016,0.520996,0.37289,0.311888,-1.041536,0.470717,0.097171,-57.128906,128.90625,352.905273,0,0
14340,2024 10 17,09:01:59.486,-0.684392,0.51631,0.39564,0.329395,-1.24369,0.427259,0.039552,-58.959961,135.437012,352.905273,0,0
14341,2024 10 17,09:01:59.495,-0.684392,0.51631,0.39564,0.329395,-1.24369,0.427259,0.039552,-58.959961,135.437012,352.905273,0,0
14342,2024 10 17,09:01:59.503,-0.666333,0.511239,0.418034,0.34624,-1.452193,0.409192,-0.042482,-59.387207,137.695313,350.219727,0,0
14343,2024 10 17,09:01:59.511,-0.647671,0.505522,0.439628,0.362901,-1.634815,0.419446,-0.098148,-60.72998,131.530762,350.646973,0,0
14344,2024 10 17,09:01:59.520,-0.628363,0.498861,0.460147,0.380212,-1.792047,0.425306,-0.19483,-66.589355,117.1875,358.703613,0,0
14345,2024 10 17,09:01:59.528,-0.60847,0.490872,0.479178,0.398996,-1.857967,0.396985,-0.206061,-75.073242,94.726563,371.582031,0,0
14346,2024 10 17,09:01:59.536,-0.58775,0.481626,0.496929,0.419104,-1.919981,0.31251,-0.194342,-83.618164,79.589844,384.70459,0,0
14347,2024 10 17,09:01:59.545,-0.58775,0.481626,0.496929,0.419104,-1.919981,0.31251,-0.194342,-83.618164,79.589844,384.70459,0,0
14348,2024 10 17,09:01:59.553,-0.566162,0.471315,0.513613,0.439915,-2.018128,0.215339,-0.138188,-89.538574,69.519043,393.859863,0,0
14349,2024 10 17,09:01:59.561,-0.543643,0.46012,0.529518,0.460817,-2.198309,0.112308,-0.070315,-92.529297,66.101074,401.123047,0,0
14350,2024 10 17,09:01:59.570,-0.5203,0.448026,0.544516,0.48173,-2.447829,-0.062014,-0.015625,-96.679688,58.898926,407.348633,0,0
14351,2024 10 17,09:01:59.578,-0.496708,0.434837,0.558124,0.502688,-2.660726,-0.292978,0.084964,-98.937988,43.945313,409.362793,0,0
14352,2024 10 17,09:01:59.586,-0.473426,0.420648,0.57005,0.523417,-2.797449,-0.559587,0.167486,-99.304199,26.977539,404.907227,0,0
14353,2024 10 17,09:01:59.595,-0.473426,0.420648,0.57005,0.523417,-2.797449,-0.559587,0.167486,-99.304199,26.977539,404.907227,0,0
14354,2024 10 17,09:01:59.603,-0.451129,0.405635,0.580058,0.543576,-2.7828,-0.787622,0.327647,-97.839355,6.774902,392.51709,0,0
14355,2024 10 17,09:01:59.611,-0.430028,0.390298,0.588387,0.562623,-2.628986,-0.950224,0.518571,-93.017578,-4.333496,374.511719,0,0
14356,2024 10 17,09:01:59.620,-0.40967,0.375523,0.595598,0.580015,-2.498123,-1.127476,0.690451,-89.538574,-1.953125,353.271484,0,0
14357,2024 10 17,09:01:59.628,-0.389863,0.362278,0.602075,0.595203,-2.262764,-1.466353,0.832057,-83.129883,13.427734,325.012207,0,0
14358,2024 10 17,09:01:59.636,-0.370532,0.351798,0.608481,0.607203,-1.693899,-2.023011,0.830592,-69.885254,46.508789,287.04834,0,0
14359,2024 10 17,09:01:59.645,-0.351191,0.345812,0.616174,0.614336,-1.420942,-2.897061,0.646016,-42.297363,110.961914,240.478516,0,0
14360,2024 10 17,09:01:59.653,-0.351191,0.345812,0.616174,0.614336,-1.420942,-2.897061,0.646016,-42.297363,110.961914,240.478516,0,0
14361,2024 10 17,09:01:59.661,-0.331879,0.344925,0.626203,0.615429,-1.635792,-3.615345,0.302255,-1.464844,180.786133,193.17627,0,0
14362,2024 10 17,09:01:59.670,-0.314099,0.347516,0.637691,0.611494,-2.287179,-4.152471,-0.318857,37.29248,206.420898,148.742676,0,0
14363,2024 10 17,09:01:59.678,-0.301584,0.350359,0.648226,0.605061,-2.82577,-4.199347,-0.840846,66.955566,162.780762,99.243164,0,0
14364,2024 10 17,09:01:59.686,-0.297542,0.35138,0.655488,0.598612,-2.892178,-3.596789,-1.010285,83.068848,68.359375,38.452148,0,0
14365,2024 10 17,09:01:59.695,-0.302577,0.350251,0.658395,0.593538,-2.284738,-2.611896,-0.731468,79.89502,-35.705566,-22.033691,0,0
14366,2024 10 17,09:01:59.703,-0.302577,0.350251,0.658395,0.593538,-2.284738,-2.611896,-0.731468,79.89502,-35.705566,-22.033691,0,0
14367,2024 10 17,09:01:59.711,-0.313066,0.350395,0.660148,0.586019,-6.797082,-2.822352,-1.20951,155.334473,6.04248,-109.741211,0,0
14368,2024 10 17,09:01:59.720,-0.338853,0.364035,0.65352,0.570586,-0.43556,0.258797,-0.48146,71.777344,-255.615234,-302.55127,0,0
14369,2024 10 17,09:01:59.728,-0.372417,0.366808,0.637551,0.565938,1.782769,0.415052,1.606494,59.143066,-229.370117,-331.237793,0,0
14370,2024 10 17,09:01:59.736,-0.383122,0.389146,0.631491,0.550456,-0.246101,1.805719,-0.766625,-5.737305,180.725098,-339.84375,0,0
14371,2024 10 17,09:01:59.745,-0.383829,0.422152,0.624118,0.533797,-3.351665,0.278817,1.892147,-99.731445,256.958008,-360.168457,1,0
14372,2024 10 17,09:01:59.753,-0.383829,0.422152,0.624118,0.533797,-3.351665,0.278817,1.892148,-99.731445,256.958008,-360.168457,0,0
14373,2024 10 17,09:01:59.761,-0.390254,0.448476,0.605538,0.529051,-3.612415,-0.728538,-0.868679,-161.193848,-49.072266,-321.044922,0,0
14374,2024 10 17,09:01:59.770,-0.411076,0.45612,0.577856,0.537637,-1.242225,-0.726585,-0.212409,-155.517578,-282.470703,-260.925293,0,0
14375,2024 10 17,09:01:59.778,-0.422974,0.464264,0.562129,0.53811,-1.766655,-0.744652,-0.96292,-35.400391,-41.381836,-180.908203,0,0
14376,2024 10 17,09:01:59.786,-0.435493,0.46605,0.552815,0.536227,-1.511277,0.346202,1.02298,-0.305176,-137.817383,-130.67627,0,0
14377,2024 10 17,09:01:59.795,-0.443182,0.46719,0.542674,0.539285,-1.28959,-0.020508,0.275887,-49.865723,-90.454102,-80.078125,0,0
14378,2024 10 17,09:01:59.803,-0.443182,0.46719,0.542674,0.539285,-1.28959,-0.020508,0.275887,-49.865723,-90.454102,-80.078125,0,0
14379,2024 10 17,09:01:59.811,-0.447214,0.467877,0.534035,0.543965,-1.033235,-0.013672,0.06006,-69.946289,-99.975586,-45.166016,0,0
14380,2024 10 17,09:01:59.820,-0.45152,0.466988,0.525871,0.549101,-0.848659,-0.038575,-0.118168,-43.334961,-96.191406,-36.499023,0,0
14381,2024 10 17,09:01:59.828,-0.4553,0.465749,0.52007,0.552546,-1.033235,0.229011,0.064455,-35.644531,-75.439453,-24.719238,0,0
14382,2024 10 17,09:01:59.836,-0.457461,0.464715,0.513774,0.557499,-0.954131,0.133305,-0.053713,-54.6875,-80.322266,-13.305664,0,0
14383,2024 10 17,09:01:59.845,-0.45954,0.46348,0.508055,0.562041,-0.816431,0.127934,-0.171392,-41.503906,-70.3125,-12.756348,0,0
14384,2024 10 17,09:01:59.853,-0.45954,0.46348,0.508055,0.562041,-0.816431,0.127934,-0.171392,-41.503906,-70.3125,-12.756348,0,0
14385,2024 10 17,09:01:59.861,-0.460985,0.462752,0.503719,0.565351,-0.857936,0.144047,-0.095706,-35.705566,-46.447754,-9.399414,0,0
14386,2024 10 17,09:01:59.870,-0.461512,0.462601,0.500608,0.567802,-0.841823,0.066897,-0.288583,-25.634766,-30.029297,-6.04248,0,0
14387,2024 10 17,09:01:59.878,-0.462172,0.462317,0.498735,0.569143,-0.885281,0.187506,0.008301,-14.282227,-17.578125,-5.065918,0,0
14388,2024 10 17,09:01:59.886,-0.462528,0.462479,0.497547,0.569761,-0.948759,0.17481,-0.170415,-7.93457,-11.657715,-7.69043,0,0
14389,2024 10 17,09:01:59.895,-0.463531,0.462361,0.496354,0.570083,-0.912625,0.154302,-0.04883,-2.746582,-12.817383,-11.535645,0,0
14390,2024 10 17,09:01:59.903,-0.463531,0.462361,0.496354,0.570083,-0.912625,0.154302,-0.04883,-2.746582,-12.817383,-11.535645,0,0
14391,2024 10 17,09:01:59.911,-0.464673,0.46246,0.495739,0.569608,-0.940947,0.167486,-0.115238,5.371094,-6.103516,-14.648438,0,0
14392,2024 10 17,09:01:59.920,-0.466256,0.462421,0.495253,0.568768,-0.922391,0.230476,-0.041017,11.59668,-6.469727,-18.554688,0,0
14393,2024 10 17,09:01:59.928,-0.467804,0.462732,0.494964,0.567493,-0.929228,0.219245,-0.0918,12.939453,-0.305176,-21.484375,0,0
14394,2024 10 17,09:01:59.936,-0.469291,0.463226,0.494636,0.566148,-0.912625,0.188482,-0.094729,9.887695,0.305176,-21.911621,0,0
14395,2024 10 17,09:01:59.945,-0.470574,0.463872,0.494386,0.564771,-0.911649,0.176763,-0.072268,8.789063,4.150391,-20.690918,0,0
14396,2024 10 17,09:01:59.953,-0.470574,0.463872,0.494386,0.564771,-0.911649,0.176763,-0.072268,8.789063,4.150391,-20.690918,0,0
14397,2024 10 17,09:01:59.961,-0.471585,0.46463,0.494272,0.563402,-0.944365,0.182623,-0.056154,7.751465,5.859375,-18.554688,0,0
14398,2024 10 17,09:01:59.970,-0.472493,0.46524,0.494019,0.562358,-0.928739,0.165044,-0.058596,5.859375,1.953125,-15.991211,0,0
14399,2024 10 17,09:01:59.978,-0.473298,0.465735,0.49378,0.561481,-0.927763,0.149907,-0.06299,4.333496,2.075195,-13.73291,0,0
14400,2024 10 17,09:01:59.986,-0.474011,0.466156,0.49363,0.560662,-0.944853,0.179693,-0.064943,4.943848,2.01416,-12.268066,0,0
14401,2024 10 17,09:01:59.995,-0.474688,0.466485,0.493344,0.560067,-0.928251,0.154302,-0.047365,3.112793,-0.549316,-11.047363,0,0
14402,2024 10 17,09:02:00.003,-0.474688,0.466485,0.493344,0.560067,-0.928251,0.154302,-0.047365,3.112793,-0.549316,-11.047363,0,0
14403,2024 10 17,09:02:00.011,-0.475373,0.466727,0.49302,0.559569,-0.921903,0.158208,-0.093753,2.990723,-1.77002,-10.375977,0,0
14404,2024 10 17,09:02:00.020,-0.476033,0.466911,0.492698,0.559138,-0.903836,0.157231,-0.082034,2.685547,-1.342773,-9.399414,0,0
14405,2024 10 17,09:02:00.028,-0.476535,0.467178,0.492499,0.558662,-0.919462,0.156743,-0.085452,2.197266,0.549316,-8.361816,0,0
14406,2024 10 17,09:02:00.036,-0.477039,0.467436,0.492268,0.558219,-0.934599,0.174322,-0.063478,2.075195,-0.183105,-8.605957,0,0
14407,2024 10 17,09:02:00.045,-0.477505,0.467711,0.49198,0.557846,-0.938994,0.156743,-0.067873,1.159668,-0.793457,-8.483887,0,0
14408,2024 10 17,09:02:00.053,-0.478066,0.467892,0.49162,0.557531,-0.929716,0.152837,-0.078616,1.464844,-2.685547,-8.728027,0,0
14409,2024 10 17,09:02:00.061,-0.478066,0.467892,0.49162,0.557531,-0.929716,0.152837,-0.078616,1.464844,-2.685547,-8.728027,0,0
14410,2024 10 17,09:02:00.070,-0.478661,0.468047,0.491262,0.557205,-0.936552,0.157231,-0.067873,1.586914,-2.258301,-8.728027,0,0
14411,2024 10 17,09:02:00.078,-0.479286,0.46819,0.490847,0.556913,-0.938994,0.162114,-0.069338,1.647949,-3.723145,-9.033203,0,0
14412,2024 10 17,09:02:00.086,-0.479959,0.468279,0.490365,0.556683,-0.91995,0.156743,-0.059572,1.525879,-4.394531,-9.033203,0,0
14413,2024 10 17,09:02:00.095,-0.480589,0.46842,0.489895,0.556435,-0.949736,0.155766,-0.07178,0.915527,-3.78418,-9.155273,0,0
14414,2024 10 17,09:02:00.103,-0.481254,0.468539,0.489336,0.556252,-0.951201,0.160161,-0.076662,-0.061035,-5.371094,-9.399414,0,0
14415,2024 10 17,09:02:00.111,-0.481254,0.468539,0.489336,0.556252,-0.951201,0.160161,-0.076662,-0.061035,-5.371094,-9.399414,0,0
14416,2024 10 17,09:02:00.120,-0.481873,0.468679,0.488641,0.556209,-0.933134,0.155766,-0.095218,-2.380371,-6.103516,-9.033203,0,0
14417,2024 10 17,09:02:00.128,-0.482449,0.468939,0.487957,0.556091,-0.964873,0.187994,-0.031739,-1.831055,-4.272461,-9.82666,0,0
14418,2024 10 17,09:02:00.136,-0.482979,0.469312,0.487061,0.556102,-0.956572,0.157231,-0.084964,-5.004883,-5.981445,-11.047363,0,0
14419,2024 10 17,09:02:00.145,-0.483553,0.469777,0.486042,0.556101,-0.954131,0.167974,-0.081545,-6.774902,-5.554199,-12.634277,0,0
14420,2024 10 17,09:02:00.153,-0.484012,0.47055,0.485023,0.555939,-0.957549,0.165044,-0.07178,-7.507324,-0.915527,-14.526367,0,0
14421,2024 10 17,09:02:00.161,-0.484012,0.47055,0.485023,0.555939,-0.957549,0.165044,-0.07178,-7.507324,-0.915527,-14.526367,0,0
14422,2024 10 17,09:02:00.170,-0.484503,0.471627,0.484022,0.555471,-0.989776,0.183599,-0.070803,-6.591797,2.075195,-18.981934,0,0
14423,2024 10 17,09:02:00.178,-0.485159,0.473055,0.482946,0.554619,-1.016633,0.179693,-0.06592,-5.981445,5.004883,-24.719238,0,0
14424,2024 10 17,09:02:00.186,-0.486188,0.47486,0.48186,0.553119,-1.069369,0.222175,-0.13477,-1.953125,9.155273,-34.240723,0,0
14425,2024 10 17,09:02:00.195,-0.487824,0.477204,0.480601,0.550752,-1.082064,0.221686,-0.113285,2.441406,13.366699,-47.485352,0,0
14426,2024 10 17,09:02:00.203,-0.490055,0.48025,0.479362,0.547192,-1.147496,0.232429,-0.181158,8.850098,21.850586,-62.316895,0,0
14427,2024 10 17,09:02:00.211,-0.490055,0.48025,0.479362,0.547192,-1.147496,0.232429,-0.181158,8.850098,21.850586,-62.316895,0,0
14428,2024 10 17,09:02:00.220,-0.493261,0.483832,0.477682,0.542605,-1.236366,0.235847,-0.082034,13.916016,21.484375,-80.26123,0,0
14429,2024 10 17,09:02:00.228,-0.497514,0.488022,0.475625,0.536745,-1.322306,0.229499,-0.094729,19.592285,23.376465,-99.487305,0,0
14430,2024 10 17,09:02:00.236,-0.502811,0.492524,0.47264,0.530294,-1.350627,0.24073,0.029298,20.507813,15.319824,-115.539551,0,0
14431,2024 10 17,09:02:00.245,-0.508788,0.497165,0.468255,0.524118,-1.431684,0.27784,0.031251,10.803223,0.732422,-125.305176,0,0
14432,2024 10 17,09:02:00.253,-0.51567,0.501971,0.462094,0.518246,-1.544481,0.342784,-0.050295,5.371094,-14.404297,-143.920898,0,0
14433,2024 10 17,09:02:00.261,-0.51567,0.501971,0.462094,0.518246,-1.544481,0.342784,-0.050295,5.371094,-14.404297,-143.920898,0,0
14434,2024 10 17,09:02:00.270,-0.523977,0.507468,0.454313,0.511394,-1.65923,0.407727,0.018067,5.004883,-19.165039,-173.76709,0,0
14435,2024 10 17,09:02:00.278,-0.533675,0.51398,0.444575,0.503358,-1.827693,0.493667,0.105472,1.159668,-27.160645,-207.336426,0,0
14436,2024 10 17,09:02:00.286,-0.544661,0.52186,0.432608,0.493819,-2.067934,0.632344,0.010254,-6.347656,-28.320313,-246.582031,0,0
14437,2024 10 17,09:02:00.295,-0.557475,0.531225,0.417866,0.482088,-2.414624,0.777367,-0.08301,-7.69043,-36.865234,-300.415039,0,0
14438,2024 10 17,09:02:00.303,-0.57298,0.541895,0.398973,0.467829,-2.75985,1.009796,0.02588,-12.329102,-53.710938,-367.248535,0,0
14439,2024 10 17,09:02:00.311,-0.57298,0.541895,0.398973,0.467829,-2.75985,1.009796,0.02588,-12.329102,-53.710938,-367.248535,0,0
14440,2024 10 17,09:02:00.320,-0.59041,0.554559,0.375161,0.450704,-3.229102,1.039582,-0.161138,-27.526855,-66.28418,-439.63623,0,0
14441,2024 10 17,09:02:00.328,-0.609784,0.568507,0.345973,0.430426,-3.446882,1.006867,-0.166509,-40.466309,-86.669922,-510.559082,0,0
14442,2024 10 17,09:02:00.336,-0.629238,0.583057,0.311176,0.408991,-3.128025,0.619648,-0.310068,-70.739746,-117.492676,-550.842285,0,0
14443,2024 10 17,09:02:00.345,-0.648075,0.597031,0.273491,0.385688,-2.611896,-0.085452,-0.130375,-70.617676,-116.760254,-569.580078,0,1
14444,2024 10 17,09:02:00.353,-0.665773,0.608873,0.237594,0.359957,-2.760826,0.217292,0.245613,-35.03418,-88.867188,-556.091309,0,0
14445,2024 10 17,09:02:00.361,-0.665773,0.608873,0.237594,0.359957,-2.760826,0.217292,0.245613,-35.03418,-88.867188,-556.091309,0,0
14446,2024 10 17,09:02:00.370,-0.681297,0.618701,0.202204,0.334898,-2.440504,0.4214,0.205084,-42.541504,-105.46875,-536.865234,0,0
14447,2024 10 17,09:02:00.378,-0.69521,0.626711,0.167468,0.30963,-2.339427,0.950713,0.380871,-36.499023,-87.890625,-523.55957,0,0
14448,2024 10 17,09:02:00.386,-0.707957,0.632586,0.135337,0.283399,-2.235908,1.359905,0.661153,-13.061523,-73.547363,-503.90625,0,0
14449,2024 10 17,09:02:00.395,-0.720214,0.635427,0.105254,0.257772,-1.714896,1.933653,1.030793,21.057129,-71.594238,-477.539063,0,0
14450,2024 10 17,09:02:00.403,-0.731864,0.635265,0.076805,0.234339,-0.345714,1.529832,1.847713,37.231445,-93.017578,-434.509277,0,0
14451,2024 10 17,09:02:00.411,-0.731864,0.635265,0.076805,0.234339,-0.345714,1.529832,1.847713,37.231445,-93.017578,-434.509277,0,0
14452,2024 10 17,09:02:00.420,-0.741022,0.630052,0.048268,0.227135,2.242744,1.012726,1.172399,47.790527,-262.573242,-206.298828,0,0
14453,2024 10 17,09:02:00.428,-0.740934,0.627011,0.038248,0.237511,0.656758,0.596698,-0.527848,4.455566,-78.369141,80.383301,0,0
14454,2024 10 17,09:02:00.436,-0.742221,0.621022,0.052165,0.246409,-1.017121,1.477096,0.978057,82.03125,29.052734,203.796387,0,0
14455,2024 10 17,09:02:00.445,-0.738837,0.616034,0.064989,0.265326,-0.626972,1.178259,0.818873,54.6875,-52.978516,266.601563,0,0
14456,2024 10 17,09:02:00.453,-0.734391,0.610677,0.078956,0.2855,-0.468764,0.780786,0.30958,39.0625,-34.545898,284.179688,0,0
14457,2024 10 17,09:02:00.461,-0.729641,0.604996,0.093075,0.304864,-0.604022,0.72512,0.627949,41.381836,-31.616211,276.245117,0,0
14458,2024 10 17,09:02:00.470,-0.729641,0.604996,0.093075,0.304864,-0.604022,0.72512,0.627949,41.381836,-31.616211,276.245117,0,0
14459,2024 10 17,09:02:00.478,-0.72408,0.599671,0.106544,0.323652,-0.584002,0.762719,0.428724,32.409668,-35.644531,269.592285,0,0
14460,2024 10 17,09:02:00.486,-0.717381,0.594532,0.118598,0.343264,-0.495621,0.76809,0.421888,13.427734,-49.804688,273.925781,0,0
14461,2024 10 17,09:02:00.495,-0.708879,0.590012,0.130099,0.363938,-0.574725,0.784692,0.372082,-9.399414,-57.312012,286.987305,0,0
14462,2024 10 17,09:02:00.503,-0.698271,0.586142,0.140817,0.386039,-0.543962,0.709983,0.416028,-33.752441,-65.612793,300.537109,0,0
14463,2024 10 17,09:02:00.511,-0.685605,0.583104,0.151538,0.408622,-0.485855,0.585955,0.469741,-53.588867,-58.776855,312.072754,0,0
14464,2024 10 17,09:02:00.520,-0.685605,0.583104,0.151538,0.408622,-0.485855,0.585955,0.469741,-53.588867,-58.776855,312.072754,0,0
14465,2024 10 17,09:02:00.528,-0.67103,0.581029,0.163112,0.43072,-0.479995,0.50734,0.517106,-67.626953,-37.414551,321.289063,0,0
14466,2024 10 17,09:02:00.536,-0.654599,0.580037,0.176089,0.451719,-0.517594,0.476089,0.494156,-78.613281,-9.643555,329.406738,0,0
14467,2024 10 17,09:02:00.545,-0.636218,0.580173,0.190559,0.4715,-0.740257,0.471694,0.493667,-90.209961,19.287109,338.07373,0,0
14468,2024 10 17,09:02:00.553,-0.615733,0.581307,0.206058,0.490403,-1.050325,0.459975,0.449232,-104.858398,39.18457,346.923828,0,0
14469,2024 10 17,09:02:00.561,-0.593256,0.582911,0.221581,0.509081,-1.3184,0.450697,0.428724,-121.887207,44.677734,354.492188,0,0
14470,2024 10 17,09:02:00.570,-0.593256,0.582911,0.221581,0.509081,-1.3184,0.450697,0.428724,-121.887207,44.677734,354.492188,0,0
14471,2024 10 17,09:02:00.578,-0.569108,0.58451,0.236244,0.527875,-1.471725,0.374035,0.401868,-137.756348,39.672852,357.727051,0,0
14472,2024 10 17,09:02:00.586,-0.543813,0.585748,0.249746,0.546621,-1.530808,0.275887,0.451674,-148.4375,33.874512,357.36084,0,0
14473,2024 10 17,09:02:00.595,-0.517626,0.586635,0.262457,0.564835,-1.556688,0.187017,0.470717,-153.991699,34.545898,355.957031,0,0
14474,2024 10 17,09:02:00.603,-0.490537,0.587228,0.275192,0.582071,-1.670949,0.143559,0.484878,-154.23584,43.945313,359.619141,0,0
14475,2024 10 17,09:02:00.611,-0.462063,0.587331,0.288616,0.598532,-1.861873,0.178228,0.448256,-154.174805,53.344727,373.840332,0,0
14476,2024 10 17,09:02:00.620,-0.462063,0.587331,0.288616,0.598532,-1.861873,0.178228,0.448256,-154.174805,53.344727,373.840332,0,0
14477,2024 10 17,09:02:00.628,-0.431853,0.586316,0.302662,0.614925,-2.109928,0.198248,0.462416,-156.433105,52.124023,394.470215,0,0
14478,2024 10 17,09:02:00.636,-0.400307,0.583503,0.316509,0.631744,-2.320383,0.128422,0.520524,-159.545898,36.682129,408.813477,0,0
14479,2024 10 17,09:02:00.645,-0.368594,0.578762,0.329361,0.64861,-2.406323,-0.064455,0.595721,-157.531738,18.493652,408.02002,0,0
14480,2024 10 17,09:02:00.653,-0.337705,0.572672,0.341327,0.664453,-2.479079,-0.280282,0.667501,-147.399902,10.498047,396.789551,0,0
14481,2024 10 17,09:02:00.661,-0.307889,0.565523,0.352709,0.678959,-2.459059,-0.495621,0.732933,-134.70459,4.760742,386.657715,0,0
14482,2024 10 17,09:02:00.670,-0.307889,0.565523,0.352709,0.678959,-2.459059,-0.495621,0.732933,-134.70459,4.760742,386.657715,0,0
14483,2024 10 17,09:02:00.678,-0.278857,0.557431,0.364067,0.692073,-2.383862,-0.718772,0.809107,-121.09375,4.211426,382.8125,0,0
14484,2024 10 17,09:02:00.686,-0.250415,0.548652,0.375562,0.703723,-2.265206,-0.934599,0.868191,-108.581543,6.286621,378.295898,0,0
14485,2024 10 17,09:02:00.695,-0.222763,0.53986,0.387106,0.713495,-2.093814,-1.059114,0.910184,-94.604492,17.883301,366.516113,0,0
14486,2024 10 17,09:02:00.703,-0.195863,0.532031,0.398779,0.720803,-2.06061,-1.105502,0.960967,-81.115723,39.001465,350.524902,0,0
14487,2024 10 17,09:02:00.711,-0.17012,0.525229,0.410086,0.725964,-1.998596,-1.265175,1.016633,-70.678711,52.55127,328.186035,0,0
14488,2024 10 17,09:02:00.720,-0.17012,0.525229,0.410086,0.725964,-1.998596,-1.265175,1.016633,-70.678711,52.55127,328.186035,0,0
14489,2024 10 17,09:02:00.728,-0.14601,0.51987,0.420795,0.728937,-1.892148,-1.518113,1.041047,-57.739258,70.617676,299.804688,0,0
14490,2024 10 17,09:02:00.736,-0.123671,0.516512,0.431042,0.729468,-1.721244,-1.730033,0.967803,-42.419434,93.994141,269.714355,0,0
14491,2024 10 17,09:02:00.745,-0.102807,0.515585,0.440997,0.727409,-1.353557,-1.754448,0.660665,-26.489258,124.694824,239.990234,0,0
14492,2024 10 17,09:02:00.753,-0.083012,0.517895,0.450061,0.72273,-1.374554,-2.069887,0.187017,-20.629883,166.931152,204.467773,0,0
14493,2024 10 17,09:02:00.761,-0.064048,0.524441,0.457698,0.715103,-2.181707,-2.276925,-0.273446,-13.977051,212.219238,165.100098,0,0
14494,2024 10 17,09:02:00.770,-0.064048,0.524441,0.457698,0.715103,-2.181707,-2.276925,-0.273446,-13.977051,212.219238,165.100098,0,0
14495,2024 10 17,09:02:00.778,-0.048833,0.531579,0.462356,0.708002,-2.637776,-2.623615,-0.512711,-21.66748,169.616699,115.234375,0,0
14496,2024 10 17,09:02:00.786,-0.039662,0.535772,0.463955,0.704359,-2.389233,-2.95175,-0.440443,-24.841309,87.219238,69.152832,0,0
14497,2024 10 17,09:02:00.795,-0.03604,0.537537,0.463426,0.703556,-1.959044,-2.91464,-0.350108,-20.446777,28.076172,25.695801,0,0
14498,2024 10 17,09:02:00.803,-0.036646,0.539018,0.461239,0.703829,-1.664113,-2.456618,-0.207038,-14.465332,2.807617,-18.554688,0,0
14499,2024 10 17,09:02:00.811,-0.045088,0.549541,0.45825,0.697122,-6.795617,-2.526444,-2.398999,134.033203,169.433594,-223.510742,0,0
14500,2024 10 17,09:02:00.820,-0.045088,0.549541,0.45825,0.697122,-6.795618,-2.526444,-2.398999,134.033203,169.433594,-223.510742,0,0
14501,2024 10 17,09:02:00.828,-0.071817,0.56186,0.443527,0.694579,0.752464,0.254891,1.228553,66.101074,-146.118164,-344.604492,0,0
14502,2024 10 17,09:02:00.836,-0.092095,0.572728,0.426942,0.693701,0.901883,1.642628,-0.908231,11.535645,41.320801,-324.584961,0,0
14503,2024 10 17,09:02:00.845,-0.098655,0.595615,0.409101,0.684213,0.130375,1.007843,1.125034,-109.008789,254.699707,-302.490234,0,0
14504,2024 10 17,09:02:00.853,-0.097744,0.632978,0.388471,0.662476,-3.475204,-0.384777,0.873562,-124.206543,436.889648,-346.191406,0,0
14505,2024 10 17,09:02:00.861,-0.106404,0.656088,0.363036,0.653018,-3.958129,-0.487808,-0.458022,-105.407715,47.363281,-350.769043,1,0
14506,2024 10 17,09:02:00.870,-0.123812,0.655146,0.336931,0.664779,-1.90289,-0.464858,-0.294443,-102.233887,-232.421875,-277.709961,0,0
14507,2024 10 17,09:02:00.878,-0.123812,0.655146,0.336931,0.664779,-1.90289,-0.464858,-0.294443,-102.233887,-232.421875,-277.709961,0,0
14508,2024 10 17,09:02:00.886,-0.137741,0.65282,0.318068,0.673562,-1.496139,-0.34962,-0.359874,-47.851563,-124.389648,-201.904297,0,0
14509,2024 10 17,09:02:00.895,-0.149785,0.652175,0.307116,0.676692,-1.59917,0.063967,-0.02588,3.356934,-88.500977,-157.348633,0,0
14510,2024 10 17,09:02:00.903,-0.159229,0.649679,0.298245,0.680892,-1.216834,0.159673,0.890652,-19.348145,-96.130371,-111.206055,0,0
14511,2024 10 17,09:02:00.911,-0.163686,0.649228,0.291029,0.683383,-1.242714,0.073733,0.093265,-33.325195,-46.020508,-73.669434,0,0
14512,2024 10 17,09:02:00.920,-0.166908,0.64748,0.284644,0.686942,-0.960967,-0.022462,-0.023438,-32.775879,-69.091797,-55.603027,0,0
14513,2024 10 17,09:02:00.928,-0.166908,0.64748,0.284644,0.686942,-0.960967,-0.022462,-0.023438,-32.775879,-69.091797,-55.603027,0,0
14514,2024 10 17,09:02:00.936,-0.170001,0.645626,0.280037,0.689816,-0.820826,0.137211,0.145024,-14.709473,-44.433594,-42.480469,0,0
14515,2024 10 17,09:02:00.945,-0.170985,0.645823,0.27707,0.690585,-1.137242,0.188971,0.138676,-22.460938,-8.789063,-24.414063,0,0
14516,2024 10 17,09:02:00.953,-0.171164,0.644647,0.273628,0.693009,-1.083041,0.138188,-0.030274,-33.813477,-47.790527,-17.211914,0,0
14517,2024 10 17,09:02:00.961,-0.171918,0.641797,0.270018,0.696873,-0.797388,0.140141,0.006348,-26.733398,-57.128906,-15.197754,0,0
14518,2024 10 17,09:02:00.970,-0.172068,0.640777,0.267807,0.698625,-0.941435,0.132328,-0.062502,-17.883301,-16.845703,-9.70459,0,0
14519,2024 10 17,09:02:00.978,-0.172068,0.640777,0.267807,0.698625,-0.941435,0.132328,-0.062502,-17.883301,-16.845703,-9.70459,0,0
14520,2024 10 17,09:02:00.986,-0.172437,0.64011,0.266335,0.699707,-1.035188,0.251473,0.025391,-9.70459,-20.812988,-10.375977,0,0
14521,2024 10 17,09:02:00.995,-0.173118,0.638747,0.264458,0.701495,-0.974639,0.224128,0.013184,-13.61084,-31.616211,-12.512207,0,0
14522,2024 10 17,09:02:01.003,-0.173908,0.637326,0.262456,0.703341,-0.892605,0.169439,-0.10303,-11.84082,-30.944824,-13.73291,0,0
14523,2024 10 17,09:02:01.011,-0.175078,0.636315,0.260812,0.704576,-0.891629,0.227058,-0.04004,-5.249023,-20.080566,-16.906738,0,0
14524,2024 10 17,09:02:01.020,-0.176199,0.636014,0.259347,0.705109,-0.964873,0.185553,-0.098148,-4.577637,-11.901855,-18.554688,0,0
14525,2024 10 17,09:02:01.028,-0.176199,0.636014,0.259347,0.705109,-0.964873,0.185553,-0.098148,-4.577637,-11.901855,-18.554688,0,0
14526,2024 10 17,09:02:01.036,-0.177668,0.635518,0.257884,0.705724,-0.907254,0.197272,-0.047365,-0.366211,-15.686035,-20.629883,0,0
14527,2024 10 17,09:02:01.045,-0.179319,0.635442,0.25672,0.705799,-0.952178,0.173833,-0.052736,3.112793,-6.103516,-22.033691,0,0
14528,2024 10 17,09:02:01.053,-0.181209,0.635413,0.255749,0.705696,-0.951201,0.173833,-0.069338,7.141113,-8.361816,-22.827148,0,0
14529,2024 10 17,09:02:01.061,-0.18324,0.635099,0.254865,0.705773,-0.875515,0.155766,-0.079592,8.239746,-10.375977,-21.66748,0,0
14530,2024 10 17,09:02:01.070,-0.185073,0.635168,0.254354,0.705417,-0.911649,0.165044,-0.065432,10.498047,-0.366211,-18.920898,0,0
14531,2024 10 17,09:02:01.078,-0.185073,0.635168,0.254354,0.705417,-0.911649,0.165044,-0.065432,10.498047,-0.366211,-18.920898,0,0
14532,2024 10 17,09:02:01.086,-0.186707,0.635433,0.254081,0.704846,-0.960967,0.187017,-0.027833,10.681152,0.305176,-17.089844,0,0
14533,2024 10 17,09:02:01.095,-0.188259,0.635379,0.253632,0.704644,-0.938017,0.176763,-0.061037,7.263184,-6.286621,-16.113281,0,0
14534,2024 10 17,09:02:01.103,-0.189646,0.635183,0.253094,0.704642,-0.897,0.167974,-0.059572,6.04248,-5.67627,-14.404297,0,0
14535,2024 10 17,09:02:01.111,-0.19082,0.635326,0.252728,0.704328,-0.942412,0.169927,-0.030274,6.04248,0.488281,-13.427734,0,0
14536,2024 10 17,09:02:01.120,-0.19197,0.635397,0.25231,0.704101,-0.947295,0.167974,-0.067873,5.065918,-3.78418,-13.305664,0,0
14537,2024 10 17,09:02:01.128,-0.19197,0.635397,0.25231,0.704101,-0.947295,0.167974,-0.067873,5.065918,-3.78418,-13.305664,0,0
14538,2024 10 17,09:02:01.136,-0.193234,0.635259,0.251788,0.704066,-0.907254,0.190924,-0.04297,5.371094,-4.882813,-14.221191,0,0
14539,2024 10 17,09:02:01.145,-0.194326,0.63545,0.25124,0.703789,-0.904813,0.179205,-0.125492,2.990723,-0.0,-14.526367,0,0
14540,2024 10 17,09:02:01.153,-0.195249,0.635809,0.250563,0.703451,-0.905301,0.164068,-0.055177,0.915527,2.868652,-14.404297,0,0
14541,2024 10 17,09:02:01.161,-0.195991,0.636525,0.249989,0.702801,-0.964385,0.165532,-0.043458,0.854492,7.69043,-14.099121,0,0
14542,2024 10 17,09:02:01.170,-0.196699,0.637044,0.249294,0.70238,-0.948759,0.139164,-0.034181,-0.854492,2.197266,-13.427734,0,0
14543,2024 10 17,09:02:01.178,-0.196699,0.637044,0.249294,0.70238,-0.948759,0.139164,-0.034181,-0.854492,2.197266,-13.427734,0,0
14544,2024 10 17,09:02:01.186,-0.197437,0.637418,0.248626,0.702069,-0.947783,0.140629,-0.017579,0.0,1.89209,-12.512207,0,0
14545,2024 10 17,09:02:01.195,-0.198143,0.637752,0.248051,0.701771,-0.95999,0.144047,-0.01709,0.793457,0.793457,-11.413574,0,0
14546,2024 10 17,09:02:01.203,-0.198899,0.637799,0.247466,0.701721,-0.947783,0.157231,-0.051759,0.732422,-3.90625,-10.864258,0,0
14547,2024 10 17,09:02:01.211,-0.199544,0.637796,0.246833,0.701763,-0.912625,0.145024,-0.078616,-0.549316,-3.051758,-9.82666,0,0
14548,2024 10 17,09:02:01.220,-0.200105,0.637813,0.246187,0.701815,-0.884793,0.158696,-0.120121,-1.953125,-2.990723,-9.399414,0,0
14549,2024 10 17,09:02:01.228,-0.200105,0.637813,0.246187,0.701815,-0.884793,0.158696,-0.120121,-1.953125,-2.990723,-9.399414,0,0
14550,2024 10 17,09:02:01.236,-0.20048,0.638169,0.245576,0.701599,-0.905301,0.169439,-0.077639,-2.13623,5.126953,-9.58252,0,0
14551,2024 10 17,09:02:01.245,-0.200662,0.639034,0.245011,0.700957,-0.974639,0.149419,-0.038575,-3.845215,10.620117,-10.070801,0,0
14552,2024 10 17,09:02:01.253,-0.200944,0.639836,0.244355,0.700373,-0.981475,0.155766,-0.02295,-3.417969,7.446289,-11.291504,0,0
14553,2024 10 17,09:02:01.261,-0.201334,0.640591,0.243605,0.699832,-0.972198,0.159673,-0.024415,-3.479004,7.446289,-12.634277,0,0
14554,2024 10 17,09:02:01.270,-0.201768,0.64145,0.242802,0.699199,-0.981475,0.156255,-0.014649,-3.479004,8.544922,-13.85498,0,0
14555,2024 10 17,09:02:01.278,-0.202241,0.642372,0.241891,0.698531,-1.009308,0.159673,-0.015625,-4.821777,8.544922,-15.197754,0,0
14556,2024 10 17,09:02:01.286,-0.202241,0.642372,0.241891,0.698531,-1.009308,0.159673,-0.015625,-4.821777,8.544922,-15.197754,0,0
14557,2024 10 17,09:02:01.295,-0.202839,0.643204,0.240783,0.697975,-1.009308,0.156743,0.009766,-5.004883,5.432129,-17.51709,0,0
14558,2024 10 17,09:02:01.303,-0.203614,0.644027,0.239497,0.697432,-1.004913,0.143559,-0.036134,-4.577637,5.126953,-20.690918,0,0
14559,2024 10 17,09:02:01.311,-0.204775,0.644851,0.238074,0.696818,-1.036653,0.159673,-0.0,-2.990723,4.333496,-24.841309,0,0
14560,2024 10 17,09:02:01.320,-0.206275,0.645689,0.236429,0.69616,-1.008332,0.161626,-0.055177,-2.197266,2.746582,-29.785156,0,0
14561,2024 10 17,09:02:01.328,-0.208124,0.646604,0.234529,0.695402,-1.014679,0.170904,-0.053224,-0.854492,4.394531,-35.095215,0,0
14562,2024 10 17,09:02:01.336,-0.208124,0.646604,0.234529,0.695402,-1.014679,0.170904,-0.053224,-0.854492,4.394531,-35.095215,0,0
14563,2024 10 17,09:02:01.345,-0.210415,0.647835,0.232472,0.694257,-1.064974,0.176275,-0.053224,1.403809,8.117676,-42.114258,0,0
14564,2024 10 17,09:02:01.353,-0.213325,0.64917,0.230051,0.692927,-1.0889,0.18067,-0.105472,2.624512,6.225586,-50.842285,0,0
14565,2024 10 17,09:02:01.361,-0.216973,0.650476,0.227111,0.691538,-1.087435,0.188482,-0.06885,4.882813,3.90625,-61.096191,0,0
14566,2024 10 17,09:02:01.370,-0.221269,0.652105,0.223722,0.689745,-1.142613,0.203619,-0.113285,5.859375,7.873535,-71.716309,0,0
14567,2024 10 17,09:02:01.378,-0.226313,0.653956,0.219667,0.687656,-1.209998,0.198737,-0.052248,6.286621,7.019043,-84.472656,0,0
14568,2024 10 17,09:02:01.386,-0.226313,0.653956,0.219667,0.687656,-1.209998,0.198737,-0.052248,6.286621,7.019043,-84.472656,0,0
14569,2024 10 17,09:02:01.395,-0.232008,0.655942,0.214832,0.68539,-1.25248,0.182623,0.033204,4.089355,4.882813,-95.581055,0,0
14570,2024 10 17,09:02:01.403,-0.238166,0.657754,0.208993,0.683343,-1.375042,0.215339,0.039064,-0.488281,-4.150391,-105.895996,0,0
14571,2024 10 17,09:02:01.411,-0.245314,0.659304,0.201927,0.681444,-1.515671,0.282235,0.008301,-0.793457,-12.145996,-125.305176,0,0
14572,2024 10 17,09:02:01.420,-0.254343,0.660769,0.193415,0.679179,-1.643605,0.324717,0.038575,4.333496,-18.432617,-154.23584,0,0
14573,2024 10 17,09:02:01.428,-0.265742,0.662052,0.183185,0.676396,-1.817927,0.424329,0.118656,11.047363,-26.794434,-188.659668,0,0
14574,2024 10 17,09:02:01.436,-0.265742,0.662052,0.183185,0.676396,-1.817927,0.424329,0.118656,11.047363,-26.794434,-188.659668,0,0
14575,2024 10 17,09:02:01.445,-0.27964,0.662902,0.170619,0.67324,-2.154851,0.560076,0.147465,11.962891,-43.395996,-228.637695,0,0
14576,2024 10 17,09:02:01.453,-0.296282,0.662797,0.154617,0.670082,-2.508377,0.74514,0.287606,6.958008,-69.458008,-277.34375,0,0
14577,2024 10 17,09:02:01.461,-0.315514,0.661698,0.134178,0.666786,-2.819422,0.89993,0.165532,-2.075195,-96.008301,-334.289551,0,0
14578,2024 10 17,09:02:01.470,-0.337442,0.658785,0.108552,0.66359,-3.170507,0.817896,0.293466,-20.996094,-137.817383,-391.479492,0,0
14579,2024 10 17,09:02:01.478,-0.361601,0.653498,0.077736,0.66041,-3.161718,0.878445,0.167486,-30.334473,-180.969238,-444.213867,0,0
14580,2024 10 17,09:02:01.486,-0.361601,0.653498,0.077736,0.66041,-3.161718,0.878445,0.167486,-30.334473,-180.969238,-444.213867,0,0
14581,2024 10 17,09:02:01.495,-0.385614,0.645141,0.041805,0.658291,-2.767663,0.484878,-0.078616,-65.307617,-230.834961,-467.285156,0,0
14582,2024 10 17,09:02:01.503,-0.40954,0.635019,0.00398,0.65499,-2.141667,-0.097659,0.082522,-63.720703,-230.224609,-480.163574,0,1
14583,2024 10 17,09:02:01.511,-0.43352,0.625897,-0.030293,0.647608,-2.621174,0.059572,0.292489,-27.404785,-165.771484,-464.172363,0,0
14584,2024 10 17,09:02:01.520,-0.454831,0.61437,-0.063748,0.641572,-2.626545,0.009278,0.400403,-43.884277,-223.937988,-434.936523,0,0
14585,2024 10 17,09:02:01.528,-0.474513,0.599532,-0.097329,0.637123,-2.001526,0.518082,0.640156,-28.198242,-241.943359,-419.98291,0,0
14586,2024 10 17,09:02:01.536,-0.474513,0.599532,-0.097329,0.637123,-2.001526,0.518082,0.640156,-28.198242,-241.943359,-419.98291,0,0
14587,2024 10 17,09:02:01.545,-0.492816,0.584395,-0.128482,0.631749,-1.928282,1.061068,0.69631,-22.399902,-224.42627,-398.803711,0,0
14588,2024 10 17,09:02:01.553,-0.509575,0.568176,-0.158096,0.62651,-1.815485,1.611866,1.000031,-15.258789,-234.741211,-380.065918,0,0
14589,2024 10 17,09:02:01.561,-0.524012,0.550101,-0.187643,0.622567,-1.846248,1.800836,1.302774,-19.836426,-265.441895,-360.107422,0,0
14590,2024 10 17,09:02:01.570,-0.5352,0.528654,-0.220419,0.620887,-0.30372,0.869167,0.80813,-46.691895,-349.060059,-351.013184,0,0
14591,2024 10 17,09:02:01.578,-0.534244,0.506265,-0.25317,0.627841,2.715415,0.911161,1.312052,-93.505859,-407.897949,-137.695313,0,0
14592,2024 10 17,09:02:01.586,-0.534244,0.506265,-0.25317,0.627841,2.715415,0.911161,1.312052,-93.505859,-407.897949,-137.695313,0,0
14593,2024 10 17,09:02:01.595,-0.521958,0.498727,-0.269958,0.637146,0.880398,0.782739,0.369152,-108.642578,-170.043945,81.054688,0,0
14594,2024 10 17,09:02:01.603,-0.506237,0.499794,-0.272822,0.647687,-0.258797,0.479507,0.859401,-83.618164,-127.13623,189.331055,0,0
14595,2024 10 17,09:02:01.611,-0.486836,0.504216,-0.271003,0.659783,-0.401379,0.54445,0.737815,-77.270508,-65.368652,247.436523,0,0
14596,2024 10 17,09:02:01.620,-0.467096,0.510437,-0.265606,0.671363,-0.460952,0.453627,0.846217,-68.481445,-57.800293,263.793945,0,0
14597,2024 10 17,09:02:01.628,-0.447229,0.516704,-0.259071,0.682558,-0.58742,0.285653,0.759301,-59.265137,-38.513184,267.39502,0,0
14598,2024 10 17,09:02:01.636,-0.447229,0.516704,-0.259071,0.682558,-0.58742,0.285653,0.759301,-59.265137,-38.513184,267.39502,0,0
14599,2024 10 17,09:02:01.645,-0.427904,0.52243,-0.251751,0.693244,-0.723167,0.235359,0.780297,-50.109863,-45.532227,260.742188,0,0
14600,2024 10 17,09:02:01.653,-0.408929,0.526737,-0.244549,0.703933,-0.697287,0.21778,0.737815,-42.114258,-54.443359,253.78418,0,0
14601,2024 10 17,09:02:01.661,-0.3896,0.529833,-0.237491,0.714904,-0.681661,0.248054,0.759301,-40.649414,-70.007324,256.103516,0,0
14602,2024 10 17,09:02:01.670,-0.369164,0.531895,-0.230623,0.726374,-0.677755,0.264657,0.733909,-44.677734,-84.350586,265.319824,0,0
14603,2024 10 17,09:02:01.678,-0.347044,0.533471,-0.223693,0.738195,-0.698752,0.281259,0.718772,-52.91748,-94.299316,281.677246,0,0
14604,2024 10 17,09:02:01.686,-0.322579,0.534806,-0.216577,0.750346,-0.620624,0.268075,0.774926,-64.697266,-102.661133,305.175781,0,0
14605,2024 10 17,09:02:01.695,-0.322579,0.534806,-0.216577,0.750346,-0.620624,0.268075,0.774926,-64.697266,-102.661133,305.175781,0,0
14606,2024 10 17,09:02:01.703,-0.295631,0.536724,-0.208711,0.762214,-0.595721,0.248054,0.796411,-75.622559,-95.153809,332.336426,0,0
14607,2024 10 17,09:02:01.711,-0.266644,0.539839,-0.199874,0.772997,-0.669942,0.187994,0.814966,-85.327148,-77.819824,353.33252,0,0
14608,2024 10 17,09:02:01.720,-0.236339,0.544298,-0.190192,0.78212,-0.798364,0.119633,0.868679,-94.543457,-55.725098,366.699219,0,0
14609,2024 10 17,09:02:01.728,-0.205201,0.549894,-0.180053,0.789361,-0.9429,0.080081,0.845241,-102.355957,-35.827637,372.314453,0,0
14610,2024 10 17,09:02:01.736,-0.173504,0.556323,-0.169894,0.794693,-1.090365,0.089846,0.886746,-111.938477,-17.578125,373.962402,0,0
14611,2024 10 17,09:02:01.745,-0.173504,0.556323,-0.169894,0.794693,-1.090365,0.089846,0.886746,-111.938477,-17.578125,373.962402,0,0
14612,2024 10 17,09:02:01.753,-0.14113,0.563349,-0.160221,0.798154,-1.263222,0.101077,0.875515,-127.380371,-5.310059,373.840332,0,0
14613,2024 10 17,09:02:01.761,-0.108026,0.5705,-0.151482,0.799946,-1.413129,0.101077,0.836451,-145.324707,3.112793,371.398926,0,0
14614,2024 10 17,09:02:01.770,-0.074205,0.577616,-0.143942,0.800084,-1.540086,0.081545,0.882351,-164.18457,10.620117,367.736816,0,0
14615,2024 10 17,09:02:01.778,-0.03981,0.584629,-0.137705,0.798537,-1.670949,0.041993,0.940458,-182.312012,18.066406,362.792969,0,0
14616,2024 10 17,09:02:01.786,-0.005058,0.591294,-0.132712,0.795446,-1.752007,-0.02295,1.045442,-197.021484,23.681641,356.689453,0,0
14617,2024 10 17,09:02:01.795,-0.005058,0.591294,-0.132712,0.795446,-1.752007,-0.02295,1.045442,-197.021484,23.681641,356.689453,0,0
14618,2024 10 17,09:02:01.803,0.029702,0.59777,-0.128638,0.790722,-1.835505,-0.08594,1.116733,-207.214355,32.714844,351.135254,0,0
14619,2024 10 17,09:02:01.811,0.064249,0.604123,-0.125163,0.784374,-1.943907,-0.154302,1.192419,-212.402344,43.823242,346.374512,0,0
14620,2024 10 17,09:02:01.820,0.098383,0.610419,-0.122024,0.776414,-2.024476,-0.219245,1.250526,-214.416504,54.016113,342.468262,0,0
14621,2024 10 17,09:02:01.828,0.131961,0.616736,-0.119021,0.766848,-2.065004,-0.298837,1.276406,-213.439941,67.443848,339.538574,0,0
14622,2024 10 17,09:02:01.836,0.16486,0.623127,-0.116035,0.755691,-2.093326,-0.386242,1.340861,-210.449219,79.650879,336.853027,0,0
14623,2024 10 17,09:02:01.845,0.16486,0.623127,-0.116035,0.755691,-2.093326,-0.386242,1.340861,-210.449219,79.650879,336.853027,0,0
14624,2024 10 17,09:02:01.853,0.196787,0.62964,-0.113111,0.74299,-2.128483,-0.502945,1.357463,-205.993652,93.139648,331.176758,0,0
14625,2024 10 17,09:02:01.861,0.227195,0.636218,-0.110407,0.728985,-2.112857,-0.61916,1.378948,-197.509766,105.773926,319.152832,0,0
14626,2024 10 17,09:02:01.870,0.255504,0.643229,-0.108073,0.713649,-2.134342,-0.728538,1.36137,-185.302734,124.511719,303.588867,0,0
14627,2024 10 17,09:02:01.878,0.281629,0.650879,-0.105994,0.696998,-2.206122,-0.819849,1.311563,-170.898438,142.089844,290.466309,0,0
14628,2024 10 17,09:02:01.886,0.305862,0.658702,-0.103923,0.67953,-2.222724,-0.952178,1.270547,-158.325195,149.963379,279.47998,0,0
14629,2024 10 17,09:02:01.895,0.305862,0.658702,-0.103923,0.67953,-2.222724,-0.952178,1.270547,-158.325195,149.963379,279.47998,0,0
14630,2024 10 17,09:02:01.903,0.328185,0.666199,-0.101921,0.66188,-2.082095,-1.173864,1.170934,-145.935059,150.20752,263.977051,0,0
14631,2024 10 17,09:02:01.911,0.347979,0.673706,-0.100313,0.64418,-1.706595,-1.469283,0.968291,-127.502441,159.912109,241.516113,0,0
14632,2024 10 17,09:02:01.920,0.364322,0.682651,-0.099715,0.625551,-1.151402,-1.606006,0.546892,-103.33252,195.739746,213.989258,0,0
14633,2024 10 17,09:02:01.928,0.37648,0.695144,-0.101378,0.603954,-1.389203,-1.727592,-0.090335,-75.98877,266.723633,180.541992,0,0
14634,2024 10 17,09:02:01.936,0.38517,0.709655,-0.105532,0.580428,-2.627033,-2.138249,-0.375011,-53.833008,302.67334,151.123047,0,0
14635,2024 10 17,09:02:01.945,0.38517,0.709655,-0.105532,0.580428,-2.627033,-2.138249,-0.375011,-53.833008,302.67334,151.123047,0,0
14636,2024 10 17,09:02:01.953,0.391458,0.721851,-0.110018,0.559989,-3.243263,-2.541581,-0.988311,-52.001953,236.14502,119.567871,0,0
14637,2024 10 17,09:02:01.961,0.397562,0.725297,-0.111301,0.550909,-2.662679,-3.1124,-0.61916,-54.260254,55.114746,85.876465,0,0
14638,2024 10 17,09:02:01.970,0.402091,0.72302,-0.110088,0.550859,-1.641163,-3.268654,-0.27784,-33.508301,-36.499023,46.875,0,0
14639,2024 10 17,09:02:01.978,0.402576,0.720629,-0.109286,0.55379,-1.116245,-2.678304,0.026856,1.464844,-39.123535,0.305176,0,0
14640,2024 10 17,09:02:01.986,0.399535,0.719883,-0.110448,0.556723,-1.001984,-1.919004,0.145512,20.263672,-13.305664,-36.621094,0,0
14641,2024 10 17,09:02:01.995,0.399535,0.719883,-0.110448,0.556723,-1.001984,-1.919004,0.145512,20.263672,-13.305664,-36.621094,0,0
14642,2024 10 17,09:02:02.003,0.388859,0.723758,-0.117388,0.557838,-3.622669,-0.842311,-2.079653,99.304199,126.77002,-183.959961,0,0
14643,2024 10 17,09:02:02.011,0.375912,0.721453,-0.12937,0.566974,-0.995148,-0.620624,-0.04004,15.74707,-47.668457,-237.548828,0,0
14644,2024 10 17,09:02:02.020,0.364815,0.71423,-0.148857,0.57847,-0.059084,-0.542009,-1.155309,-58.227539,-42.419434,-297.729492,0,0
14645,2024 10 17,09:02:02.028,0.352901,0.708201,-0.171502,0.58694,-1.032746,1.006378,1.429731,-47.729492,50.048828,-320.495605,1,0
14646,2024 10 17,09:02:02.036,0.34472,0.704217,-0.200257,0.58749,-3.325297,-0.035646,-1.244179,-177.91748,69.335938,-292.114258,0,0
14647,2024 10 17,09:02:02.045,0.34472,0.704217,-0.200257,0.58749,-3.325297,-0.035646,-1.244179,-177.91748,69.335938,-292.114258,0,0
14648,2024 10 17,09:02:02.053,0.344365,0.686303,-0.222499,0.600744,-2.892178,-0.633808,-0.929716,-174.804688,-203.735352,-261.657715,0,0
14649,2024 10 17,09:02:02.061,0.347106,0.660872,-0.233403,0.623128,-0.60744,-1.168004,-0.293954,-111.694336,-312.744141,-194.152832,0,0
14650,2024 10 17,09:02:02.070,0.341996,0.653268,-0.237778,0.632251,-1.022004,-0.317881,0.466811,32.714844,-14.160156,-98.510742,0,0
14651,2024 10 17,09:02:02.078,0.337827,0.654047,-0.240945,0.632488,-1.634327,0.331065,0.555681,-17.333984,7.446289,-36.743164,0,0
14652,2024 10 17,09:02:02.086,0.34186,0.649106,-0.243992,0.63424,-1.213416,0.121097,0.144536,-72.32666,-65.612793,-11.962891,0,0
14653,2024 10 17,09:02:02.095,0.345142,0.64224,-0.245449,0.638874,-0.637715,-0.036134,-0.21778,-35.644531,-88.378906,-28.503418,0,0
14654,2024 10 17,09:02:02.103,0.345142,0.64224,-0.245449,0.638874,-0.637715,-0.036134,-0.21778,-35.644531,-88.378906,-28.503418,0,0
14655,2024 10 17,09:02:02.111,0.345399,0.638398,-0.246196,0.642289,-0.786157,0.12598,-0.040529,-12.878418,-35.522461,-23.925781,0,0
14656,2024 10 17,09:02:02.120,0.346702,0.636355,-0.247424,0.643142,-1.006867,-0.006348,-0.140629,-25.085449,-20.751953,-5.249023,0,0
14657,2024 10 17,09:02:02.128,0.347827,0.634143,-0.247384,0.644733,-0.987823,0.211432,0.036134,-9.82666,-33.02002,-3.540039,0,0
14658,2024 10 17,09:02:02.136,0.349267,0.631813,-0.247323,0.646263,-0.913114,0.147465,-0.192389,-16.906738,-33.203125,-1.647949,0,0
14659,2024 10 17,09:02:02.145,0.35037,0.629723,-0.247121,0.647781,-0.693869,0.237312,-0.181646,-5.737305,-24.536133,-3.356934,0,0
14660,2024 10 17,09:02:02.153,0.35037,0.629723,-0.247121,0.647781,-0.693869,0.237312,-0.181646,-5.737305,-24.536133,-3.356934,0,0
14661,2024 10 17,09:02:02.161,0.350543,0.629976,-0.247901,0.647144,-1.033723,0.146001,-0.074709,-8.666992,19.226074,-1.342773,0,0
14662,2024 10 17,09:02:02.170,0.350602,0.629895,-0.248541,0.646945,-1.046419,0.205573,0.001465,-7.263184,-6.652832,-4.455566,0,0
14663,2024 10 17,09:02:02.178,0.350995,0.62886,-0.248846,0.647621,-0.909696,0.144536,-0.06006,-5.310059,-10.314941,-5.615234,0,0
14664,2024 10 17,09:02:02.186,0.35067,0.628684,-0.249157,0.647849,-1.00589,0.180181,-0.030274,0.732422,0.915527,-6.469727,0,0
14665,2024 10 17,09:02:02.195,0.350237,0.628295,-0.249329,0.648394,-0.96585,0.186041,-0.049806,1.586914,-8.056641,-8.605957,0,0
14666,2024 10 17,09:02:02.203,0.350237,0.628295,-0.249329,0.648394,-0.96585,0.186041,-0.049806,1.586914,-8.056641,-8.605957,0,0
14667,2024 10 17,09:02:02.211,0.349701,0.627751,-0.249449,0.649163,-0.927274,0.191412,-0.051271,3.479004,-6.04248,-10.192871,0,0
14668,2024 10 17,09:02:02.220,0.34883,0.627591,-0.249699,0.64969,-0.963897,0.192389,-0.092288,5.615234,-1.647949,-11.71875,0,0
14669,2024 10 17,09:02:02.228,0.347897,0.627262,-0.249929,0.65042,-0.930692,0.187994,-0.067873,5.79834,-4.211426,-13.061523,0,0
14670,2024 10 17,09:02:02.236,0.346848,0.627083,-0.250263,0.651023,-0.925321,0.159673,-0.074709,6.225586,-0.244141,-13.61084,0,0
14671,2024 10 17,09:02:02.245,0.34561,0.627112,-0.250575,0.651534,-0.935575,0.162603,-0.064943,8.666992,1.525879,-13.85498,0,0
14672,2024 10 17,09:02:02.253,0.34561,0.627112,-0.250575,0.651534,-0.935575,0.162603,-0.064943,8.666992,1.525879,-13.85498,0,0
14673,2024 10 17,09:02:02.261,0.344258,0.627191,-0.250794,0.65209,-0.941435,0.161626,-0.067385,9.887695,1.098633,-13.977051,0,0
14674,2024 10 17,09:02:02.270,0.342891,0.627243,-0.250945,0.652701,-0.927274,0.161626,-0.066408,10.864258,0.549316,-13.85498,0,0
14675,2024 10 17,09:02:02.278,0.341516,0.627326,-0.251047,0.653302,-0.930204,0.17188,-0.083987,11.108398,0.671387,-13.305664,0,0
14676,2024 10 17,09:02:02.286,0.340241,0.627377,-0.251177,0.653868,-0.92288,0.16895,-0.057619,9.338379,0.610352,-12.756348,0,0
14677,2024 10 17,09:02:02.295,0.339079,0.627441,-0.251412,0.65432,-0.939482,0.160649,-0.043947,7.629395,1.586914,-12.268066,0,0
14678,2024 10 17,09:02:02.303,0.339079,0.627441,-0.251412,0.65432,-0.939482,0.160649,-0.043947,7.629395,1.586914,-12.268066,0,0
14679,2024 10 17,09:02:02.311,0.337999,0.627444,-0.251653,0.654784,-0.9429,0.170415,-0.066897,6.958008,-0.061035,-11.962891,0,0
14680,2024 10 17,09:02:02.320,0.33705,0.627305,-0.251923,0.655302,-0.935575,0.173833,-0.038087,5.249023,-0.976563,-11.71875,0,0
14681,2024 10 17,09:02:02.328,0.33625,0.627142,-0.252312,0.65572,-0.934111,0.168462,-0.089846,2.563477,-0.671387,-11.169434,0,0
14682,2024 10 17,09:02:02.336,0.335751,0.62678,-0.252802,0.656133,-0.927274,0.150395,-0.062502,-1.159668,-2.319336,-9.94873,0,0
14683,2024 10 17,09:02:02.345,0.335369,0.626429,-0.253351,0.65645,-0.936552,0.160649,-0.059084,-2.380371,-2.075195,-9.155273,0,0
14684,2024 10 17,09:02:02.353,0.335369,0.626429,-0.253351,0.65645,-0.936552,0.160649,-0.059084,-2.380371,-2.075195,-9.155273,0,0
14685,2024 10 17,09:02:02.361,0.335263,0.625811,-0.253874,0.656892,-0.917508,0.136723,-0.102054,-4.455566,-6.408691,-8.178711,0,0
14686,2024 10 17,09:02:02.370,0.335193,0.625206,-0.254374,0.657311,-0.912625,0.146001,-0.066408,-4.760742,-4.272461,-7.629395,0,0
14687,2024 10 17,09:02:02.378,0.335063,0.624829,-0.254977,0.657502,-0.96292,0.148442,-0.055177,-4.211426,-1.098633,-7.507324,0,0
14688,2024 10 17,09:02:02.386,0.335004,0.624248,-0.25552,0.657872,-0.953642,0.139653,-0.070315,-5.126953,-6.408691,-7.8125,0,0
14689,2024 10 17,09:02:02.395,0.334965,0.623503,-0.256001,0.658412,-0.924345,0.169439,-0.083987,-4.760742,-7.202148,-8.483887,0,0
14690,2024 10 17,09:02:02.403,0.334965,0.623503,-0.256001,0.658412,-0.924345,0.169439,-0.083987,-4.760742,-7.202148,-8.483887,0,0
14691,2024 10 17,09:02:02.411,0.334934,0.622923,-0.256764,0.658679,-0.930204,0.163579,-0.079104,-7.873535,-2.01416,-8.911133,0,0
14692,2024 10 17,09:02:02.420,0.33491,0.622472,-0.257797,0.658714,-0.952178,0.159673,-0.074221,-9.887695,0.976563,-9.70459,0,0
14693,2024 10 17,09:02:02.428,0.334851,0.622004,-0.258994,0.658717,-0.954619,0.152837,-0.066897,-10.192871,1.525879,-11.169434,0,0
14694,2024 10 17,09:02:02.436,0.334589,0.621643,-0.260336,0.658662,-0.947295,0.163091,-0.098148,-9.82666,4.272461,-13.549805,0,0
14695,2024 10 17,09:02:02.445,0.334099,0.621378,-0.2619,0.658541,-0.986847,0.160161,-0.098148,-9.033203,7.507324,-16.662598,0,0
14696,2024 10 17,09:02:02.453,0.333019,0.621262,-0.263633,0.658506,-1.049348,0.190435,-0.083987,-9.033203,7.507324,-16.662598,0,0
14697,2024 10 17,09:02:02.461,0.333019,0.621262,-0.263633,0.658506,-1.049348,0.190435,-0.083987,-4.394531,10.070801,-23.010254,0,0
14698,2024 10 17,09:02:02.470,0.331225,0.621058,-0.265639,0.658796,-1.048372,0.17774,-0.101566,-1.220703,9.399414,-32.836914,0,0
