frame,date,time,quaternion_x,quaternion_y,quaternion_z,quaternion_w,accel_x,accel_y,accel_z,gyro_x,gyro_y,gyro_z,HS,TO
13781,2024 10 17,09:01:54.828,0.721647,0.35343,-0.549094,0.229801,-1.575732,0.252449,0.199713,-52.856445,-140.563965,319.702148,0,0
13782,2024 10 17,09:01:54.837,0.709661,0.337257,-0.568718,0.243308,-1.648,0.244636,0.216803,-50.90332,-140.441895,321.472168,0,0
13783,2024 10 17,09:01:54.845,0.696823,0.320926,-0.587863,0.256634,-1.744682,0.229011,0.211921,-48.950195,-143.432617,321.594238,0,0
13784,2024 10 17,09:01:54.853,0.696823,0.320926,-0.587863,0.256634,-1.744682,0.229011,0.211921,-48.950195,-143.432617,321.594238,0,0
13785,2024 10 17,09:01:54.862,0.683074,0.304559,-0.606555,0.269711,-1.863826,0.192877,0.222175,-46.081543,-146.728516,321.472168,0,0
13786,2024 10 17,09:01:54.870,0.668453,0.288119,-0.624706,0.282667,-1.993225,0.112308,0.244148,-42.602539,-148.803711,323.120117,0,0
13787,2024 10 17,09:01:54.878,0.653044,0.271562,-0.642157,0.295672,-2.131413,-0.026856,0.234382,-38.085938,-148.071289,325.805664,0,0
13788,2024 10 17,09:01:54.887,0.636978,0.255007,-0.658721,0.308733,-2.267159,-0.255379,0.21778,-32.775879,-146.118164,326.416016,0,0
13789,2024 10 17,09:01:54.895,0.620384,0.238718,-0.67434,0.321563,-2.391675,-0.589862,0.196295,-27.954102,-145.324707,322.875977,0,0
13790,2024 10 17,09:01:54.903,0.620384,0.238718,-0.67434,0.321563,-2.391675,-0.589862,0.196295,-27.954102,-145.324707,322.875977,0,0
13791,2024 10 17,09:01:54.912,0.60347,0.222915,-0.688962,0.333863,-2.473708,-1.006378,0.165532,-24.047852,-143.981934,315.490723,0,0
13792,2024 10 17,09:01:54.920,0.586443,0.207813,-0.702616,0.345294,-2.47615,-1.470748,0.146489,-22.949219,-143.676758,303.833008,0,0
13793,2024 10 17,09:01:54.928,0.569458,0.193796,-0.7155,0.355275,-2.337474,-1.876522,0.225105,-24.658203,-147.521973,283.569336,0,0
13794,2024 10 17,09:01:54.937,0.552467,0.182038,-0.727927,0.362994,-2.176824,-2.250069,0.453627,-25.939941,-162.658691,247.497559,0,0
13795,2024 10 17,09:01:54.945,0.535543,0.1738,-0.739977,0.367997,-2.064028,-2.608966,0.796411,-23.925781,-181.945801,199.279785,0,0
13796,2024 10 17,09:01:54.953,0.535543,0.1738,-0.739977,0.367997,-2.064028,-2.608966,0.796411,-23.925781,-181.945801,199.279785,0,0
13797,2024 10 17,09:01:54.962,0.518969,0.169423,-0.751471,0.370485,-1.971252,-2.856533,1.202185,-19.470215,-197.20459,150.45166,0,0
13798,2024 10 17,09:01:54.970,0.503519,0.16845,-0.761806,0.37114,-1.88287,-3.003998,1.580615,-11.59668,-196.350098,105.285645,0,0
13799,2024 10 17,09:01:54.978,0.49014,0.169926,-0.770347,0.370747,-2.107975,-3.160253,1.77398,-3.662109,-177.429199,68.237305,0,0
13800,2024 10 17,09:01:54.987,0.48056,0.17251,-0.77626,0.369759,-2.547441,-3.287698,1.908261,0.183105,-126.525879,35.949707,0,0
13801,2024 10 17,09:01:54.995,0.478622,0.174237,-0.777555,0.368743,-2.482986,-3.150487,1.77984,-1.159668,-16.662598,2.502441,0,0
13802,2024 10 17,09:01:55.003,0.478622,0.174237,-0.777555,0.368743,-2.482986,-3.150487,1.77984,-1.159668,-16.662598,2.502441,0,0
13803,2024 10 17,09:01:55.012,0.484334,0.174885,-0.774361,0.367695,-1.823298,-2.651936,1.434614,-2.929688,68.908691,-30.212402,0,0
13804,2024 10 17,09:01:55.020,0.49263,0.17616,-0.769331,0.366624,-1.587451,-1.907285,1.239784,5.371094,86.303711,-51.513672,0,0
13805,2024 10 17,09:01:55.028,0.50114,0.179169,-0.763041,0.366776,-1.824763,-0.828639,0.9888,36.193848,93.322754,-66.162109,0,0
13806,2024 10 17,09:01:55.037,0.512482,0.188011,-0.763082,0.346004,-1.011261,3.717399,3.669546,-141.296387,37.231445,-285.888672,0,0
13807,2024 10 17,09:01:55.045,0.542964,0.189214,-0.745496,0.33708,0.323252,3.235939,-5.063632,-123.413086,369.812012,-257.69043,0,0
13808,2024 10 17,09:01:55.053,0.542964,0.189214,-0.745496,0.33708,0.323252,3.235939,-5.063631,-123.413086,369.812012,-257.69043,0,0
13809,2024 10 17,09:01:55.062,0.547758,0.207219,-0.743172,0.323599,-1.684133,0.41847,0.666036,4.516602,-133.544922,-282.104492,0,0
13810,2024 10 17,09:01:55.070,0.562169,0.226418,-0.73019,0.315473,-1.695853,-0.274911,1.287149,114.074707,231.750488,-294.311523,1,0
13811,2024 10 17,09:01:55.078,0.580482,0.2435,-0.709313,0.317213,-1.350139,-1.23246,-0.754906,157.287598,157.897949,-225.524902,0,0
13812,2024 10 17,09:01:55.087,0.588872,0.255603,-0.698707,0.315761,-2.22663,-0.098636,1.789117,67.810059,121.704102,-143.005371,0,0
13813,2024 10 17,09:01:55.095,0.604464,0.25992,-0.681476,0.320399,-0.79104,-0.009278,-0.789575,91.674805,230.773926,-100.036621,0,0
13814,2024 10 17,09:01:55.103,0.604464,0.25992,-0.681476,0.320399,-0.79104,-0.009278,-0.789575,91.674805,230.773926,-100.036621,0,0
13815,2024 10 17,09:01:55.112,0.610497,0.26675,-0.672021,0.323304,-1.102573,-0.293954,0.193854,77.392578,60.852051,-76.843262,0,0
13816,2024 10 17,09:01:55.120,0.614597,0.271558,-0.665417,0.325186,-1.139195,-0.064943,0.256355,57.617188,78.491211,-51.635742,0,0
13817,2024 10 17,09:01:55.128,0.619876,0.274259,-0.658458,0.327061,-0.844264,-0.046388,-0.448256,34.729004,75.073242,-48.64502,0,0
13818,2024 10 17,09:01:55.137,0.623442,0.276978,-0.65393,0.327077,-1.188513,0.033204,0.024415,27.282715,50.598145,-45.471191,0,0
13819,2024 10 17,09:01:55.145,0.627666,0.278749,-0.64797,0.329346,-1.036653,-0.127934,-0.178716,40.527344,80.26123,-26.062012,0,0
13820,2024 10 17,09:01:55.153,0.630934,0.279656,-0.643331,0.331422,-0.915067,-0.013184,0.10596,23.376465,52.856445,-16.540527,0,0
13821,2024 10 17,09:01:55.162,0.630934,0.279656,-0.643331,0.331422,-0.915067,-0.013184,0.10596,23.376465,52.856445,-16.540527,0,0
13822,2024 10 17,09:01:55.170,0.633366,0.28027,-0.640118,0.332484,-1.022492,0.055177,-0.010743,15.625,40.527344,-16.235352,0,0
13823,2024 10 17,09:01:55.178,0.635369,0.280983,-0.637377,0.333324,-1.053255,0.046876,-0.034181,15.563965,32.531738,-15.258789,0,0
13824,2024 10 17,09:01:55.187,0.637082,0.281743,-0.634934,0.334075,-1.027863,0.059572,0.038087,13.61084,29.968262,-14.587402,0,0
13825,2024 10 17,09:01:55.195,0.638688,0.282469,-0.632743,0.334553,-1.020539,0.057619,-0.019532,10.742188,24.597168,-15.319824,0,0
13826,2024 10 17,09:01:55.203,0.639987,0.283299,-0.631001,0.334657,-0.996612,0.075686,0.043458,7.385254,18.066406,-16.174316,0,0
13827,2024 10 17,09:01:55.212,0.639987,0.283299,-0.631001,0.334657,-0.996612,0.075686,0.043458,7.385254,18.066406,-16.174316,0,0
13828,2024 10 17,09:01:55.220,0.64106,0.284207,-0.629538,0.33459,-1.001007,0.02295,0.027833,7.93457,13.305664,-16.113281,0,0
13829,2024 10 17,09:01:55.228,0.641931,0.285146,-0.628442,0.33418,-1.052767,0.044435,0.002441,5.554199,8.728027,-16.601563,0,0
13830,2024 10 17,09:01:55.237,0.642761,0.2861,-0.627385,0.333756,-1.04593,0.035157,-0.010254,4.821777,9.399414,-16.662598,0,0
13831,2024 10 17,09:01:55.245,0.643616,0.287,-0.626373,0.333236,-1.003937,0.031251,-0.007324,3.540039,7.93457,-16.845703,0,0
13832,2024 10 17,09:01:55.253,0.644283,0.287969,-0.625603,0.332556,-1.011261,0.041017,0.025391,2.868652,3.90625,-17.333984,0,0
13833,2024 10 17,09:01:55.262,0.644283,0.287969,-0.625603,0.332556,-1.011261,0.041017,0.025391,2.868652,3.90625,-17.333984,0,0
13834,2024 10 17,09:01:55.270,0.644957,0.289008,-0.624803,0.331851,-1.014679,0.035157,0.021973,3.417969,5.065918,-18.188477,0,0
13835,2024 10 17,09:01:55.278,0.645689,0.290109,-0.623874,0.331214,-0.994659,0.026368,0.010743,5.004883,6.164551,-18.310547,0,0
13836,2024 10 17,09:01:55.287,0.646415,0.291251,-0.622865,0.330697,-0.981964,0.023438,0.048341,6.835938,6.958008,-18.005371,0,0
13837,2024 10 17,09:01:55.295,0.647097,0.292485,-0.621803,0.33027,-0.979034,0.026856,0.047365,7.8125,6.103516,-18.249512,0,0
13838,2024 10 17,09:01:55.303,0.647715,0.293835,-0.620736,0.329869,-0.989776,0.013184,0.0459,9.277344,6.103516,-18.676758,0,0
13839,2024 10 17,09:01:55.312,0.647715,0.293835,-0.620736,0.329869,-0.989776,0.013184,0.0459,9.277344,6.103516,-18.676758,0,0
13840,2024 10 17,09:01:55.320,0.648374,0.295192,-0.619609,0.32948,-0.992218,0.014161,0.02588,9.70459,6.713867,-19.042969,0,0
13841,2024 10 17,09:01:55.328,0.649021,0.296606,-0.618452,0.329112,-0.986847,0.020508,0.058596,10.253906,6.958008,-19.165039,0,0
13842,2024 10 17,09:01:55.337,0.649684,0.298073,-0.617226,0.328779,-0.987335,-0.004395,0.062014,10.742188,7.263184,-19.836426,0,0
13843,2024 10 17,09:01:55.345,0.650448,0.299461,-0.615947,0.328405,-0.972686,-0.006836,0.043458,10.375977,8.850098,-19.714355,0,0
13844,2024 10 17,09:01:55.353,0.651163,0.30084,-0.614733,0.328003,-0.987335,0.0,0.072268,9.58252,6.835938,-19.775391,0,0
13845,2024 10 17,09:01:55.362,0.651163,0.30084,-0.614733,0.328003,-0.987335,0.0,0.072268,9.58252,6.835938,-19.775391,0,0
13846,2024 10 17,09:01:55.370,0.651932,0.302187,-0.613468,0.327604,-0.997101,-0.006836,0.086917,9.70459,9.033203,-19.40918,0,0
13847,2024 10 17,09:01:55.378,0.652876,0.30338,-0.612014,0.327341,-1.012238,-0.014161,0.031251,9.521484,12.939453,-18.615723,0,0
13848,2024 10 17,09:01:55.387,0.6539,0.304446,-0.610479,0.327175,-0.997101,-0.019044,0.06006,8.483887,14.648438,-17.578125,0,0
13849,2024 10 17,09:01:55.395,0.655049,0.305361,-0.608857,0.327047,-1.015656,0.001953,0.046876,8.300781,16.906738,-17.150879,0,0
13850,2024 10 17,09:01:55.403,0.656112,0.306343,-0.60724,0.327003,-1.029817,-0.013672,0.037111,8.850098,15.075684,-17.089844,0,0
13851,2024 10 17,09:01:55.412,0.656112,0.306343,-0.60724,0.327003,-1.029817,-0.013672,0.037111,8.850098,15.075684,-17.089844,0,0
13852,2024 10 17,09:01:55.420,0.657222,0.307346,-0.605558,0.326951,-1.073275,-0.002441,0.050783,10.192871,17.76123,-17.51709,0,0
13853,2024 10 17,09:01:55.428,0.658462,0.308393,-0.603666,0.32697,-1.063021,-0.000488,0.042482,10.375977,18.981934,-19.104004,0,0
13854,2024 10 17,09:01:55.437,0.659712,0.309624,-0.601766,0.326789,-1.036653,-0.012696,0.067385,10.620117,17.578125,-22.216797,0,0
13855,2024 10 17,09:01:55.445,0.661034,0.310992,-0.5999,0.326249,-1.122105,0.009278,0.069338,8.483887,16.174316,-26.123047,0,0
13856,2024 10 17,09:01:55.453,0.662575,0.312543,-0.597889,0.325331,-1.129429,0.003906,0.04883,7.507324,17.456055,-32.287598,0,0
13857,2024 10 17,09:01:55.462,0.662575,0.312543,-0.597889,0.325331,-1.129429,0.003906,0.04883,7.507324,17.456055,-32.287598,0,0
13858,2024 10 17,09:01:55.470,0.664377,0.314292,-0.595727,0.323933,-1.132359,0.004395,0.043458,5.249023,17.578125,-38.94043,0,0
13859,2024 10 17,09:01:55.478,0.66636,0.31634,-0.593492,0.321964,-1.199744,0.015137,0.076174,2.990723,15.197754,-46.936035,0,0
13860,2024 10 17,09:01:55.487,0.668532,0.318813,-0.591237,0.319158,-1.301309,0.010254,0.044435,-0.12207,12.878418,-57.250977,0,0
13861,2024 10 17,09:01:55.495,0.67114,0.321695,-0.588859,0.315164,-1.376995,-0.013184,0.074221,-7.446289,10.009766,-73.181152,0,0
13862,2024 10 17,09:01:55.503,0.67438,0.324943,-0.586028,0.310152,-1.328166,0.030763,0.061037,-9.94873,14.343262,-86.242676,0,0
13863,2024 10 17,09:01:55.512,0.67438,0.324943,-0.586028,0.310152,-1.328166,0.030763,0.061037,-9.94873,14.343262,-86.242676,0,0
13864,2024 10 17,09:01:55.520,0.677827,0.328911,-0.582819,0.304449,-1.383343,0.110355,0.15186,-8.300781,11.657715,-99.060059,0,0
13865,2024 10 17,09:01:55.528,0.681338,0.333987,-0.579183,0.297958,-1.431196,0.111332,0.264168,-2.685547,9.460449,-116.333008,0,0
13866,2024 10 17,09:01:55.537,0.685279,0.340112,-0.574401,0.291171,-1.498581,0.103519,0.050783,6.713867,17.700195,-130.859375,0,0
13867,2024 10 17,09:01:55.545,0.689371,0.347437,-0.568904,0.283556,-1.633351,0.110843,0.088382,10.742188,16.662598,-149.902344,0,0
13868,2024 10 17,09:01:55.553,0.694223,0.35575,-0.562205,0.274631,-1.815485,0.131352,0.044435,9.521484,25.146484,-176.269531,0,0
13869,2024 10 17,09:01:55.562,0.699922,0.365136,-0.554326,0.263642,-1.86578,0.181646,-0.06885,3.479004,24.353027,-209.04541,0,0
13870,2024 10 17,09:01:55.570,0.699922,0.365136,-0.554326,0.263642,-1.86578,0.181646,-0.06885,3.479004,24.353027,-209.04541,0,0
13871,2024 10 17,09:01:55.578,0.705989,0.376053,-0.545696,0.249758,-2.14069,0.276376,-0.037111,-2.441406,17.700195,-248.962402,0,0
13872,2024 10 17,09:01:55.587,0.713198,0.388328,-0.534916,0.233268,-2.408277,0.445326,-0.008789,-4.699707,30.273438,-294.372559,0,0
13873,2024 10 17,09:01:55.595,0.721387,0.402628,-0.521302,0.213858,-2.815027,0.675802,0.206549,0.366211,43.762207,-349.914551,0,0
13874,2024 10 17,09:01:55.603,0.73079,0.41921,-0.503472,0.191638,-3.066988,0.711447,0.04883,5.79834,64.880371,-414.245605,0,0
13875,2024 10 17,09:01:55.612,0.740834,0.437913,-0.481473,0.166072,-3.234474,0.59328,0.183599,11.962891,87.402344,-476.013184,0,0
13876,2024 10 17,09:01:55.620,0.740834,0.437913,-0.481473,0.166072,-3.234474,0.59328,0.183599,11.962891,87.402344,-476.013184,0,0
13877,2024 10 17,09:01:55.628,0.750947,0.458438,-0.454874,0.137854,-3.405377,0.328135,0.415052,23.31543,108.337402,-529.846191,0,0
13878,2024 10 17,09:01:55.637,0.759922,0.480451,-0.424279,0.108035,-3.546007,0.063478,0.061037,38.391113,123.413086,-566.650391,0,0
13879,2024 10 17,09:01:55.645,0.767189,0.502176,-0.391452,0.077497,-3.556749,-0.011231,0.100101,41.381836,132.446289,-574.34082,0,1
13880,2024 10 17,09:01:55.653,0.774293,0.520886,-0.35623,0.047417,-3.096774,0.514176,-0.353038,13.85498,157.897949,-570.129395,0,0
13881,2024 10 17,09:01:55.662,0.779852,0.537407,-0.320502,0.017405,-3.137791,1.066927,-0.141118,9.399414,159.545898,-566.28418,0,0
13882,2024 10 17,09:01:55.670,0.779852,0.537407,-0.320502,0.017405,-3.137791,1.066927,-0.141118,9.399414,159.545898,-566.28418,0,0
13883,2024 10 17,09:01:55.678,0.783657,0.552742,-0.28322,-0.011989,-1.77691,1.401898,-1.102573,12.390137,165.527344,-561.279297,0,0
13884,2024 10 17,09:01:55.687,0.78396,0.566428,-0.250729,-0.041242,-2.182195,0.997101,-0.913602,15.869141,93.933105,-514.831543,0,0
13885,2024 10 17,09:01:55.695,0.78313,0.576194,-0.222131,-0.073254,-0.946318,1.431684,-1.568407,-27.893066,46.020508,-514.221191,0,0
13886,2024 10 17,09:01:55.703,0.784451,0.579177,-0.196856,-0.102171,2.277902,1.462935,-2.500076,-100.463867,50.415039,-387.878418,0,0
13887,2024 10 17,09:01:55.712,0.786644,0.576078,-0.188119,-0.11805,1.185095,0.813013,-0.133305,-97.717285,-73.669434,-104.431152,0,0
13888,2024 10 17,09:01:55.720,0.786644,0.576078,-0.188119,-0.11805,1.185095,0.813013,-0.133305,-97.717285,-73.669434,-104.431152,0,0
13889,2024 10 17,09:01:55.728,0.793769,0.564063,-0.194807,-0.11753,-0.318857,1.875057,-0.731468,-132.263184,-32.714844,148.193359,0,0
13890,2024 10 17,09:01:55.737,0.800851,0.551604,-0.209592,-0.102185,-0.871609,1.692434,0.063967,-96.862793,-44.189453,300.170898,0,0
13891,2024 10 17,09:01:55.745,0.806698,0.540402,-0.226154,-0.077838,-1.126011,1.07474,-0.195318,-53.771973,24.353027,364.624023,0,0
13892,2024 10 17,09:01:55.753,0.811079,0.530171,-0.241653,-0.051696,-0.943876,0.714377,-0.384777,-32.958984,16.906738,357.055664,0,0
13893,2024 10 17,09:01:55.762,0.81381,0.520693,-0.256564,-0.0277,-0.662618,0.420911,-0.596698,-29.47998,10.559082,328.796387,0,0
13894,2024 10 17,09:01:55.770,0.81381,0.520693,-0.256564,-0.0277,-0.662618,0.420911,-0.596698,-29.47998,10.559082,328.796387,0,0
13895,2024 10 17,09:01:55.778,0.815186,0.511415,-0.271814,-0.006646,-0.584002,0.290048,-0.696799,-32.592773,-21.54541,307.006836,0,0
13896,2024 10 17,09:01:55.787,0.815694,0.501437,-0.288176,0.012617,-0.475112,0.341807,-0.712424,-39.550781,-41.564941,304.077148,0,0
13897,2024 10 17,09:01:55.795,0.815299,0.490359,-0.306365,0.031252,-0.524918,0.448744,-0.508316,-45.898438,-65.551758,316.223145,0,0
13898,2024 10 17,09:01:55.803,0.813974,0.478019,-0.326161,0.050615,-0.648457,0.50148,-0.47853,-48.76709,-76.35498,338.317871,0,0
13899,2024 10 17,09:01:55.812,0.811541,0.464451,-0.347269,0.071352,-0.751488,0.468276,-0.432142,-49.01123,-83.679199,363.098145,0,0
13900,2024 10 17,09:01:55.820,0.811541,0.464451,-0.347269,0.071352,-0.751488,0.468276,-0.432142,-49.01123,-83.679199,363.098145,0,0
13901,2024 10 17,09:01:55.828,0.807886,0.449611,-0.36947,0.093071,-0.809107,0.380383,-0.417005,-52.429199,-93.62793,381.896973,0,0
13902,2024 10 17,09:01:55.837,0.802837,0.433598,-0.392789,0.114726,-0.892605,0.271493,-0.397473,-58.044434,-110.107422,391.723633,0,0
13903,2024 10 17,09:01:55.845,0.796363,0.416467,-0.417148,0.135458,-0.980987,0.198248,-0.431166,-67.565918,-129.882813,393.371582,0,0
13904,2024 10 17,09:01:55.853,0.788365,0.398455,-0.442578,0.154397,-1.127964,0.146001,-0.386731,-79.406738,-154.663086,387.207031,0,0
13905,2024 10 17,09:01:55.862,0.779004,0.379693,-0.468704,0.171181,-1.245643,0.165532,-0.322764,-91.491699,-175.415039,376.281738,0,0
13906,2024 10 17,09:01:55.870,0.779004,0.379693,-0.468704,0.171181,-1.245643,0.165532,-0.322764,-91.491699,-175.415039,376.281738,0,0
13907,2024 10 17,09:01:55.878,0.768208,0.360545,-0.495271,0.185932,-1.417035,0.208014,-0.187994,-99.304199,-194.763184,364.990234,0,0
13908,2024 10 17,09:01:55.887,0.756158,0.34112,-0.52169,0.199253,-1.577197,0.256355,-0.089358,-102.600098,-203.918457,356.750488,0,0
13909,2024 10 17,09:01:55.895,0.742817,0.321607,-0.547608,0.211936,-1.697806,0.342784,0.117679,-98.571777,-209.594727,354.309082,0,0
13910,2024 10 17,09:01:55.903,0.728109,0.302208,-0.57269,0.22484,-1.838435,0.500015,0.249031,-86.608887,-210.327148,356.384277,0,0
13911,2024 10 17,09:01:55.912,0.711929,0.283493,-0.59652,0.238647,-2.002014,0.585955,0.324229,-64.575195,-208.92334,357.849121,0,0
13912,2024 10 17,09:01:55.920,0.711929,0.283493,-0.59652,0.238647,-2.002014,0.585955,0.324229,-64.575195,-208.92334,357.849121,0,0
13913,2024 10 17,09:01:55.928,0.694234,0.26609,-0.618948,0.253258,-2.156316,0.521012,0.375988,-38.696289,-210.449219,354.187012,0,0
13914,2024 10 17,09:01:55.937,0.674953,0.250148,-0.640178,0.268398,-2.296945,0.374035,0.33253,-16.906738,-215.637207,350.402832,0,0
13915,2024 10 17,09:01:55.945,0.654163,0.235392,-0.660311,0.283991,-2.470778,0.201178,0.347179,2.197266,-220.76416,348.449707,0,0
13916,2024 10 17,09:01:55.953,0.632219,0.221697,-0.679102,0.299948,-2.693442,-0.012696,0.409192,19.53125,-221.069336,344.543457,0,0
13917,2024 10 17,09:01:55.962,0.609609,0.208831,-0.69621,0.31632,-2.908292,-0.261238,0.423841,36.743164,-215.026855,342.224121,0,0
13918,2024 10 17,09:01:55.970,0.609609,0.208831,-0.69621,0.31632,-2.908292,-0.261238,0.423841,36.743164,-215.026855,342.224121,0,0
13919,2024 10 17,09:01:55.978,0.586997,0.196354,-0.711117,0.333454,-2.978118,-0.631367,0.481948,53.955078,-196.228027,341.491699,0,0
13920,2024 10 17,09:01:55.987,0.565059,0.18456,-0.723422,0.351151,-3.012299,-1.314982,0.429701,70.739746,-176.696777,331.420898,0,0
13921,2024 10 17,09:01:55.995,0.54429,0.174591,-0.733392,0.367972,-2.991791,-1.950743,0.396496,80.932617,-161.193848,299.194336,0,0
13922,2024 10 17,09:01:56.003,0.525545,0.167726,-0.741242,0.3824,-2.507401,-2.375072,0.469253,83.92334,-152.099609,243.591309,0,0
13923,2024 10 17,09:01:56.012,0.508087,0.165082,-0.748157,0.393517,-1.880917,-2.604083,0.727073,81.481934,-166.748047,180.725098,0,0
13924,2024 10 17,09:01:56.020,0.490611,0.166977,-0.755151,0.401455,-1.521042,-2.756432,1.242714,81.542969,-198.547363,125.610352,0,0
13925,2024 10 17,09:01:56.028,0.490611,0.166977,-0.755151,0.401455,-1.521042,-2.756432,1.242714,81.542969,-198.547363,125.610352,0,0
13926,2024 10 17,09:01:56.037,0.472558,0.173012,-0.762212,0.407172,-1.827693,-3.081149,1.721732,86.425781,-226.5625,84.472656,0,0
13927,2024 10 17,09:01:56.045,0.45607,0.180741,-0.767881,0.411936,-2.494705,-3.634388,1.85699,89.477539,-201.293945,61.401367,0,0
13928,2024 10 17,09:01:56.053,0.445953,0.186914,-0.770125,0.416049,-2.89169,-4.152959,1.773003,73.669434,-104.003906,36.499023,0,0
13929,2024 10 17,09:01:56.062,0.446298,0.189407,-0.768208,0.418091,-2.415601,-4.22425,1.043977,26.916504,22.644043,-0.854492,0,0
13930,2024 10 17,09:01:56.070,0.453523,0.189504,-0.765293,0.415611,-1.919492,-3.670034,0.560076,-36.010742,73.974609,-39.0625,0,0
13931,2024 10 17,09:01:56.078,0.453523,0.189504,-0.765293,0.415611,-1.919492,-3.670034,0.560076,-36.010742,73.974609,-39.0625,0,0
13932,2024 10 17,09:01:56.087,0.46411,0.188184,-0.763035,0.408615,-1.764214,-2.80282,0.471206,-88.378906,96.008301,-64.758301,0,0
13933,2024 10 17,09:01:56.095,0.474062,0.192125,-0.772224,0.376859,-1.722221,3.582629,10.808924,-492.004395,-175.476074,-344.482422,1,0
13934,2024 10 17,09:01:56.103,0.514209,0.187058,-0.753636,0.364185,-0.681661,0.421888,-2.57918,-286.315918,575.439453,-235.839844,0,0
13935,2024 10 17,09:01:56.112,0.546867,0.185597,-0.73949,0.345898,1.134312,1.732963,-3.270608,-56.82373,143.615723,-263.000488,0,0
13936,2024 10 17,09:01:56.120,0.54713,0.207358,-0.743648,0.323481,-2.273019,1.269082,3.068941,-64.39209,-129.211426,-340.148926,0,0
13937,2024 10 17,09:01:56.128,0.54713,0.207358,-0.743648,0.323481,-2.273019,1.269082,3.068941,-64.39209,-129.211426,-340.148926,0,0
13938,2024 10 17,09:01:56.137,0.563827,0.2265,-0.728589,0.316156,-1.681204,-0.47853,-0.780786,90.148926,176.147461,-289.428711,0,0
13939,2024 10 17,09:01:56.145,0.573297,0.244414,-0.715858,0.314865,-2.285714,-0.512223,1.062044,120.422363,80.627441,-196.655273,0,0
13940,2024 10 17,09:01:56.153,0.588482,0.251202,-0.700396,0.316277,-1.298379,-0.080569,0.004883,57.800293,238.342285,-125.427246,0,0
13941,2024 10 17,09:01:56.162,0.600749,0.255718,-0.686441,0.320168,-0.935087,-0.072268,-0.58449,85.754395,152.587891,-85.083008,0,0
13942,2024 10 17,09:01:56.170,0.606344,0.261547,-0.677256,0.324445,-1.303262,-0.098148,0.210944,95.88623,97.900391,-54.321289,0,0
13943,2024 10 17,09:01:56.178,0.606344,0.261547,-0.677256,0.324445,-1.303262,-0.098148,0.210944,95.88623,97.900391,-54.321289,0,0
13944,2024 10 17,09:01:56.187,0.612863,0.265049,-0.667054,0.330436,-0.91409,-0.167974,-0.11475,80.688477,130.554199,-36.560059,0,0
13945,2024 10 17,09:01:56.195,0.61869,0.267115,-0.659137,0.333781,-1.033235,0.023438,-0.225593,46.508789,91.918945,-37.414551,0,0
13946,2024 10 17,09:01:56.203,0.623065,0.269016,-0.652475,0.337189,-1.078646,0.031739,0.121586,55.725098,86.669922,-22.094727,0,0
13947,2024 10 17,09:01:56.212,0.627076,0.270262,-0.645533,0.342084,-0.846217,-0.092776,0.034669,58.105469,86.364746,-8.483887,0,0
13948,2024 10 17,09:01:56.220,0.629843,0.271076,-0.640902,0.345052,-0.907254,0.019532,0.026368,31.005859,50.476074,-9.216309,0,0
13949,2024 10 17,09:01:56.228,0.629843,0.271076,-0.640902,0.345052,-0.907254,0.019532,0.026368,31.005859,50.476074,-9.216309,0,0
13950,2024 10 17,09:01:56.237,0.631455,0.271885,-0.637792,0.347224,-0.989288,0.000488,0.110843,30.334473,36.621094,-4.577637,0,0
13951,2024 10 17,09:01:56.245,0.632874,0.272363,-0.635147,0.349108,-0.931669,0.012207,0.008301,20.812988,30.761719,-3.234863,0,0
13952,2024 10 17,09:01:56.253,0.633693,0.272782,-0.633764,0.34981,-1.007843,0.08301,0.035157,8.361816,12.634277,-5.79834,0,0
13953,2024 10 17,09:01:56.262,0.634334,0.273197,-0.632827,0.350019,-1.024445,0.081057,0.019044,5.371094,10.620117,-7.507324,0,0
13954,2024 10 17,09:01:56.270,0.635011,0.273612,-0.632072,0.349833,-1.032258,0.08594,-0.02295,1.464844,7.141113,-10.070801,0,0
13955,2024 10 17,09:01:56.278,0.635011,0.273612,-0.632072,0.349833,-1.032258,0.08594,-0.02295,1.464844,7.141113,-10.070801,0,0
13956,2024 10 17,09:01:56.287,0.635678,0.274111,-0.63146,0.349336,-1.062532,0.102542,0.028809,1.037598,6.469727,-12.207031,0,0
13957,2024 10 17,09:01:56.295,0.636567,0.274668,-0.630549,0.348925,-1.048372,0.103519,-0.008301,2.01416,10.498047,-14.038086,0,0
13958,2024 10 17,09:01:56.303,0.637555,0.275321,-0.629517,0.348467,-1.013703,0.093753,0.043947,2.441406,10.925293,-15.686035,0,0
13959,2024 10 17,09:01:56.312,0.638572,0.276058,-0.62842,0.348002,-1.013703,0.070803,0.025391,3.112793,10.925293,-16.662598,0,0
13960,2024 10 17,09:01:56.320,0.639654,0.276788,-0.627373,0.347324,-1.012238,0.046388,-0.032716,-0.12207,10.131836,-18.249512,0,0
13961,2024 10 17,09:01:56.328,0.639654,0.276788,-0.627373,0.347324,-1.012238,0.046388,-0.032716,-0.12207,10.131836,-18.249512,0,0
13962,2024 10 17,09:01:56.337,0.640756,0.277394,-0.626548,0.346298,-1.003449,0.046876,-0.000488,-3.845215,8.422852,-18.798828,0,0
13963,2024 10 17,09:01:56.345,0.641969,0.277841,-0.62571,0.345207,-0.989776,0.049806,-0.009278,-5.249023,10.437012,-18.432617,0,0
13964,2024 10 17,09:01:56.353,0.643185,0.278193,-0.624885,0.34415,-0.952666,0.065432,0.057131,-5.493164,10.009766,-17.333984,0,0
13965,2024 10 17,09:01:56.362,0.644359,0.278539,-0.624008,0.343267,-0.977081,0.052736,0.066408,-3.845215,10.864258,-16.296387,0,0
13966,2024 10 17,09:01:56.370,0.645602,0.278832,-0.623022,0.342483,-0.964385,0.062502,0.053224,-3.601074,12.878418,-15.686035,0,0
13967,2024 10 17,09:01:56.378,0.645602,0.278832,-0.623022,0.342483,-0.964385,0.062502,0.053224,-3.601074,12.878418,-15.686035,0,0
13968,2024 10 17,09:01:56.387,0.64676,0.279182,-0.62206,0.341759,-0.980987,0.051271,0.07178,-2.624512,11.230469,-15.50293,0,0
13969,2024 10 17,09:01:56.395,0.64796,0.279492,-0.62107,0.341034,-1.007843,0.049318,0.061525,-2.685547,12.695313,-15.50293,0,0
13970,2024 10 17,09:01:56.403,0.649185,0.279809,-0.619994,0.340402,-0.991241,0.04883,0.021485,-1.831055,13.61084,-15.075684,0,0
13971,2024 10 17,09:01:56.412,0.650316,0.280169,-0.618974,0.339803,-0.986847,0.04004,0.101566,-0.976563,12.207031,-14.526367,0,0
13972,2024 10 17,09:01:56.420,0.651489,0.280503,-0.617844,0.339337,-0.98294,0.045412,0.06299,-0.061035,14.343262,-13.916016,0,0
13973,2024 10 17,09:01:56.428,0.651489,0.280503,-0.617844,0.339337,-0.98294,0.045412,0.06299,-0.061035,14.343262,-13.916016,0,0
13974,2024 10 17,09:01:56.437,0.652596,0.280843,-0.616759,0.338901,-0.990753,0.036134,0.082034,-0.061035,12.451172,-13.549805,0,0
13975,2024 10 17,09:01:56.445,0.653634,0.281272,-0.615678,0.338509,-1.013703,0.061037,0.08594,1.89209,12.634277,-13.48877,0,0
13976,2024 10 17,09:01:56.453,0.654686,0.281792,-0.614425,0.338323,-1.032258,0.036622,0.062014,4.577637,14.404297,-13.183594,0,0
13977,2024 10 17,09:01:56.462,0.655678,0.282471,-0.613138,0.338169,-1.058138,0.069338,0.067385,6.469727,13.549805,-14.343262,0,0
13978,2024 10 17,09:01:56.470,0.65679,0.283272,-0.61156,0.338199,-1.042024,0.061037,0.06299,9.277344,18.066406,-15.258789,0,0
13979,2024 10 17,09:01:56.478,0.657948,0.28423,-0.609828,0.338271,-1.022492,0.059572,0.104495,11.291504,17.333984,-16.906738,0,0
13980,2024 10 17,09:01:56.487,0.657948,0.28423,-0.609828,0.338271,-1.022492,0.059572,0.104495,11.291504,17.333984,-16.906738,0,0
13981,2024 10 17,09:01:56.495,0.658981,0.285537,-0.608117,0.338242,-1.049348,0.041993,0.116214,12.756348,13.73291,-20.141602,0,0
13982,2024 10 17,09:01:56.503,0.659994,0.287198,-0.606301,0.338119,-1.088412,0.054689,0.075198,16.357422,14.343262,-23.071289,0,0
13983,2024 10 17,09:01:56.512,0.661063,0.289175,-0.60442,0.337714,-1.121616,0.050295,0.06885,15.441895,12.268066,-29.052734,0,0
13984,2024 10 17,09:01:56.520,0.662275,0.291498,-0.602483,0.336801,-1.183142,0.094241,0.10303,13.977051,11.047363,-36.315918,0,0
13985,2024 10 17,09:01:56.528,0.663814,0.29417,-0.600408,0.33515,-1.176305,0.057619,0.171392,10.192871,10.070801,-47.790527,0,0
13986,2024 10 17,09:01:56.537,0.663814,0.29417,-0.600408,0.33515,-1.176305,0.057619,0.171392,10.192871,10.070801,-47.790527,0,0
13987,2024 10 17,09:01:56.545,0.66567,0.297293,-0.598346,0.33239,-1.328166,0.054689,0.073244,5.371094,5.126953,-60.302734,0,0
13988,2024 10 17,09:01:56.553,0.667761,0.301171,-0.596369,0.328231,-1.46147,0.080569,0.054689,-1.647949,0.427246,-78.186035,0,0
13989,2024 10 17,09:01:56.562,0.67077,0.305433,-0.593655,0.323036,-1.478561,0.079104,0.013672,-2.319336,11.230469,-93.688965,0,0
13990,2024 10 17,09:01:56.570,0.67465,0.310043,-0.59002,0.317172,-1.412153,0.117679,0.129887,-4.150391,18.981934,-107.910156,0,0
13991,2024 10 17,09:01:56.578,0.679074,0.315343,-0.585338,0.311122,-1.368206,0.174322,0.185064,3.356934,27.709961,-118.408203,0,0
13992,2024 10 17,09:01:56.587,0.679074,0.315343,-0.585338,0.311122,-1.368206,0.174322,0.185064,3.356934,27.709961,-118.408203,0,0
13993,2024 10 17,09:01:56.595,0.683596,0.321669,-0.579906,0.304851,-1.467818,0.146977,0.146489,11.291504,26.000977,-133.056641,0,0
13994,2024 10 17,09:01:56.603,0.688405,0.329111,-0.573815,0.297525,-1.591357,0.148442,0.08887,15.197754,28.503418,-152.404785,0,0
13995,2024 10 17,09:01:56.612,0.6938,0.33765,-0.566567,0.289199,-1.780816,0.210944,0.126469,18.127441,33.630371,-175.842285,0,0
13996,2024 10 17,09:01:56.620,0.700056,0.34738,-0.557998,0.279083,-2.017151,0.229011,-0.011231,13.305664,40.344238,-208.862305,0,0
13997,2024 10 17,09:01:56.628,0.707698,0.358068,-0.547508,0.266808,-2.20661,0.295907,-0.089358,10.620117,56.518555,-245.666504,0,0
13998,2024 10 17,09:01:56.637,0.707698,0.358068,-0.547508,0.266808,-2.20661,0.295907,-0.089358,10.620117,56.518555,-245.666504,0,0
13999,2024 10 17,09:01:56.645,0.716546,0.370059,-0.534767,0.252276,-2.355541,0.46437,-0.161138,7.385254,65.490723,-288.330078,0,0
14000,2024 10 17,09:01:56.653,0.725801,0.383968,-0.52041,0.234425,-2.674886,0.538102,-0.120609,7.507324,62.072754,-338.378906,0,0
14001,2024 10 17,09:01:56.662,0.736374,0.399308,-0.502628,0.213709,-2.97763,0.545915,-0.305673,6.347656,89.233398,-392.089844,0,0
14002,2024 10 17,09:01:56.670,0.748007,0.416099,-0.48084,0.190106,-3.308206,0.63918,-0.028809,4.02832,113.342285,-447.021484,0,0
14003,2024 10 17,09:01:56.678,0.760821,0.433619,-0.453977,0.164411,-3.304788,0.396008,0.020997,7.385254,150.756836,-495.422363,0,0
14004,2024 10 17,09:01:56.686,0.760821,0.433619,-0.453977,0.164411,-3.304788,0.396008,0.020997,7.385254,150.756836,-495.422363,0,0
14005,2024 10 17,09:01:56.695,0.773016,0.452097,-0.423534,0.136651,-3.540635,0.165044,0.222175,15.625,165.649414,-532.165527,0,0
14006,2024 10 17,09:01:56.703,0.784289,0.470395,-0.389648,0.108598,-3.099216,0.116214,0.006836,18.005371,192.077637,-544.555664,0,1
14007,2024 10 17,09:01:56.711,0.794277,0.487063,-0.354111,0.08061,-2.941008,0.315439,-0.303232,11.291504,197.143555,-539.245605,0,0
14008,2024 10 17,09:01:56.720,0.802888,0.501186,-0.318421,0.052832,-2.821863,0.683126,-0.429212,-3.112793,197.631836,-528.747559,0,0
14009,2024 10 17,09:01:56.728,0.809999,0.513379,-0.282383,0.024565,-1.894589,1.206092,-0.927763,-15.50293,192.199707,-528.686523,0,0
14010,2024 10 17,09:01:56.736,0.809999,0.513379,-0.282383,0.024565,-1.894589,1.206092,-0.927763,-15.50293,192.199707,-528.686523,0,0
14011,2024 10 17,09:01:56.745,0.81417,0.524185,-0.24968,-0.004167,-1.623585,1.09183,-1.043977,-6.469727,129.211426,-498.046875,0,0
14012,2024 10 17,09:01:56.753,0.815427,0.533168,-0.222617,-0.035382,-1.518601,1.055208,-1.177282,-26.123047,60.791016,-489.074707,0,0
14013,2024 10 17,09:01:56.761,0.816716,0.53708,-0.199419,-0.068934,0.191412,0.581561,-2.399976,-82.641602,5.981445,-460.571289,0,0
14014,2024 10 17,09:01:56.770,0.819817,0.533143,-0.184683,-0.097728,2.194403,1.04886,-0.733909,-159.057617,-51.208496,-285.949707,0,0
14015,2024 10 17,09:01:56.778,0.825316,0.522257,-0.183972,-0.110699,-0.178228,1.811579,-0.139164,-161.437988,-71.228027,-31.738281,0,0
14016,2024 10 17,09:01:56.786,0.825316,0.522257,-0.183972,-0.110699,-0.178228,1.811579,-0.139164,-161.437988,-71.228027,-31.738281,0,0
14017,2024 10 17,09:01:56.795,0.831957,0.509743,-0.191268,-0.10689,-0.424818,1.970763,0.072268,-137.390137,-44.128418,150.878906,0,0
14018,2024 10 17,09:01:56.803,0.837927,0.49882,-0.202325,-0.090121,-0.561052,1.48735,-0.020997,-60.852051,7.751465,280.822754,0,0
14019,2024 10 17,09:01:56.811,0.841515,0.491006,-0.215539,-0.065646,-0.7051,1.015168,-0.040529,-12.145996,14.038086,336.975098,0,0
14020,2024 10 17,09:01:56.820,0.843157,0.484639,-0.229483,-0.03936,-0.414075,0.763695,-0.476577,11.84082,9.399414,344.360352,0,0
14021,2024 10 17,09:01:56.828,0.842543,0.479291,-0.245306,-0.015045,-0.378918,0.602557,-0.552751,24.902344,-29.11377,328.796387,0,0
14022,2024 10 17,09:01:56.836,0.842543,0.479291,-0.245306,-0.015045,-0.378918,0.602557,-0.552751,24.902344,-29.11377,328.796387,0,0
14023,2024 10 17,09:01:56.845,0.840133,0.47451,-0.262632,0.00651,-0.483902,0.421888,-0.6592,29.47998,-62.62207,308.410645,0,0
14024,2024 10 17,09:01:56.853,0.836367,0.469777,-0.281317,0.025705,-0.555193,0.396985,-0.561052,28.747559,-90.148926,294.98291,0,0
14025,2024 10 17,09:01:56.861,0.831651,0.464541,-0.301074,0.04374,-0.578143,0.446791,-0.461928,25.57373,-106.750488,295.227051,0,0
14026,2024 10 17,09:01:56.870,0.826074,0.458486,-0.321764,0.062133,-0.703635,0.463393,-0.388195,23.803711,-114.624023,309.631348,0,0
14027,2024 10 17,09:01:56.878,0.819606,0.451326,-0.343367,0.081547,-0.846706,0.422864,-0.347667,20.996094,-119.812012,328.979492,0,0
14028,2024 10 17,09:01:56.886,0.819606,0.451326,-0.343367,0.081547,-0.846706,0.422864,-0.347667,20.996094,-119.812012,328.979492,0,0
14029,2024 10 17,09:01:56.895,0.812231,0.442817,-0.365773,0.102,-0.920438,0.355968,-0.33253,15.686035,-123.962402,348.693848,0,0
14030,2024 10 17,09:01:56.903,0.803982,0.432721,-0.388862,0.123094,-0.947295,0.268075,-0.35255,5.981445,-129.333496,364.868164,0,0
14031,2024 10 17,09:01:56.911,0.794789,0.420932,-0.412811,0.143922,-0.994659,0.144047,-0.377941,-8.911133,-142.700195,374.023438,0,0
14032,2024 10 17,09:01:56.920,0.784513,0.407455,-0.438002,0.163324,-1.086947,0.097171,-0.332041,-29.174805,-164.916992,375.610352,0,0
14033,2024 10 17,09:01:56.928,0.7731,0.392427,-0.464354,0.180814,-1.26664,0.11182,-0.268075,-48.950195,-186.523438,372.924805,0,0
14034,2024 10 17,09:01:56.936,0.760658,0.376199,-0.491198,0.196462,-1.493698,0.151372,-0.127445,-64.025879,-199.584961,366.088867,0,0
14035,2024 10 17,09:01:56.945,0.760658,0.376199,-0.491198,0.196462,-1.493698,0.151372,-0.127445,-64.025879,-199.584961,366.088867,0,0
14036,2024 10 17,09:01:56.953,0.747512,0.359156,-0.517526,0.21071,-1.706107,0.180181,-0.02002,-72.875977,-201.599121,357.299805,0,0
14037,2024 10 17,09:01:56.961,0.733817,0.341567,-0.542816,0.224046,-1.838435,0.252449,0.124516,-76.599121,-197.32666,350.585938,0,0
14038,2024 10 17,09:01:56.970,0.719598,0.323562,-0.56674,0.237258,-1.875546,0.335459,0.22364,-73.425293,-189.025879,349.67041,0,0
14039,2024 10 17,09:01:56.978,0.704514,0.305345,-0.589479,0.250876,-1.972716,0.368175,0.242195,-64.39209,-184.509277,353.515625,0,0
14040,2024 10 17,09:01:56.986,0.688245,0.287201,-0.611219,0.26504,-2.123112,0.338878,0.254402,-53.283691,-184.020996,357.543945,0,0
14041,2024 10 17,09:01:56.995,0.688245,0.287201,-0.611219,0.26504,-2.123112,0.338878,0.254402,-53.283691,-184.020996,357.543945,0,0
14042,2024 10 17,09:01:57.003,0.670799,0.269382,-0.63197,0.279422,-2.332591,0.26368,0.201666,-42.602539,-185.36377,356.689453,0,0
14043,2024 10 17,09:01:57.011,0.652348,0.2521,-0.651699,0.293558,-2.504471,0.052248,0.154302,-35.27832,-188.049316,350.952148,0,0
14044,2024 10 17,09:01:57.020,0.63308,0.235547,-0.670551,0.306739,-2.629475,-0.216804,0.163579,-32.531738,-192.687988,339.477539,0,0
14045,2024 10 17,09:01:57.028,0.613164,0.219885,-0.688604,0.318599,-2.664144,-0.471694,0.218268,-32.348633,-201.049805,324.523926,0,0
14046,2024 10 17,09:01:57.036,0.592492,0.205503,-0.705877,0.329332,-2.809168,-0.82522,0.3296,-25.817871,-208.251953,310.058594,0,0
14047,2024 10 17,09:01:57.045,0.592492,0.205503,-0.705877,0.329332,-2.809168,-0.82522,0.3296,-25.817871,-208.251953,310.058594,0,0
14048,2024 10 17,09:01:57.053,0.571483,0.192271,-0.721881,0.339599,-2.924894,-1.261757,0.434095,-15.075684,-207.397461,300.109863,0,0
14049,2024 10 17,09:01:57.061,0.550795,0.179989,-0.736093,0.349852,-2.833094,-1.720267,0.555681,-1.281738,-194.091797,288.574219,0,0
14050,2024 10 17,09:01:57.070,0.531391,0.169614,-0.747881,0.359902,-2.507889,-2.294992,0.663106,17.272949,-177.79541,257.93457,0,0
14051,2024 10 17,09:01:57.078,0.513292,0.163196,-0.757833,0.368222,-1.838435,-2.671468,1.055696,29.785156,-182.617188,200.439453,0,0
14052,2024 10 17,09:01:57.086,0.495322,0.162617,-0.767056,0.373949,-1.400922,-2.837001,1.665578,45.532227,-213.378906,131.347656,0,0
14053,2024 10 17,09:01:57.095,0.495322,0.162617,-0.767056,0.373949,-1.400922,-2.837001,1.665578,45.532227,-213.378906,131.347656,0,0
14054,2024 10 17,09:01:57.103,0.477052,0.167684,-0.77548,0.378066,-1.876522,-3.183203,2.044984,68.664551,-237.365723,78.430176,0,0
14055,2024 10 17,09:01:57.111,0.461208,0.175399,-0.781325,0.38217,-2.680258,-3.543077,2.139225,87.890625,-193.786621,46.630859,0,0
14056,2024 10 17,09:01:57.120,0.453316,0.182235,-0.782054,0.386894,-2.788171,-3.815546,1.786676,90.087891,-76.416016,14.404297,0,0
14057,2024 10 17,09:01:57.128,0.455474,0.186719,-0.777897,0.390583,-1.966369,-3.712027,0.980499,64.575195,41.931152,-26.123047,0,0
14058,2024 10 17,09:01:57.136,0.462024,0.190723,-0.773114,0.390453,-1.309122,-3.119236,0.561052,18.127441,55.847168,-63.903809,0,0
14059,2024 10 17,09:01:57.145,0.462024,0.190723,-0.773114,0.390453,-1.309122,-3.119236,0.561052,18.127441,55.847168,-63.903809,0,0
14060,2024 10 17,09:01:57.153,0.467567,0.195499,-0.771287,0.385068,-8.168706,0.112796,-6.181829,-40.710449,5.981445,-89.904785,0,0
14061,2024 10 17,09:01:57.161,0.481755,0.209913,-0.769366,0.363214,-2.091861,-3.003021,1.105503,138.244629,257.385254,-267.456055,0,0
14062,2024 10 17,09:01:57.170,0.531833,0.201514,-0.747233,0.343786,1.884823,3.922971,-5.386883,-244.384766,534.729004,-308.47168,1,0
14063,2024 10 17,09:01:57.178,0.534482,0.22104,-0.746028,0.330019,-1.934141,1.007355,3.617786,-16.174316,-188.476563,-293.151855,0,0
14064,2024 10 17,09:01:57.186,0.552483,0.236333,-0.732471,0.319992,-1.407758,-0.109867,-0.287118,29.23584,268.615723,-289.489746,0,0
14065,2024 10 17,09:01:57.195,0.552483,0.236333,-0.732471,0.319992,-1.407758,-0.109867,-0.287118,29.23584,268.615723,-289.489746,0,0
14066,2024 10 17,09:01:57.203,0.565737,0.253291,-0.71804,0.31655,-1.946837,-0.509781,0.538102,103.881836,55.969238,-234.436035,0,0
14067,2024 10 17,09:01:57.211,0.577897,0.264209,-0.705005,0.314955,-1.978576,-0.453627,0.631855,54.748535,200.622559,-157.409668,0,0
14068,2024 10 17,09:01:57.220,0.594793,0.266768,-0.689005,0.316746,-1.044954,0.034181,-1.18363,49.194336,210.388184,-102.966309,0,0
14069,2024 10 17,09:01:57.228,0.602288,0.272414,-0.67802,0.321447,-1.472701,0.116703,0.346202,105.834961,125.976563,-62.927246,0,0
14070,2024 10 17,09:01:57.236,0.61052,0.2766,-0.663583,0.332289,-0.990265,-0.307627,-0.110843,147.460938,194.702148,-25.20752,0,0
14071,2024 10 17,09:01:57.245,0.61052,0.2766,-0.663583,0.332289,-0.990265,-0.307627,-0.110843,147.460938,194.702148,-25.20752,0,0
14072,2024 10 17,09:01:57.253,0.617985,0.279078,-0.651049,0.341094,-0.883328,-0.08301,-0.196295,91.674805,146.789551,-25.024414,0,0
14073,2024 10 17,09:01:57.261,0.623606,0.281016,-0.641454,0.347394,-1.11478,0.107913,0.014649,82.702637,121.459961,-18.859863,0,0
14074,2024 10 17,09:01:57.270,0.62838,0.282813,-0.631289,0.35585,-0.964385,-0.15772,-0.054689,102.722168,129.455566,-0.671387,0,0
14075,2024 10 17,09:01:57.278,0.632702,0.283516,-0.623035,0.362125,-0.641621,-0.079592,0.196295,54.870605,96.740723,-5.126953,0,0
14076,2024 10 17,09:01:57.286,0.634992,0.284103,-0.618609,0.365231,-0.850124,-0.023438,0.218757,35.15625,44.006348,-3.967285,0,0
14077,2024 10 17,09:01:57.295,0.634992,0.284103,-0.618609,0.365231,-0.850124,-0.023438,0.218757,35.15625,44.006348,-3.967285,0,0
14078,2024 10 17,09:01:57.303,0.636251,0.284649,-0.615808,0.367343,-0.953154,0.011231,0.10596,24.414063,32.104492,-2.380371,0,0
14079,2024 10 17,09:01:57.311,0.637363,0.284905,-0.613784,0.3686,-0.940947,0.046876,0.057619,12.512207,22.033691,-4.089355,0,0
14080,2024 10 17,09:01:57.320,0.637977,0.285251,-0.612764,0.368968,-0.993194,0.077639,0.096194,5.79834,9.033203,-6.286621,0,0
14081,2024 10 17,09:01:57.328,0.638558,0.285648,-0.612054,0.368835,-1.004425,0.059084,0.047365,1.831055,6.591797,-9.094238,0,0
14082,2024 10 17,09:01:57.336,0.639101,0.286089,-0.611664,0.368199,-1.022492,0.069338,0.046876,-1.77002,1.708984,-11.779785,0,0
14083,2024 10 17,09:01:57.345,0.639101,0.286089,-0.611664,0.368199,-1.022492,0.069338,0.046876,-1.77002,1.708984,-11.779785,0,0
14084,2024 10 17,09:01:57.353,0.639716,0.286529,-0.611336,0.367332,-1.037141,0.061037,0.031251,-4.272461,2.807617,-13.366699,0,0
14085,2024 10 17,09:01:57.361,0.640458,0.286846,-0.610955,0.366425,-1.038118,0.06299,0.031739,-5.126953,3.967285,-13.061523,0,0
14086,2024 10 17,09:01:57.370,0.641249,0.287101,-0.610498,0.365602,-1.027375,0.076174,0.06006,-4.02832,5.981445,-12.451172,0,0
14087,2024 10 17,09:01:57.378,0.642104,0.287319,-0.609872,0.364975,-1.011261,0.072268,0.059572,-2.502441,7.995605,-11.71875,0,0
14088,2024 10 17,09:01:57.386,0.642931,0.287579,-0.609166,0.364493,-1.012726,0.06592,0.062014,-0.854492,8.544922,-11.047363,0,0
14089,2024 10 17,09:01:57.395,0.64381,0.287793,-0.608382,0.364081,-1.012238,0.056154,0.030274,-1.037598,10.314941,-10.742188,0,0
14090,2024 10 17,09:01:57.403,0.64381,0.287793,-0.608382,0.364081,-1.012238,0.056154,0.030274,-1.037598,10.314941,-10.742188,0,0
14091,2024 10 17,09:01:57.411,0.644785,0.287937,-0.607597,0.363554,-1.010773,0.047853,0.041017,-3.417969,10.437012,-11.779785,0,0
14092,2024 10 17,09:01:57.420,0.645807,0.288043,-0.606884,0.362845,-1.001007,0.056642,0.043458,-4.699707,9.765625,-12.695313,0,0
14093,2024 10 17,09:01:57.428,0.646882,0.288143,-0.606167,0.362049,-1.003449,0.07178,0.047853,-5.737305,9.765625,-13.73291,0,0
14094,2024 10 17,09:01:57.436,0.647959,0.288338,-0.605426,0.361207,-0.998077,0.069826,0.112796,-4.394531,9.765625,-14.831543,0,0
14095,2024 10 17,09:01:57.445,0.649037,0.288715,-0.604495,0.360527,-0.977569,0.041017,0.075686,0.061035,11.169434,-15.258789,0,0
14096,2024 10 17,09:01:57.453,0.649037,0.288715,-0.604495,0.360527,-0.977569,0.041017,0.075686,0.061035,11.169434,-15.258789,0,0
14097,2024 10 17,09:01:57.461,0.65011,0.289153,-0.603514,0.359886,-0.977569,0.058107,0.074221,-0.366211,10.009766,-15.625,0,0
14098,2024 10 17,09:01:57.470,0.651042,0.289696,-0.602675,0.359171,-1.012238,0.055177,0.078127,-0.366211,8.117676,-15.808105,0,0
14099,2024 10 17,09:01:57.478,0.65195,0.290267,-0.601828,0.358482,-1.025422,0.038087,0.055666,0.183105,8.056641,-15.686035,0,0
14100,2024 10 17,09:01:57.486,0.652753,0.290935,-0.601075,0.357742,-1.029328,0.032228,0.078127,0.427246,5.79834,-15.930176,0,0
14101,2024 10 17,09:01:57.495,0.65352,0.291664,-0.600345,0.356972,-1.011261,0.019532,0.103519,0.183105,5.371094,-16.357422,0,0
14102,2024 10 17,09:01:57.503,0.65352,0.291664,-0.600345,0.356972,-1.011261,0.019532,0.103519,0.183105,5.371094,-16.357422,0,0
14103,2024 10 17,09:01:57.511,0.654251,0.292437,-0.599653,0.356164,-1.014191,0.020997,0.093265,0.976563,3.723145,-16.662598,0,0
14104,2024 10 17,09:01:57.520,0.654891,0.293339,-0.599012,0.355322,-1.039582,0.046388,0.105472,1.464844,2.868652,-17.578125,0,0
14105,2024 10 17,09:01:57.528,0.655599,0.294306,-0.598265,0.354475,-1.017609,0.049806,0.08594,0.854492,3.90625,-19.165039,0,0
14106,2024 10 17,09:01:57.536,0.656436,0.295289,-0.597379,0.353602,-1.006867,0.029786,0.099124,2.197266,4.882813,-20.507813,0,0
14107,2024 10 17,09:01:57.545,0.657286,0.296458,-0.596431,0.352644,-1.076205,0.06299,0.121097,2.502441,4.699707,-22.583008,0,0
14108,2024 10 17,09:01:57.553,0.657286,0.296458,-0.596431,0.352644,-1.076205,0.06299,0.121097,2.502441,4.699707,-22.583008,0,0
14109,2024 10 17,09:01:57.561,0.65828,0.297776,-0.595256,0.351664,-1.099155,0.034669,0.082522,5.79834,9.033203,-24.719238,0,0
14110,2024 10 17,09:01:57.570,0.65951,0.299157,-0.593895,0.350487,-1.091342,0.021485,0.119144,5.554199,9.82666,-28.625488,0,0
14111,2024 10 17,09:01:57.578,0.660861,0.300916,-0.592482,0.348822,-1.22074,0.060549,0.153325,-0.793457,4.150391,-38.635254,0,0
14112,2024 10 17,09:01:57.586,0.662683,0.30303,-0.590943,0.346136,-1.261757,-0.011231,0.035157,-2.929688,8.789063,-49.926758,0,0
14113,2024 10 17,09:01:57.595,0.665224,0.305155,-0.589103,0.342512,-1.26957,0.071291,0.087405,-11.291504,9.887695,-61.584473,0,0
14114,2024 10 17,09:01:57.603,0.665224,0.305155,-0.589103,0.342512,-1.26957,0.071291,0.087405,-11.291504,9.887695,-61.584473,0,0
14115,2024 10 17,09:01:57.611,0.668059,0.307848,-0.587082,0.338026,-1.302774,0.087893,0.149907,-13.427734,8.422852,-74.279785,0,0
14116,2024 10 17,09:01:57.620,0.671423,0.310916,-0.584509,0.332973,-1.355022,0.079104,0.110355,-10.498047,14.160156,-84.716797,0,0
14117,2024 10 17,09:01:57.628,0.675212,0.314628,-0.581384,0.327247,-1.348186,0.136235,0.153813,-10.681152,15.380859,-98.266602,0,0
14118,2024 10 17,09:01:57.636,0.679347,0.31912,-0.577379,0.321377,-1.359905,0.107425,0.129887,-2.441406,22.460938,-109.191895,0,0
14119,2024 10 17,09:01:57.645,0.683783,0.324403,-0.572522,0.315311,-1.370159,0.113773,0.160161,4.760742,26.672363,-120.117188,0,0
14120,2024 10 17,09:01:57.653,0.683783,0.324403,-0.572522,0.315311,-1.370159,0.113773,0.160161,4.760742,26.672363,-120.117188,0,0
14121,2024 10 17,09:01:57.661,0.688305,0.330747,-0.567054,0.308694,-1.49028,0.154302,0.218268,10.498047,23.986816,-136.047363,0,0
14122,2024 10 17,09:01:57.670,0.693077,0.338339,-0.560749,0.301217,-1.627979,0.146977,0.067385,17.51709,27.038574,-156.12793,0,0
14123,2024 10 17,09:01:57.678,0.698373,0.347104,-0.55328,0.292703,-1.809626,0.186041,0.10303,22.155762,31.982422,-179.80957,0,0
14124,2024 10 17,09:01:57.686,0.704668,0.356958,-0.544234,0.282548,-2.027406,0.229987,0.012207,18.432617,42.724609,-212.402344,0,0
14125,2024 10 17,09:01:57.695,0.712142,0.367846,-0.533426,0.270183,-2.055727,0.28077,-0.125004,14.770508,50.964355,-249.267578,0,0
14126,2024 10 17,09:01:57.703,0.712142,0.367846,-0.533426,0.270183,-2.055727,0.28077,-0.125004,14.770508,50.964355,-249.267578,0,0
14127,2024 10 17,09:01:57.711,0.71989,0.380405,-0.521714,0.254687,-2.260811,0.397961,-0.064943,10.864258,38.818359,-291.931152,0,0
14128,2024 10 17,09:01:57.720,0.728736,0.39419,-0.507564,0.236508,-2.440992,0.446303,-0.185553,6.04248,59.570313,-337.524414,0,0
14129,2024 10 17,09:01:57.728,0.738901,0.409005,-0.490266,0.215359,-2.683187,0.52443,-0.142094,1.342773,74.09668,-389.404297,0,0
14130,2024 10 17,09:01:57.736,0.750068,0.425009,-0.469283,0.191151,-3.101657,0.634785,0.135746,-1.403809,97.53418,-443.29834,0,0
14131,2024 10 17,09:01:57.745,0.762313,0.44194,-0.443206,0.164733,-3.242775,0.476577,0.332041,3.723145,134.643555,-496.276855,0,0
14132,2024 10 17,09:01:57.753,0.762313,0.44194,-0.443206,0.164733,-3.242775,0.476577,0.332041,3.723145,134.643555,-496.276855,0,0
14133,2024 10 17,09:01:57.761,0.774328,0.460262,-0.412182,0.136679,-3.378521,0.156743,0.187506,17.578125,164.794922,-539.428711,0,0
14134,2024 10 17,09:01:57.770,0.784782,0.479078,-0.378309,0.107161,-3.230567,0.062014,0.129887,28.259277,169.86084,-562.927246,0,0
14135,2024 10 17,09:01:57.778,0.793595,0.496805,-0.342814,0.076613,-2.820887,0.351085,-0.08594,20.996094,169.677734,-571.411133,0,0
14136,2024 10 17,09:01:57.786,0.800364,0.51289,-0.307106,0.045244,-2.818934,0.760765,-0.311533,11.84082,161.865234,-571.655273,0,0
14137,2024 10 17,09:01:57.795,0.804743,0.527744,-0.271486,0.013026,-2.16657,1.000519,-0.335948,18.066406,145.690918,-575.195313,0,1
14138,2024 10 17,09:01:57.803,0.804743,0.527744,-0.271486,0.013026,-2.16657,1.000519,-0.335948,18.066406,145.690918,-575.195313,0,0
14139,2024 10 17,09:01:57.811,0.806734,0.540866,-0.237161,-0.019967,-1.55913,1.169469,-0.759789,9.155273,115.539551,-556.82373,0,0
14140,2024 10 17,09:01:57.820,0.805236,0.552495,-0.208571,-0.053318,-2.294015,0.765648,-0.688009,11.047363,40.039063,-520.935059,0,0
14141,2024 10 17,09:01:57.828,0.804268,0.558515,-0.183537,-0.086766,-0.855495,1.4644,-1.272988,-54.443359,27.954102,-480.957031,0,0
14142,2024 10 17,09:01:57.836,0.805652,0.558957,-0.162035,-0.110618,2.141667,2.443434,-1.119175,-78.674316,59.814453,-304.870605,0,0
14143,2024 10 17,09:01:57.845,0.80637,0.558592,-0.154473,-0.117814,0.730491,1.736381,0.209479,-46.142578,2.990723,-36.071777,0,0
14144,2024 10 17,09:01:57.853,0.809249,0.555335,-0.159194,-0.106661,-0.038087,1.618213,-0.510758,1.342773,35.03418,192.138672,0,0
14145,2024 10 17,09:01:57.861,0.809249,0.555335,-0.159194,-0.106661,-0.038087,1.618213,-0.510758,1.342773,35.03418,192.138672,0,0
14146,2024 10 17,09:01:57.870,0.811503,0.552022,-0.171937,-0.084687,-0.36671,1.387738,-0.465835,23.498535,19.226074,322.509766,0,0
14147,2024 10 17,09:01:57.878,0.811261,0.549986,-0.190053,-0.057017,-0.899441,0.777367,-0.283212,60.48584,-2.01416,380.615234,0,0
14148,2024 10 17,09:01:57.886,0.809772,0.547229,-0.209666,-0.02914,-0.849147,0.449721,-0.734397,54.870605,-11.230469,380.92041,0,0
14149,2024 10 17,09:01:57.895,0.806786,0.544001,-0.230524,-0.004182,-0.789575,0.127445,-0.807154,47.607422,-54.199219,357.23877,0,0
14150,2024 10 17,09:01:57.903,0.803226,0.539375,-0.252263,0.016278,-0.832057,-0.109378,-0.937529,24.719238,-88.439941,325.073242,0,0
14151,2024 10 17,09:01:57.911,0.803226,0.539375,-0.252263,0.016278,-0.832057,-0.109378,-0.937529,24.719238,-88.439941,325.073242,0,0
14152,2024 10 17,09:01:57.920,0.799596,0.5328,-0.275117,0.032869,-0.76516,-0.037111,-0.774438,-7.385254,-120.788574,307.373047,0,0
14153,2024 10 17,09:01:57.928,0.796329,0.523502,-0.299111,0.048362,-0.620624,0.150884,-0.704123,-35.15625,-130.493164,321.350098,0,0
14154,2024 10 17,09:01:57.936,0.793018,0.511194,-0.324908,0.065101,-0.656758,0.304209,-0.620136,-57.250977,-139.282227,358.398438,0,0
14155,2024 10 17,09:01:57.945,0.789055,0.495963,-0.35272,0.083676,-0.891629,0.353526,-0.457533,-72.20459,-145.446777,396.66748,0,0
14156,2024 10 17,09:01:57.953,0.784295,0.478162,-0.38142,0.103739,-1.128452,0.340342,-0.395032,-84.777832,-144.836426,421.447754,0,0
14157,2024 10 17,09:01:57.961,0.784295,0.478162,-0.38142,0.103739,-1.128452,0.340342,-0.395032,-84.777832,-144.836426,421.447754,0,0
14158,2024 10 17,09:01:57.970,0.778631,0.458348,-0.410123,0.124297,-1.294961,0.279305,-0.254402,-94.421387,-142.578125,431.945801,0,0
14159,2024 10 17,09:01:57.978,0.772337,0.437059,-0.437696,0.144556,-1.379437,0.179693,-0.256844,-103.45459,-134.521484,427.490234,0,0
14160,2024 10 17,09:01:57.986,0.765278,0.415027,-0.464258,0.162992,-1.364299,0.12598,-0.158208,-115.112305,-141.845703,408.203125,0,0
14161,2024 10 17,09:01:57.995,0.75733,0.392872,-0.49012,0.178565,-1.321818,0.129887,-0.118168,-124.694824,-155.029297,381.774902,0,0
14162,2024 10 17,09:01:58.003,0.748231,0.371057,-0.515628,0.191296,-1.374065,0.203619,-0.050783,-130.310059,-173.339844,356.994629,0,0
14163,2024 10 17,09:01:58.011,0.748231,0.371057,-0.515628,0.191296,-1.374065,0.203619,-0.050783,-130.310059,-173.339844,356.994629,0,0
14164,2024 10 17,09:01:58.020,0.737816,0.349814,-0.540817,0.201926,-1.503952,0.330576,0.123051,-129.516602,-187.5,338.989258,0,0
14165,2024 10 17,09:01:58.028,0.726082,0.329182,-0.565319,0.211796,-1.659719,0.485366,0.259774,-119.445801,-193.29834,331.176758,0,0
14166,2024 10 17,09:01:58.036,0.71307,0.309216,-0.588641,0.222302,-1.755913,0.596698,0.38966,-99.121094,-189.208984,332.214355,0,0
14167,2024 10 17,09:01:58.045,0.698805,0.290117,-0.610458,0.234191,-1.841853,0.581561,0.373058,-73.547363,-184.326172,335.81543,0,0
14168,2024 10 17,09:01:58.053,0.683031,0.272105,-0.631169,0.247089,-1.929258,0.506851,0.330576,-51.635742,-187.438965,336.120605,0,0
14169,2024 10 17,09:01:58.061,0.683031,0.272105,-0.631169,0.247089,-1.929258,0.506851,0.330576,-51.635742,-187.438965,336.120605,0,0
14170,2024 10 17,09:01:58.070,0.665679,0.255311,-0.651099,0.260302,-2.021058,0.361339,0.26075,-34.240723,-197.570801,331.90918,0,0
14171,2024 10 17,09:01:58.078,0.646607,0.239783,-0.670595,0.273323,-2.211493,0.237312,0.313974,-20.263672,-210.998535,326.11084,0,0
14172,2024 10 17,09:01:58.086,0.626384,0.225346,-0.689119,0.286315,-2.427809,0.145512,0.399915,-5.859375,-214.294434,319.458008,0,0
14173,2024 10 17,09:01:58.095,0.605555,0.212112,-0.706082,0.299597,-2.61922,-0.051759,0.557634,12.573242,-210.388184,310.852051,0,0
14174,2024 10 17,09:01:58.103,0.584747,0.200116,-0.720972,0.313408,-2.795496,-0.383312,0.58742,32.226563,-198.120117,301.513672,0,0
14175,2024 10 17,09:01:58.111,0.584747,0.200116,-0.720972,0.313408,-2.795496,-0.383312,0.58742,32.226563,-198.120117,301.513672,0,0
14176,2024 10 17,09:01:58.120,0.564456,0.189041,-0.733613,0.327819,-2.887295,-0.87112,0.575213,49.621582,-179.443359,294.433594,0,0
14177,2024 10 17,09:01:58.128,0.545313,0.178445,-0.744049,0.34232,-2.795007,-1.530808,0.458998,57.067871,-157.348633,284.179688,0,0
14178,2024 10 17,09:01:58.136,0.52728,0.16868,-0.75306,0.355561,-2.527909,-2.086001,0.482925,51.879883,-148.31543,261.962891,0,0
14179,2024 10 17,09:01:58.145,0.510136,0.160831,-0.76148,0.366119,-2.16364,-2.43025,0.723655,40.588379,-154.174805,222.167969,0,0
14180,2024 10 17,09:01:58.153,0.493674,0.156282,-0.7697,0.373394,-1.898495,-2.606525,1.194372,31.677246,-169.616699,169.311523,0,0
14181,2024 10 17,09:01:58.161,0.493674,0.156282,-0.7697,0.373394,-1.898495,-2.606525,1.194372,31.677246,-169.616699,169.311523,0,0
14182,2024 10 17,09:01:58.170,0.478137,0.155442,-0.777418,0.377947,-1.896542,-2.738365,1.726615,30.883789,-179.138184,117.919922,0,0
14183,2024 10 17,09:01:58.178,0.464641,0.157316,-0.783609,0.381205,-2.188055,-3.065523,2.149968,37.963867,-161.254883,80.01709,0,0
14184,2024 10 17,09:01:58.186,0.455374,0.15954,-0.787093,0.384274,-2.592364,-3.491806,2.108463,40.95459,-101.623535,58.71582,0,0
14185,2024 10 17,09:01:58.195,0.453585,0.160193,-0.786524,0.387271,-2.593829,-3.773064,1.875057,33.874512,5.67627,31.12793,0,0
14186,2024 10 17,09:01:58.203,0.460655,0.159549,-0.781915,0.388523,-1.810114,-3.528916,1.187048,10.620117,99.243164,-17.456055,0,0
14187,2024 10 17,09:01:58.211,0.460655,0.159549,-0.781915,0.388523,-1.810114,-3.528916,1.187048,10.620117,99.243164,-17.456055,0,0
14188,2024 10 17,09:01:58.220,0.469913,0.160918,-0.777311,0.386103,-1.480026,-2.816981,0.995636,-14.953613,78.857422,-66.894531,0,0
14189,2024 10 17,09:01:58.228,0.477907,0.165677,-0.778932,0.370705,-11.464217,-3.271096,1.753471,-241.027832,-64.208984,-201.477051,0,0
14190,2024 10 17,09:01:58.236,0.503188,0.178652,-0.771661,0.345578,-1.228553,-0.832545,-1.791559,-111.38916,362.731934,-302.490234,0,0
14191,2024 10 17,09:01:58.245,0.543743,0.177381,-0.755563,0.319381,0.772973,2.933195,-4.410291,-169.799805,295.166016,-331.970215,0,0
14192,2024 10 17,09:01:58.253,0.547721,0.196792,-0.756765,0.297625,-2.559649,1.321818,3.909299,-97.045898,-83.740234,-338.623047,1,0
14193,2024 10 17,09:01:58.261,0.571827,0.213426,-0.737344,0.28946,-1.176305,-0.295419,-0.838405,89.904785,301.574707,-308.044434,0,0
14194,2024 10 17,09:01:58.270,0.571827,0.213426,-0.737344,0.28946,-1.176305,-0.295419,-0.838404,89.904785,301.574707,-308.044434,0,0
14195,2024 10 17,09:01:58.278,0.584011,0.232531,-0.722189,0.288623,-2.370189,-0.589862,1.428266,135.681152,95.76416,-214.599609,0,0
14196,2024 10 17,09:01:58.286,0.601858,0.240186,-0.703971,0.290694,-1.633351,0.002441,-0.226081,69.763184,296.264648,-133.239746,0,0
14197,2024 10 17,09:01:58.295,0.616382,0.246134,-0.685665,0.298923,-0.900418,-0.175298,-0.5215,141.845703,207.824707,-77.636719,0,0
14198,2024 10 17,09:01:58.303,0.623538,0.253386,-0.672318,0.308196,-1.187536,-0.104984,0.592792,155.883789,154.602051,-42.96875,0,0
14199,2024 10 17,09:01:58.311,0.631825,0.257954,-0.657338,0.319629,-0.73928,-0.3755,-0.26661,136.291504,185.913086,-22.644043,0,0
14200,2024 10 17,09:01:58.320,0.631825,0.257954,-0.657338,0.319629,-0.73928,-0.3755,-0.26661,136.291504,185.913086,-22.644043,0,0
14201,2024 10 17,09:01:58.328,0.637628,0.260559,-0.647521,0.325969,-0.960479,0.007324,-0.06885,76.293945,104.492188,-20.751953,0,0
14202,2024 10 17,09:01:58.336,0.6415,0.263009,-0.639517,0.332147,-1.018098,-0.060549,0.118656,85.388184,101.5625,-7.8125,0,0
14203,2024 10 17,09:01:58.345,0.645552,0.264292,-0.631949,0.337717,-0.753929,-0.137211,-0.026368,56.518555,88.928223,-5.981445,0,0
14204,2024 10 17,09:01:58.353,0.648048,0.264898,-0.627558,0.340638,-0.904813,0.018555,0.271981,32.409668,50.476074,-3.601074,0,0
14205,2024 10 17,09:01:58.361,0.650039,0.265186,-0.623908,0.343315,-0.885281,-0.020997,0.036134,27.526855,46.142578,-0.549316,0,0
14206,2024 10 17,09:01:58.370,0.650039,0.265186,-0.623908,0.343315,-0.885281,-0.020997,0.036134,27.526855,46.142578,-0.549316,0,0
14207,2024 10 17,09:01:58.378,0.6513,0.26534,-0.621752,0.344714,-0.948271,0.063478,0.125004,12.878418,22.827148,-2.258301,0,0
14208,2024 10 17,09:01:58.386,0.652117,0.265532,-0.620398,0.345461,-1.008332,0.082034,0.063967,7.69043,16.540527,-3.967285,0,0
14209,2024 10 17,09:01:58.395,0.652898,0.265848,-0.619423,0.345491,-1.043489,0.071291,0.010254,3.051758,9.94873,-9.643555,0,0
14210,2024 10 17,09:01:58.403,0.653714,0.266288,-0.618754,0.344807,-1.043977,0.066897,0.060549,-2.441406,7.202148,-14.526367,0,0
14211,2024 10 17,09:01:58.411,0.654712,0.266691,-0.618089,0.343793,-1.023957,0.048341,0.02002,-5.432129,7.324219,-16.967773,0,0
14212,2024 10 17,09:01:58.420,0.654712,0.266691,-0.618089,0.343793,-1.023957,0.048341,0.02002,-5.432129,7.324219,-16.967773,0,0
14213,2024 10 17,09:01:58.428,0.655675,0.267037,-0.617699,0.342387,-1.032258,0.051759,0.023438,-9.765625,3.295898,-18.127441,0,0
14214,2024 10 17,09:01:58.436,0.656567,0.267346,-0.617533,0.340733,-1.020539,0.064455,0.054689,-11.901855,1.464844,-18.554688,0,0
14215,2024 10 17,09:01:58.445,0.657446,0.267645,-0.617406,0.339029,-0.993194,0.059084,0.06885,-12.268066,0.610352,-18.859863,0,0
14216,2024 10 17,09:01:58.453,0.658223,0.267983,-0.617371,0.337313,-0.988311,0.064455,0.072268,-11.657715,-1.464844,-18.310547,0,0
14217,2024 10 17,09:01:58.461,0.658882,0.26843,-0.617341,0.335724,-0.986847,0.059084,0.084964,-9.033203,-1.647949,-17.456055,0,0
14218,2024 10 17,09:01:58.470,0.658882,0.26843,-0.617341,0.335724,-0.986847,0.059084,0.084964,-9.033203,-1.647949,-17.456055,0,0
14219,2024 10 17,09:01:58.478,0.659459,0.268975,-0.617193,0.334423,-1.00296,0.04297,0.028809,-6.164551,-0.549316,-16.052246,0,0
14220,2024 10 17,09:01:58.486,0.660021,0.269446,-0.617054,0.333191,-0.987823,0.032716,0.052736,-6.103516,-0.488281,-14.892578,0,0
14221,2024 10 17,09:01:58.495,0.660605,0.269865,-0.616835,0.332098,-1.007355,0.031251,0.042482,-5.249023,1.525879,-13.73291,0,0
14222,2024 10 17,09:01:58.503,0.661291,0.270173,-0.616463,0.331173,-0.980499,0.047853,0.093753,-4.699707,4.516602,-12.512207,0,0
14223,2024 10 17,09:01:58.511,0.661992,0.270467,-0.615968,0.33045,-0.995148,0.046388,0.104495,-2.868652,5.615234,-11.59668,0,0
14224,2024 10 17,09:01:58.520,0.661992,0.270467,-0.615968,0.33045,-0.995148,0.046388,0.104495,-2.868652,5.615234,-11.59668,0,0
14225,2024 10 17,09:01:58.528,0.66273,0.270796,-0.615315,0.329919,-0.999054,0.055666,0.085452,-0.061035,7.446289,-11.230469,0,0
14226,2024 10 17,09:01:58.536,0.663471,0.271239,-0.614568,0.329457,-0.983917,0.037599,0.083987,0.488281,7.93457,-12.084961,0,0
14227,2024 10 17,09:01:58.545,0.664222,0.271749,-0.613799,0.328956,-0.993194,0.032228,0.082034,0.671387,7.263184,-13.061523,0,0
14228,2024 10 17,09:01:58.553,0.664926,0.272348,-0.613115,0.328313,-1.033723,0.020997,0.06006,0.915527,5.92041,-13.977051,0,0
14229,2024 10 17,09:01:58.561,0.665653,0.273037,-0.612346,0.327703,-1.028352,0.014161,0.080569,2.258301,7.019043,-14.526367,0,0
14230,2024 10 17,09:01:58.570,0.665653,0.273037,-0.612346,0.327703,-1.028352,0.014161,0.080569,2.258301,7.019043,-14.526367,0,0
14231,2024 10 17,09:01:58.578,0.666498,0.273695,-0.611425,0.327155,-1.011261,0.026368,0.080569,1.647949,9.399414,-14.892578,0,0
14232,2024 10 17,09:01:58.586,0.667389,0.274362,-0.61036,0.326769,-1.008332,0.029786,0.082522,4.272461,11.291504,-13.916016,0,0
14233,2024 10 17,09:01:58.595,0.668258,0.274983,-0.609282,0.326482,-1.002472,0.0,0.096194,3.78418,11.047363,-13.000488,0,0
14234,2024 10 17,09:01:58.603,0.669139,0.275572,-0.608146,0.326299,-1.006867,0.015137,0.074221,4.943848,12.756348,-12.207031,0,0
14235,2024 10 17,09:01:58.611,0.670096,0.276092,-0.606941,0.32614,-1.030305,0.013672,0.076174,4.272461,13.183594,-12.207031,0,0
14236,2024 10 17,09:01:58.620,0.670096,0.276092,-0.606941,0.32614,-1.030305,0.013672,0.076174,4.272461,13.183594,-12.207031,0,0
14237,2024 10 17,09:01:58.628,0.67099,0.276753,-0.605765,0.325927,-1.07767,0.032228,0.059572,5.432129,13.183594,-13.73291,0,0
14238,2024 10 17,09:01:58.636,0.67217,0.277411,-0.60422,0.325806,-1.033235,0.012696,0.090823,6.347656,18.249512,-15.197754,0,0
14239,2024 10 17,09:01:58.645,0.673353,0.278191,-0.602732,0.325453,-1.031281,0.015625,0.118168,5.065918,15.014648,-18.066406,0,0
14240,2024 10 17,09:01:58.653,0.674558,0.279146,-0.601206,0.324962,-1.041536,0.032716,0.111332,5.126953,15.014648,-20.507813,0,0
14241,2024 10 17,09:01:58.661,0.675813,0.280269,-0.599669,0.324227,-1.07767,0.00586,0.078127,4.943848,13.85498,-23.925781,0,0
14242,2024 10 17,09:01:58.670,0.675813,0.280269,-0.599669,0.324227,-1.07767,0.00586,0.078127,4.943848,13.85498,-23.925781,0,0
14243,2024 10 17,09:01:58.678,0.677109,0.281579,-0.598237,0.32303,-1.119663,0.051271,0.132328,1.77002,10.375977,-29.35791,0,0
14244,2024 10 17,09:01:58.686,0.678567,0.283176,-0.59675,0.321322,-1.230995,0.024415,0.097171,-0.427246,10.314941,-36.92627,0,0
14245,2024 10 17,09:01:58.695,0.680572,0.284886,-0.594988,0.318828,-1.187048,-0.023438,0.055177,-2.990723,14.343262,-46.630859,0,0
14246,2024 10 17,09:01:58.703,0.682851,0.286875,-0.593319,0.31526,-1.241737,0.047853,0.096683,-13.305664,8.239746,-58.105469,0,0
14247,2024 10 17,09:01:58.711,0.685463,0.289237,-0.591436,0.310944,-1.271035,0.054689,0.164556,-13.122559,11.108398,-68.664551,0,0
14248,2024 10 17,09:01:58.720,0.688536,0.292004,-0.589089,0.305985,-1.276406,0.087893,0.169439,-13.061523,13.244629,-79.528809,0,0
14249,2024 10 17,09:01:58.728,0.688536,0.292004,-0.589089,0.305985,-1.276406,0.087893,0.169439,-13.061523,13.244629,-79.528809,0,0
14250,2024 10 17,09:01:58.736,0.691827,0.295459,-0.586257,0.300637,-1.314982,0.092288,0.143559,-8.422852,15.380859,-89.782715,0,0
14251,2024 10 17,09:01:58.745,0.695301,0.299699,-0.58293,0.294837,-1.360393,0.075686,0.187017,-4.394531,16.174316,-101.806641,0,0
14252,2024 10 17,09:01:58.753,0.699231,0.304587,-0.578819,0.288569,-1.425825,0.080569,0.052248,-1.89209,22.705078,-114.074707,0,0
14253,2024 10 17,09:01:58.761,0.703447,0.310295,-0.573898,0.281994,-1.571825,0.06299,0.057619,5.371094,28.259277,-125.915527,0,0
14254,2024 10 17,09:01:58.770,0.708406,0.316676,-0.567935,0.274458,-1.79107,0.080569,0.011719,2.13623,35.827637,-147.888184,0,0
14255,2024 10 17,09:01:58.778,0.708406,0.316676,-0.567935,0.274458,-1.79107,0.080569,0.011719,2.13623,35.827637,-147.888184,0,0
14256,2024 10 17,09:01:58.786,0.71446,0.323782,-0.560637,0.265326,-1.864315,0.113285,-0.079104,-0.793457,48.095703,-174.743652,0,0
14257,2024 10 17,09:01:58.795,0.721556,0.331952,-0.551561,0.254842,-1.953185,0.252937,0.030274,2.13623,61.401367,-203.24707,0,0
14258,2024 10 17,09:01:58.803,0.729378,0.34164,-0.540693,0.242777,-2.172918,0.296884,0.130863,5.371094,68.786621,-238.769531,0,0
14259,2024 10 17,09:01:58.811,0.738058,0.352881,-0.52781,0.22839,-2.176824,0.411145,-0.179693,8.850098,74.401855,-279.785156,0,0
14260,2024 10 17,09:01:58.820,0.746336,0.366494,-0.514105,0.21062,-2.550371,0.397473,-0.054689,9.521484,62.62207,-327.819824,0,0
14261,2024 10 17,09:01:58.828,0.746336,0.366494,-0.514105,0.21062,-2.550371,0.397473,-0.054689,9.521484,62.62207,-327.819824,0,0
14262,2024 10 17,09:01:58.836,0.755913,0.38109,-0.497237,0.190055,-2.823328,0.486831,-0.15479,4.455566,87.95166,-374.938965,0,0
14263,2024 10 17,09:01:58.845,0.766315,0.3971,-0.476834,0.166438,-2.980071,0.47853,0.039552,2.380371,109.863281,-430.419922,0,0
14264,2024 10 17,09:01:58.853,0.777262,0.414221,-0.45243,0.139969,-3.005463,0.271493,-0.04004,2.929688,125.183105,-479.736328,0,0
14265,2024 10 17,09:01:58.861,0.787283,0.432283,-0.425405,0.111117,-3.379498,0.04883,0.311045,9.70459,133.789063,-511.71875,0,0
14266,2024 10 17,09:01:58.870,0.796817,0.449606,-0.395296,0.081719,-2.988372,0.003906,0.030763,4.760742,155.517578,-524.169922,0,1
14267,2024 10 17,09:01:58.878,0.796817,0.449606,-0.395296,0.081719,-2.988372,0.003906,0.030763,4.760742,155.517578,-524.169922,0,0
14268,2024 10 17,09:01:58.886,0.804883,0.465629,-0.364182,0.052201,-2.774987,0.201666,-0.199225,-3.967285,160.095215,-518.737793,0,0
14269,2024 10 17,09:01:58.895,0.811337,0.479706,-0.333289,0.023076,-2.621662,0.39552,-0.381848,-9.521484,150.57373,-504.150391,0,0
14270,2024 10 17,09:01:58.903,0.816502,0.491488,-0.302861,-0.006216,-1.849666,0.993194,-0.761254,-31.005859,143.249512,-495.544434,0,0
14271,2024 10 17,09:01:58.911,0.819713,0.501177,-0.27498,-0.035754,-1.51323,0.93997,-0.960967,-29.724121,95.581055,-470.458984,0,0
14272,2024 10 17,09:01:58.920,0.821057,0.508258,-0.25113,-0.066877,-1.252968,0.964385,-1.308145,-64.39209,47.729492,-458.251953,0,0
14273,2024 10 17,09:01:58.928,0.821057,0.508258,-0.25113,-0.066877,-1.252968,0.964385,-1.308145,-64.39209,47.729492,-458.251953,0,0
14274,2024 10 17,09:01:58.936,0.822581,0.510068,-0.231104,-0.098904,0.831568,0.385754,-2.383862,-116.149902,-0.488281,-409.118652,0,0
14275,2024 10 17,09:01:58.945,0.826202,0.50327,-0.220497,-0.124459,1.49028,0.915555,-0.466323,-179.56543,-65.979004,-214.904785,0,0
14276,2024 10 17,09:01:58.953,0.832701,0.489212,-0.221826,-0.134439,-0.075686,1.589404,-0.677267,-192.749023,-74.462891,15.197754,0,0
14277,2024 10 17,09:01:58.961,0.840294,0.472227,-0.231815,-0.131033,-0.10303,1.900937,0.105472,-171.142578,-82.275391,177.490234,0,0
14278,2024 10 17,09:01:58.970,0.846574,0.457458,-0.245644,-0.117064,-0.469253,1.431684,-0.102542,-98.754883,-59.814453,271.606445,0,0
14279,2024 10 17,09:01:58.978,0.846574,0.457458,-0.245644,-0.117064,-0.469253,1.431684,-0.102542,-98.754883,-59.814453,271.606445,0,0
14280,2024 10 17,09:01:58.986,0.850649,0.445373,-0.260884,-0.099893,-0.511246,1.040071,-0.387707,-56.945801,-63.110352,279.907227,0,0
14281,2024 10 17,09:01:58.995,0.852037,0.436111,-0.277021,-0.084257,-0.385266,0.722678,-0.477065,-23.193359,-89.294434,252.319336,0,0
14282,2024 10 17,09:01:59.003,0.851062,0.429087,-0.294138,-0.071139,-0.351085,0.514664,-0.539079,-1.77002,-116.210938,226.501465,0,0
14283,2024 10 17,09:01:59.011,0.848338,0.423154,-0.312606,-0.0595,-0.418958,0.568865,-0.39845,12.145996,-140.197754,218.62793,0,0
14284,2024 10 17,09:01:59.020,0.844395,0.417463,-0.332334,-0.04771,-0.470229,0.614277,-0.323252,21.484375,-154.174805,228.088379,0,0
14285,2024 10 17,09:01:59.028,0.844395,0.417463,-0.332334,-0.04771,-0.470229,0.614277,-0.323252,21.484375,-154.174805,228.088379,0,0
14286,2024 10 17,09:01:59.036,0.839461,0.411338,-0.35343,-0.034555,-0.582049,0.550798,-0.301767,26.794434,-163.208008,251.77002,0,0
14287,2024 10 17,09:01:59.045,0.833808,0.404026,-0.375693,-0.019559,-0.709006,0.474136,-0.296884,25.024414,-168.273926,279.11377,0,0
14288,2024 10 17,09:01:59.053,0.827459,0.395225,-0.398869,-0.003458,-0.838893,0.331065,-0.246101,17.39502,-175.476074,297.241211,0,0
14289,2024 10 17,09:01:59.061,0.820529,0.384794,-0.422505,0.012458,-0.926786,0.17481,-0.248543,1.342773,-184.020996,301.757813,0,0
14290,2024 10 17,09:01:59.070,0.813085,0.372482,-0.446582,0.026742,-0.934599,0.086428,-0.211432,-24.963379,-199.462891,295.593262,0,0
14291,2024 10 17,09:01:59.078,0.813085,0.372482,-0.446582,0.026742,-0.934599,0.086428,-0.211432,-24.963379,-199.462891,295.593262,0,0
14292,2024 10 17,09:01:59.086,0.805052,0.358066,-0.47139,0.038358,-1.030305,0.033692,-0.122074,-57.250977,-221.618652,284.179688,0,0
14293,2024 10 17,09:01:59.095,0.796476,0.34132,-0.496899,0.047084,-1.20365,0.064455,0.019532,-92.468262,-240.783691,274.230957,0,0
14294,2024 10 17,09:01:59.103,0.787574,0.322056,-0.522622,0.053604,-1.402875,0.176763,0.186529,-125.671387,-249.633789,270.446777,0,0
14295,2024 10 17,09:01:59.111,0.778578,0.300318,-0.547873,0.05883,-1.531297,0.30372,0.374523,-152.709961,-247.131348,272.644043,0,0
14296,2024 10 17,09:01:59.120,0.769682,0.27647,-0.571933,0.063609,-1.599658,0.367687,0.467788,-171.569824,-235.046387,277.709961,0,0
14297,2024 10 17,09:01:59.128,0.769682,0.27647,-0.571933,0.063609,-1.599658,0.367687,0.467788,-171.569824,-235.046387,277.709961,0,0
14298,2024 10 17,09:01:59.136,0.760747,0.251046,-0.594637,0.068163,-1.648,0.417982,0.552751,-184.204102,-224.243164,281.188965,0,0
14299,2024 10 17,09:01:59.145,0.751549,0.224582,-0.616029,0.072425,-1.628956,0.445326,0.559099,-192.382813,-216.186523,281.555176,0,0
14300,2024 10 17,09:01:59.153,0.741677,0.197655,-0.636396,0.07647,-1.648976,0.468276,0.59621,-193.969727,-213.745117,280.944824,0,0
14301,2024 10 17,09:01:59.161,0.730951,0.170704,-0.655825,0.080399,-1.735404,0.486343,0.561541,-191.52832,-213.439941,278.442383,0,0
14302,2024 10 17,09:01:59.170,0.719159,0.144143,-0.674498,0.084172,-1.854061,0.453627,0.603534,-186.462402,-216.430664,273.4375,0,0
14303,2024 10 17,09:01:59.178,0.706361,0.118171,-0.692388,0.087685,-1.966857,0.360851,0.598163,-181.274414,-219.482422,266.845703,0,0
14304,2024 10 17,09:01:59.186,0.706361,0.118171,-0.692388,0.087685,-1.966857,0.360851,0.598163,-181.274414,-219.482422,266.845703,0,0
14305,2024 10 17,09:01:59.195,0.692535,0.092874,-0.709573,0.090972,-2.099185,0.226081,0.684591,-175.78125,-223.327637,260.925293,0,0
14306,2024 10 17,09:01:59.203,0.67792,0.068432,-0.725883,0.094001,-2.220283,0.045412,0.860378,-169.189453,-223.815918,252.258301,0,0
14307,2024 10 17,09:01:59.211,0.662785,0.045143,-0.74116,0.096748,-2.308176,-0.124027,1.018098,-160.583496,-223.266602,241.271973,0,0
14308,2024 10 17,09:01:59.220,0.647274,0.023165,-0.755379,0.099507,-2.408277,-0.31251,1.196326,-148.498535,-219.970703,232.299805,0,0
14309,2024 10 17,09:01:59.228,0.631897,0.002251,-0.768205,0.10277,-2.47029,-0.636738,1.33256,-134.521484,-208.80127,229.553223,0,0
14310,2024 10 17,09:01:59.236,0.631897,0.002251,-0.768205,0.10277,-2.47029,-0.636738,1.33256,-134.521484,-208.80127,229.553223,0,0
14311,2024 10 17,09:01:59.245,0.617251,-0.017539,-0.779301,0.106695,-2.487381,-1.124546,1.46733,-117.614746,-191.345215,224.243164,0,0
14312,2024 10 17,09:01:59.253,0.603777,-0.035171,-0.788671,0.110515,-2.433668,-1.583056,1.680227,-100.891113,-171.630859,200.927734,0,0
14313,2024 10 17,09:01:59.261,0.591961,-0.049356,-0.796452,0.113181,-2.127018,-1.868221,1.97467,-84.228516,-151.062012,158.447266,0,0
14314,2024 10 17,09:01:59.270,0.581831,-0.059477,-0.802986,0.114667,-1.779351,-1.964415,2.337474,-63.720703,-133.666992,113.220215,0,0
14315,2024 10 17,09:01:59.278,0.573621,-0.065822,-0.808195,0.11596,-1.718314,-2.023011,2.691,-35.339355,-111.450195,78.674316,0,0
14316,2024 10 17,09:01:59.286,0.573621,-0.065822,-0.808195,0.11596,-1.718314,-2.023011,2.691,-35.339355,-111.450195,78.674316,0,0
14317,2024 10 17,09:01:59.295,0.568665,-0.069022,-0.811124,0.118041,-1.787652,-2.2696,2.735435,-1.281738,-66.650391,54.931641,0,0
14318,2024 10 17,09:01:59.303,0.568024,-0.069754,-0.811132,0.120614,-1.77105,-2.562578,2.432203,24.108887,-8.728027,32.775879,0,0
14319,2024 10 17,09:01:59.311,0.564896,-0.06891,-0.814695,0.111428,-5.849299,-0.04297,14.308054,-200.317383,-131.408691,-116.821289,0,0
14320,2024 10 17,09:01:59.320,0.593189,-0.056038,-0.795977,0.106808,0.150395,-2.717368,-1.59624,-8.300781,449.951172,-157.043457,1,0
14321,2024 10 17,09:01:59.328,0.609481,-0.054466,-0.785746,0.09039,-0.877468,2.373608,2.245186,-6.591797,124.206543,-137.145996,0,0
14322,2024 10 17,09:01:59.336,0.609481,-0.054466,-0.785746,0.09039,-0.877468,2.373608,2.245186,-6.591797,124.206543,-137.145996,0,0
14323,2024 10 17,09:01:59.345,0.621093,-0.044383,-0.777843,0.08505,-2.020081,1.701224,-0.135746,-78.00293,179.6875,-149.291992,0,0
14324,2024 10 17,09:01:59.353,0.633129,-0.033926,-0.769045,0.081037,-1.691458,-1.039094,1.020539,98.571777,144.775391,-125.305176,0,0
14325,2024 10 17,09:01:59.361,0.646356,-0.024736,-0.758963,0.074749,-0.934111,0.127934,0.212409,14.282227,176.940918,-122.192383,0,0
14326,2024 10 17,09:01:59.370,0.655703,-0.016771,-0.751204,0.073926,-1.07474,-0.303232,0.269539,62.744141,123.962402,-66.345215,0,0
14327,2024 10 17,09:01:59.378,0.663682,-0.011312,-0.744092,0.075671,-1.027375,0.208991,-0.059084,75.378418,110.473633,-31.860352,0,0
14328,2024 10 17,09:01:59.386,0.663682,-0.011312,-0.744092,0.075671,-1.027375,0.208991,-0.059084,75.378418,110.473633,-31.860352,0,0
14329,2024 10 17,09:01:59.395,0.671274,-0.004673,-0.736907,0.079606,-1.035188,-0.076174,-0.285165,88.012695,119.628906,-33.508301,0,0
14330,2024 10 17,09:01:59.403,0.679193,0.00062,-0.729428,0.081434,-0.956572,-0.035157,-0.237312,59.997559,117.370605,-36.254883,0,0
14331,2024 10 17,09:01:59.411,0.686418,0.004911,-0.72241,0.083241,-1.006378,-0.047365,-0.223151,53.283691,110.839844,-24.414063,0,0
14332,2024 10 17,09:01:59.420,0.692899,0.00815,-0.715932,0.085237,-0.971221,-0.029786,0.016602,45.288086,99.914551,-15.136719,0,0
14333,2024 10 17,09:01:59.428,0.698717,0.010107,-0.710089,0.086406,-0.863308,0.067385,0.193365,26.977539,88.134766,-12.084961,0,0
14334,2024 10 17,09:01:59.436,0.698717,0.010107,-0.710089,0.086406,-0.863308,0.067385,0.193365,26.977539,88.134766,-12.084961,0,0
14335,2024 10 17,09:01:59.445,0.70326,0.011559,-0.705445,0.087406,-0.864284,0.088382,0.19776,22.705078,66.162109,-7.8125,0,0
14336,2024 10 17,09:01:59.453,0.706643,0.012878,-0.701883,0.0886,-0.943876,0.030274,0.043458,22.216797,50.476074,-4.333496,0,0
14337,2024 10 17,09:01:59.461,0.70922,0.013831,-0.699143,0.089519,-0.931669,0.066897,0.082522,16.845703,39.001465,-2.441406,0,0
14338,2024 10 17,09:01:59.470,0.711154,0.014636,-0.69704,0.09045,-0.946806,0.075198,0.061037,15.686035,29.785156,-0.854492,0,0
14339,2024 10 17,09:01:59.478,0.712633,0.015328,-0.695415,0.0912,-0.995636,0.080569,-0.00586,11.962891,22.766113,-1.159668,0,0
14340,2024 10 17,09:01:59.486,0.712633,0.015328,-0.695415,0.0912,-0.995636,0.080569,-0.00586,11.962891,22.766113,-1.159668,0,0
14341,2024 10 17,09:01:59.495,0.713885,0.015834,-0.694045,0.091757,-1.004913,0.06885,-0.026856,8.361816,20.629883,-0.915527,0,0
14342,2024 10 17,09:01:59.503,0.715063,0.016118,-0.692775,0.092134,-1.014191,0.063967,-0.005371,5.554199,19.836426,-0.366211,0,0
14343,2024 10 17,09:01:59.511,0.716278,0.016172,-0.691489,0.092348,-1.01175,0.090823,-0.001465,2.685547,20.507813,0.061035,0,0
14344,2024 10 17,09:01:59.520,0.717508,0.016205,-0.690175,0.092616,-1.001984,0.0918,0.024903,3.723145,20.751953,0.366211,0,0
14345,2024 10 17,09:01:59.528,0.718768,0.016257,-0.688818,0.092937,-0.998077,0.098148,0.024903,4.333496,21.240234,0.732422,0,0
14346,2024 10 17,09:01:59.536,0.718768,0.016257,-0.688818,0.092937,-0.998077,0.098148,0.024903,4.333496,21.240234,0.732422,0,0
14347,2024 10 17,09:01:59.545,0.72002,0.016409,-0.687451,0.093345,-1.007843,0.092288,0.011231,6.225586,21.30127,0.671387,0,0
14348,2024 10 17,09:01:59.553,0.721307,0.016605,-0.686036,0.093785,-1.017609,0.084475,-0.011231,6.347656,22.033691,0.305176,0,0
14349,2024 10 17,09:01:59.561,0.722635,0.016787,-0.684586,0.094125,-1.017609,0.081057,-0.003906,5.371094,22.766113,-0.427246,0,0
14350,2024 10 17,09:01:59.570,0.724,0.016912,-0.683118,0.094273,-1.01175,0.104984,0.015137,2.807617,23.254395,-1.77002,0,0
14351,2024 10 17,09:01:59.578,0.725413,0.017099,-0.681599,0.094373,-0.98587,0.090823,0.036134,4.02832,23.742676,-2.563477,0,0
14352,2024 10 17,09:01:59.586,0.725413,0.017099,-0.681599,0.094373,-0.98587,0.090823,0.036134,4.02832,23.742676,-2.563477,0,0
14353,2024 10 17,09:01:59.595,0.726808,0.017335,-0.680095,0.094448,-0.970733,0.091311,0.06592,3.90625,23.132324,-3.112793,0,0
14354,2024 10 17,09:01:59.603,0.72816,0.017595,-0.678628,0.094537,-0.972198,0.100101,0.070803,4.211426,22.216797,-2.990723,0,0
14355,2024 10 17,09:01:59.611,0.729475,0.01793,-0.677184,0.094693,-0.983917,0.090823,0.046876,5.249023,21.911621,-3.051758,0,0
14356,2024 10 17,09:01:59.620,0.73081,0.018255,-0.675707,0.094894,-0.998566,0.079592,0.047853,5.493164,22.521973,-2.441406,0,0
14357,2024 10 17,09:01:59.628,0.732218,0.018544,-0.674148,0.095068,-0.98294,0.076174,0.050783,5.004883,24.536133,-2.502441,0,0
14358,2024 10 17,09:01:59.636,0.733669,0.018756,-0.672546,0.095185,-0.991729,0.071291,0.057131,3.540039,24.841309,-2.380371,0,0
14359,2024 10 17,09:01:59.645,0.733669,0.018756,-0.672546,0.095185,-0.991729,0.071291,0.057131,3.540039,24.841309,-2.380371,0,0
14360,2024 10 17,09:01:59.653,0.735132,0.018902,-0.670931,0.095268,-0.952178,0.06885,0.082034,3.90625,24.597168,-2.258301,0,0
14361,2024 10 17,09:01:59.661,0.736523,0.019084,-0.669377,0.095415,-0.980987,0.082522,0.151372,5.493164,23.925781,-1.647949,0,0
14362,2024 10 17,09:01:59.670,0.738017,0.019285,-0.667696,0.095609,-0.964873,0.101566,0.035157,4.699707,24.780273,-2.197266,0,0
14363,2024 10 17,09:01:59.678,0.739185,0.019576,-0.666365,0.095811,-1.038118,0.094729,0.109378,4.577637,19.40918,-2.380371,0,0
14364,2024 10 17,09:01:59.686,0.740516,0.019915,-0.664848,0.095996,-1.035188,0.080569,0.071291,5.493164,23.681641,-3.234863,0,0
14365,2024 10 17,09:01:59.695,0.740516,0.019915,-0.664848,0.095996,-1.035188,0.080569,0.071291,5.493164,23.681641,-3.234863,0,0
14366,2024 10 17,09:01:59.703,0.741892,0.020313,-0.663284,0.096112,-1.02591,0.076662,0.070803,5.249023,23.31543,-4.394531,0,0
14367,2024 10 17,09:01:59.711,0.743297,0.020691,-0.661702,0.096082,-0.992706,0.077639,0.081057,4.272461,24.475098,-5.615234,0,0
14368,2024 10 17,09:01:59.720,0.744742,0.021105,-0.660081,0.095955,-0.994659,0.064455,0.084475,5.249023,24.536133,-6.591797,0,0
14369,2024 10 17,09:01:59.728,0.746257,0.021615,-0.658387,0.095712,-1.03177,0.074709,0.095218,4.882813,25.817871,-8.422852,0,0
14370,2024 10 17,09:01:59.736,0.747881,0.022285,-0.656561,0.095422,-1.02884,0.099124,0.089846,5.065918,27.282715,-10.009766,0,0
14371,2024 10 17,09:01:59.745,0.747881,0.022285,-0.656561,0.095422,-1.02884,0.099124,0.089846,5.065918,27.282715,-10.009766,0,0
14372,2024 10 17,09:01:59.753,0.749463,0.023119,-0.654797,0.094932,-1.026399,0.108402,0.128422,5.065918,26.000977,-13.244629,0,0
14373,2024 10 17,09:01:59.761,0.75105,0.024191,-0.653014,0.094405,-1.027863,0.089358,0.085452,6.286621,26.062012,-15.50293,0,0
14374,2024 10 17,09:01:59.770,0.752487,0.025337,-0.651436,0.093556,-1.044465,0.077639,0.072756,4.577637,22.094727,-19.226074,0,0
14375,2024 10 17,09:01:59.778,0.753762,0.026567,-0.65009,0.092303,-1.055208,0.076662,0.124027,3.356934,20.019531,-22.705078,0,0
14376,2024 10 17,09:01:59.786,0.755122,0.028006,-0.648642,0.09094,-1.040559,0.076174,0.124516,3.662109,20.446777,-24.963379,0,0
14377,2024 10 17,09:01:59.795,0.755122,0.028006,-0.648642,0.09094,-1.040559,0.076174,0.124516,3.662109,20.446777,-24.963379,0,0
14378,2024 10 17,09:01:59.803,0.756253,0.029668,-0.647451,0.08949,-1.076693,0.061037,0.086428,4.821777,15.014648,-27.099609,0,0
14379,2024 10 17,09:01:59.811,0.757174,0.031568,-0.646503,0.087885,-1.099643,0.056154,0.106937,6.591797,12.634277,-29.724121,0,0
14380,2024 10 17,09:01:59.820,0.758035,0.033583,-0.645649,0.085974,-1.138707,0.093753,0.133305,4.699707,11.169434,-33.325195,0,0
14381,2024 10 17,09:01:59.828,0.758697,0.036221,-0.644996,0.083953,-1.209021,0.094729,0.095218,8.239746,6.896973,-39.733887,0,0
14382,2024 10 17,09:01:59.836,0.759426,0.039493,-0.644247,0.081597,-1.206092,0.018067,0.166509,13.427734,8.178711,-47.912598,0,0
14383,2024 10 17,09:01:59.845,0.759426,0.039493,-0.644247,0.081597,-1.206092,0.018067,0.166509,13.427734,8.178711,-47.912598,0,0
14384,2024 10 17,09:01:59.853,0.760074,0.04322,-0.643686,0.07802,-1.549852,0.138188,0.038087,0.305176,2.746582,-64.025879,0,0
14385,2024 10 17,09:01:59.861,0.761114,0.047126,-0.642818,0.072595,-1.521531,0.057131,0.261238,-6.896973,15.930176,-81.90918,0,0
14386,2024 10 17,09:01:59.870,0.76339,0.050877,-0.640619,0.065224,-1.381878,0.140141,0.011231,-21.42334,29.968262,-99.42627,0,0
14387,2024 10 17,09:01:59.878,0.765313,0.055242,-0.638767,0.056756,-1.475631,0.092776,0.167486,-23.742676,22.094727,-112.792969,0,0
14388,2024 10 17,09:01:59.886,0.767729,0.060072,-0.636213,0.047075,-1.531785,0.120121,0.130375,-29.846191,34.606934,-128.295898,0,0
14389,2024 10 17,09:01:59.895,0.767729,0.060072,-0.636213,0.047075,-1.531785,0.120121,0.130375,-29.846191,34.606934,-128.295898,0,0
14390,2024 10 17,09:01:59.903,0.770502,0.065556,-0.633025,0.036157,-1.554247,0.125004,0.004395,-33.996582,39.672852,-145.019531,0,0
14391,2024 10 17,09:01:59.911,0.773261,0.072037,-0.629516,0.024237,-1.649953,0.118168,0.023438,-27.526855,42.541504,-161.132813,0,0
14392,2024 10 17,09:01:59.920,0.776481,0.079878,-0.624947,0.011734,-1.868709,0.115238,-0.018067,-20.935059,56.640625,-178.161621,0,0
14393,2024 10 17,09:01:59.928,0.780401,0.089108,-0.618894,-0.002053,-2.013733,0.110355,-0.139164,-18.798828,74.890137,-203.735352,0,0
14394,2024 10 17,09:01:59.936,0.7848,0.099823,-0.6114,-0.017699,-2.205634,0.200201,-0.170415,-17.883301,88.623047,-233.642578,0,0
14395,2024 10 17,09:01:59.945,0.7848,0.099823,-0.6114,-0.017699,-2.205634,0.200201,-0.170415,-17.883301,88.623047,-233.642578,0,0
14396,2024 10 17,09:01:59.953,0.788864,0.112413,-0.603154,-0.035528,-2.403394,0.346202,-0.188482,-17.089844,85.998535,-270.690918,0,0
14397,2024 10 17,09:01:59.961,0.791975,0.127451,-0.594477,-0.055933,-2.783288,0.528825,-0.070803,-11.59668,87.585449,-314.453125,0,0
14398,2024 10 17,09:01:59.970,0.795567,0.145351,-0.582951,-0.0782,-2.958098,0.416517,-0.165044,2.13623,119.384766,-356.506348,0,0
14399,2024 10 17,09:01:59.978,0.799263,0.165609,-0.568469,-0.102935,-2.684652,0.252449,-0.325694,-1.281738,144.042969,-399.536133,0,0
14400,2024 10 17,09:01:59.986,0.80155,0.187091,-0.552706,-0.1305,-2.887784,0.113285,-0.160649,-7.69043,135.314941,-433.898926,0,0
14401,2024 10 17,09:01:59.995,0.80155,0.187091,-0.552706,-0.1305,-2.887784,0.113285,-0.160649,-7.69043,135.314941,-433.898926,0,0
14402,2024 10 17,09:02:00.003,0.803214,0.208059,-0.534964,-0.159287,-2.90878,0.172369,0.193365,-23.193359,160.03418,-441.772461,0,1
14403,2024 10 17,09:02:00.011,0.805686,0.227529,-0.513734,-0.187559,-2.115787,0.236335,-0.30665,-43.151855,184.814453,-430.725098,0,0
14404,2024 10 17,09:02:00.020,0.806995,0.244973,-0.492627,-0.214628,-2.025452,0.309091,-0.375988,-48.278809,171.081543,-406.860352,0,0
14405,2024 10 17,09:02:00.028,0.806992,0.259817,-0.472083,-0.241654,-1.376507,0.468276,-0.582537,-74.645996,149.719238,-397.766113,0,0
14406,2024 10 17,09:02:00.036,0.805103,0.271097,-0.453729,-0.269158,-0.304209,0.310556,-1.078158,-94.299316,96.862793,-372.314453,0,0
14407,2024 10 17,09:02:00.045,0.805103,0.271097,-0.453729,-0.269158,-0.304209,0.310556,-1.078158,-94.299316,96.862793,-372.314453,0,0
14408,2024 10 17,09:02:00.053,0.801426,0.277259,-0.439685,-0.29584,1.594287,0.644063,-1.931211,-131.958008,40.771484,-316.40625,0,0
14409,2024 10 17,09:02:00.061,0.798537,0.27215,-0.431071,-0.320079,1.085971,0.48732,-1.940001,-205.871582,-74.829102,-195.495605,0,0
14410,2024 10 17,09:02:00.070,0.795941,0.255842,-0.432161,-0.338022,-1.307169,1.341838,0.043947,-237.365723,-122.253418,-58.532715,0,0
14411,2024 10 17,09:02:00.078,0.797912,0.236195,-0.430814,-0.349211,-0.360851,1.895566,-0.5215,-230.041504,-86.730957,2.13623,0,0
14412,2024 10 17,09:02:00.086,0.79898,0.220319,-0.432696,-0.354773,-0.230476,1.53325,-0.010254,-148.193359,-82.580566,35.888672,0,0
14413,2024 10 17,09:02:00.095,0.798309,0.208987,-0.436824,-0.358066,0.050295,1.168004,-0.331553,-82.15332,-105.163574,25.085449,0,0
14414,2024 10 17,09:02:00.103,0.798309,0.208987,-0.436824,-0.358066,0.050295,1.168004,-0.331553,-82.15332,-105.163574,25.085449,0,0
14415,2024 10 17,09:02:00.111,0.794568,0.200643,-0.445239,-0.360785,0.159185,1.165075,-0.312021,-31.433105,-145.202637,17.578125,0,0
14416,2024 10 17,09:02:00.120,0.788669,0.193987,-0.457584,-0.361921,-0.128422,1.075228,-0.252449,9.765625,-180.175781,28.137207,0,0
14417,2024 10 17,09:02:00.128,0.781862,0.187741,-0.472599,-0.360687,-0.35255,0.978057,-0.193854,34.667969,-196.228027,51.330566,0,0
14418,2024 10 17,09:02:00.136,0.775138,0.181057,-0.488898,-0.356871,-0.472182,0.792505,-0.158208,46.386719,-201.293945,80.749512,0,0
14419,2024 10 17,09:02:00.145,0.768834,0.172941,-0.505718,-0.35105,-0.499039,0.574725,-0.116703,41.442871,-205.383301,109.130859,0,0
14420,2024 10 17,09:02:00.153,0.768834,0.172941,-0.505718,-0.35105,-0.499039,0.574725,-0.116703,41.442871,-205.383301,109.130859,0,0
14421,2024 10 17,09:02:00.161,0.762979,0.162227,-0.522565,-0.344197,-0.52736,0.394543,-0.124516,18.981934,-212.341309,135.009766,0,0
14422,2024 10 17,09:02:00.170,0.757293,0.147991,-0.539154,-0.337519,-0.608417,0.185064,-0.11475,-18.798828,-224.731445,152.893066,0,0
14423,2024 10 17,09:02:00.178,0.751392,0.129571,-0.555091,-0.332408,-0.829615,0.141118,-0.010254,-70.068359,-239.074707,161.621094,0,0
14424,2024 10 17,09:02:00.186,0.745372,0.10704,-0.569696,-0.329257,-1.084018,0.262703,0.195318,-121.520996,-244.07959,167.602539,0,0
14425,2024 10 17,09:02:00.195,0.739837,0.081104,-0.582101,-0.327447,-1.26371,0.434584,0.363292,-165.283203,-233.276367,177.55127,0,0
14426,2024 10 17,09:02:00.203,0.739837,0.081104,-0.582101,-0.327447,-1.26371,0.434584,0.363292,-165.283203,-233.276367,177.55127,0,0
14427,2024 10 17,09:02:00.211,0.735138,0.052648,-0.591968,-0.32615,-1.316446,0.531266,0.515152,-196.594238,-215.820313,190.185547,0,0
14428,2024 10 17,09:02:00.220,0.731053,0.022422,-0.599464,-0.325118,-1.225623,0.563494,0.551286,-220.703125,-200.683594,199.462891,0,0
14429,2024 10 17,09:02:00.228,0.726663,-0.009065,-0.60546,-0.324496,-1.201697,0.593768,0.596698,-237.976074,-199.09668,201.23291,0,0
14430,2024 10 17,09:02:00.236,0.721297,-0.041234,-0.610576,-0.324389,-1.275918,0.652364,0.656758,-249.145508,-201.11084,197.08252,0,0
14431,2024 10 17,09:02:00.245,0.714985,-0.073473,-0.614975,-0.324351,-1.343303,0.740257,0.714377,-250.732422,-201.965332,194.335938,0,0
14432,2024 10 17,09:02:00.253,0.714985,-0.073473,-0.614975,-0.324351,-1.343303,0.740257,0.714377,-250.732422,-201.965332,194.335938,0,0
14433,2024 10 17,09:02:00.261,0.708052,-0.105351,-0.61869,-0.323707,-1.371136,0.799829,0.709006,-244.750977,-200.317383,195.678711,0,0
14434,2024 10 17,09:02:00.270,0.700504,-0.136556,-0.622076,-0.321974,-1.419477,0.800806,0.700705,-232.36084,-201.538086,197.692871,0,0
14435,2024 10 17,09:02:00.278,0.69227,-0.166732,-0.62545,-0.319022,-1.481002,0.767602,0.697287,-215.820313,-205.13916,197.08252,0,0
14436,2024 10 17,09:02:00.286,0.683283,-0.195509,-0.629071,-0.314912,-1.542528,0.726585,0.688986,-196.838379,-210.266113,192.382813,0,0
14437,2024 10 17,09:02:00.295,0.673511,-0.222694,-0.633136,-0.309726,-1.605518,0.700705,0.744652,-176.940918,-216.247559,185.546875,0,0
14438,2024 10 17,09:02:00.303,0.673511,-0.222694,-0.633136,-0.309726,-1.605518,0.700705,0.744652,-176.940918,-216.247559,185.546875,0,0
14439,2024 10 17,09:02:00.311,0.663121,-0.248139,-0.637628,-0.303526,-1.664113,0.671896,0.824732,-156.005859,-220.88623,177.67334,0,0
14440,2024 10 17,09:02:00.320,0.652335,-0.27174,-0.642493,-0.296343,-1.746635,0.589373,0.908719,-135.375977,-222.839355,169.73877,0,0
14441,2024 10 17,09:02:00.328,0.641356,-0.293833,-0.647411,-0.288414,-1.77691,0.464858,0.956572,-121.032715,-222.106934,165.466309,0,0
14442,2024 10 17,09:02:00.336,0.630227,-0.315171,-0.651982,-0.280001,-1.853084,0.312021,1.054231,-116.760254,-219.787598,166.19873,0,0
14443,2024 10 17,09:02:00.345,0.619072,-0.33647,-0.655482,-0.271811,-1.984436,0.084475,1.188513,-125.0,-209.838867,170.288086,0,0
14444,2024 10 17,09:02:00.353,0.619072,-0.33647,-0.655482,-0.271811,-1.984436,0.084475,1.188513,-125.0,-209.838867,170.288086,0,0
14445,2024 10 17,09:02:00.361,0.608486,-0.358369,-0.656621,-0.264889,-2.131413,-0.145024,1.242225,-147.277832,-182.189941,179.382324,0,0
14446,2024 10 17,09:02:00.370,0.598916,-0.380846,-0.654616,-0.260257,-2.132389,-0.345225,1.299844,-174.987793,-143.371582,183.105469,0,0
14447,2024 10 17,09:02:00.378,0.590126,-0.403199,-0.649862,-0.258576,-1.901425,-0.561541,1.224158,-199.523926,-108.154297,174.499512,0,0
14448,2024 10 17,09:02:00.386,0.581272,-0.424789,-0.643745,-0.259364,-1.653859,-0.750511,1.174841,-214.233398,-89.538574,157.409668,0,0
14449,2024 10 17,09:02:00.395,0.571751,-0.444751,-0.637837,-0.261651,-1.471236,-0.857936,1.377483,-212.524414,-87.219238,130.67627,0,0
14450,2024 10 17,09:02:00.403,0.571751,-0.444751,-0.637837,-0.261651,-1.471236,-0.857936,1.377483,-212.524414,-87.219238,130.67627,0,0
14451,2024 10 17,09:02:00.411,0.561954,-0.461844,-0.633191,-0.264532,-1.406781,-0.8511,1.693411,-190.429688,-86.975098,97.900391,0,0
14452,2024 10 17,09:02:00.420,0.553075,-0.475193,-0.630104,-0.266962,-1.418012,-0.856471,2.061098,-149.414063,-80.444336,70.3125,0,0
14453,2024 10 17,09:02:00.428,0.546833,-0.484548,-0.627818,-0.268385,-1.447798,-0.952666,2.188055,-98.266602,-57.983398,54.56543,0,0
14454,2024 10 17,09:02:00.436,0.544079,-0.489965,-0.62584,-0.268769,-1.4185,-1.235878,2.12067,-46.813965,-27.46582,42.724609,0,0
14455,2024 10 17,09:02:00.445,0.544161,-0.491913,-0.624196,-0.268867,-1.291055,-1.512741,1.953185,-9.82666,-1.403809,26.916504,0,0
14456,2024 10 17,09:02:00.453,0.544161,-0.491913,-0.624196,-0.268867,-1.291055,-1.512741,1.953185,-9.82666,-1.403809,26.916504,0,0
14457,2024 10 17,09:02:00.461,0.545814,-0.491197,-0.623075,-0.269427,-1.269082,-1.558153,1.810602,11.047363,16.540527,6.591797,0,0
14458,2024 10 17,09:02:00.470,0.548404,-0.488264,-0.62245,-0.270938,-1.147984,-1.312052,1.658742,23.071289,33.02002,-15.014648,0,0
14459,2024 10 17,09:02:00.478,0.549358,-0.484884,-0.623026,-0.273738,-11.106784,-0.196783,-4.334605,-14.038086,0.183105,-46.386719,0,0
14460,2024 10 17,09:02:00.486,0.554119,-0.477531,-0.618777,-0.286412,-0.191412,-2.276925,-5.073397,56.884766,330.200195,-44.677734,0,0
14461,2024 10 17,09:02:00.495,0.549549,-0.479431,-0.615203,-0.299446,-2.728599,2.343333,2.940519,-47.241211,-44.86084,-58.59375,0,0
14462,2024 10 17,09:02:00.503,0.549549,-0.479431,-0.615203,-0.299446,-2.728599,2.343333,2.940519,-47.241211,-44.86084,-58.59375,0,0
14463,2024 10 17,09:02:00.511,0.55946,-0.470079,-0.608018,-0.310394,-0.447767,1.540574,-1.145543,-93.322754,276.672363,-80.871582,1,0
14464,2024 10 17,09:02:00.520,0.568986,-0.457201,-0.607011,-0.314261,-1.445357,-1.292032,1.649464,170.043945,105.895996,-71.716309,0,0
14465,2024 10 17,09:02:00.528,0.576617,-0.447562,-0.602713,-0.322395,-0.666524,0.2378,0.3296,5.371094,148.193359,-58.410645,0,0
14466,2024 10 17,09:02:00.536,0.582353,-0.440976,-0.600062,-0.326085,-0.976592,0.112308,0.298349,23.132324,96.130371,-29.785156,0,0
14467,2024 10 17,09:02:00.545,0.587012,-0.435544,-0.597989,-0.328827,-1.009308,0.083499,0.059084,48.095703,66.955566,-28.930664,0,0
14468,2024 10 17,09:02:00.553,0.590931,-0.429838,-0.59722,-0.330708,-0.844752,0.031251,-0.024903,37.29248,60.852051,-33.874512,0,0
14469,2024 10 17,09:02:00.561,0.590931,-0.429838,-0.59722,-0.330708,-0.844752,0.031251,-0.024903,37.29248,60.852051,-33.874512,0,0
14470,2024 10 17,09:02:00.570,0.594112,-0.424959,-0.596542,-0.332533,-0.974151,-0.030274,-0.106937,31.616211,52.91748,-29.11377,0,0
14471,2024 10 17,09:02:00.578,0.597177,-0.420859,-0.595283,-0.334509,-1.039094,-0.045412,-0.309091,24.536133,56.152344,-20.751953,0,0
14472,2024 10 17,09:02:00.586,0.600335,-0.417491,-0.593399,-0.336417,-1.033235,-0.021973,-0.167974,16.845703,58.898926,-12.634277,0,0
14473,2024 10 17,09:02:00.595,0.603334,-0.414837,-0.591127,-0.33833,-0.954619,0.057619,0.065432,9.033203,54.016113,-6.958008,0,0
14474,2024 10 17,09:02:00.603,0.606031,-0.412745,-0.589002,-0.339772,-0.954131,0.063478,0.041505,8.483887,44.86084,-2.441406,0,0
14475,2024 10 17,09:02:00.611,0.606031,-0.412745,-0.589002,-0.339772,-0.954131,0.063478,0.041505,8.483887,44.86084,-2.441406,0,0
14476,2024 10 17,09:02:00.620,0.608262,-0.411138,-0.587298,-0.340682,-0.961455,0.057131,0.025391,8.605957,34.606934,0.366211,0,0
14477,2024 10 17,09:02:00.628,0.610026,-0.409945,-0.586031,-0.341147,-0.930692,0.083987,0.063967,8.728027,24.658203,2.01416,0,0
14478,2024 10 17,09:02:00.636,0.611283,-0.409019,-0.585326,-0.341218,-0.956572,0.08594,0.019532,9.155273,14.648438,1.159668,0,0
14479,2024 10 17,09:02:00.645,0.612018,-0.40828,-0.585157,-0.341075,-0.986358,0.075198,-0.009278,8.850098,6.164551,-0.793457,0,0
14480,2024 10 17,09:02:00.653,0.612376,-0.407707,-0.58526,-0.340942,-1.006378,0.075198,-0.032716,6.469727,2.441406,-2.197266,0,0
14481,2024 10 17,09:02:00.661,0.612376,-0.407707,-0.58526,-0.340942,-1.006378,0.075198,-0.032716,6.469727,2.441406,-2.197266,0,0
14482,2024 10 17,09:02:00.670,0.612552,-0.407226,-0.585438,-0.340895,-1.022004,0.069826,-0.064455,4.577637,1.831055,-3.234863,0,0
14483,2024 10 17,09:02:00.678,0.612677,-0.406767,-0.585573,-0.340987,-1.023957,0.080569,-0.063478,3.417969,2.380371,-3.967285,0,0
14484,2024 10 17,09:02:00.686,0.612855,-0.406246,-0.585637,-0.341178,-1.01175,0.08301,-0.051271,3.417969,4.455566,-4.516602,0,0
14485,2024 10 17,09:02:00.695,0.613173,-0.405589,-0.585615,-0.341425,-1.019562,0.081545,-0.060549,4.272461,6.835938,-5.065918,0,0
14486,2024 10 17,09:02:00.703,0.613563,-0.404824,-0.585518,-0.341799,-1.033723,0.061525,-0.067385,4.455566,8.728027,-5.859375,0,0
14487,2024 10 17,09:02:00.711,0.613563,-0.404824,-0.585518,-0.341799,-1.033723,0.061525,-0.067385,4.455566,8.728027,-5.859375,0,0
14488,2024 10 17,09:02:00.720,0.614056,-0.403999,-0.585239,-0.342367,-1.021027,0.063478,-0.074221,2.685547,12.390137,-6.225586,0,0
14489,2024 10 17,09:02:00.728,0.614614,-0.40316,-0.584786,-0.343127,-1.008332,0.067873,-0.058596,1.220703,14.526367,-6.713867,0,0
14490,2024 10 17,09:02:00.736,0.615221,-0.40229,-0.584201,-0.344057,-1.000031,0.07178,-0.048341,0.0,16.540527,-7.446289,0,0
14491,2024 10 17,09:02:00.745,0.615847,-0.401356,-0.583576,-0.345088,-0.986847,0.061525,-0.007324,0.183105,17.578125,-8.239746,0,0
14492,2024 10 17,09:02:00.753,0.616511,-0.400406,-0.582871,-0.346194,-0.982452,0.062502,0.003418,-0.793457,18.310547,-8.056641,0,0
14493,2024 10 17,09:02:00.761,0.616511,-0.400406,-0.582871,-0.346194,-0.982452,0.062502,0.003418,-0.793457,18.310547,-8.056641,0,0
14494,2024 10 17,09:02:00.770,0.617214,-0.399453,-0.582118,-0.347307,-0.999054,0.056154,-0.035157,-0.427246,19.165039,-7.93457,0,0
14495,2024 10 17,09:02:00.778,0.617907,-0.398524,-0.581304,-0.348504,-1.008332,0.062014,-0.014161,-1.77002,19.897461,-8.117676,0,0
14496,2024 10 17,09:02:00.786,0.6187,-0.397569,-0.580335,-0.3498,-1.027863,0.06299,-0.032716,-2.380371,22.705078,-7.8125,0,0
14497,2024 10 17,09:02:00.795,0.619657,-0.396473,-0.579187,-0.351251,-1.028352,0.047853,-0.039552,-1.77002,26.733398,-8.605957,0,0
14498,2024 10 17,09:02:00.803,0.620796,-0.395265,-0.577825,-0.35284,-0.995636,0.04883,0.004395,-2.380371,30.395508,-8.056641,0,0
14499,2024 10 17,09:02:00.811,0.620796,-0.395265,-0.577825,-0.35284,-0.995636,0.04883,0.004395,-2.380371,30.395508,-8.056641,0,0
14500,2024 10 17,09:02:00.820,0.622034,-0.394037,-0.576319,-0.354493,-0.993683,0.058596,0.011719,-2.990723,31.311035,-7.93457,0,0
14501,2024 10 17,09:02:00.828,0.623268,-0.392749,-0.574836,-0.356158,-1.000519,0.061525,0.013672,-1.831055,31.677246,-8.789063,0,0
14502,2024 10 17,09:02:00.836,0.624499,-0.39137,-0.573407,-0.35782,-0.988311,0.059572,0.033204,-1.159668,31.37207,-9.643555,0,0
14503,2024 10 17,09:02:00.845,0.625678,-0.389972,-0.572052,-0.359451,-1.010285,0.067873,0.043458,-1.098633,30.029297,-10.131836,0,0
14504,2024 10 17,09:02:00.853,0.626823,-0.388475,-0.570802,-0.36106,-1.017121,0.06299,0.035157,0.854492,29.907227,-11.108398,0,0
14505,2024 10 17,09:02:00.861,0.626823,-0.388475,-0.570802,-0.36106,-1.017121,0.06299,0.035157,0.854492,29.907227,-11.108398,0,0
14506,2024 10 17,09:02:00.870,0.627955,-0.386858,-0.569669,-0.362615,-1.030793,0.067385,0.041017,1.89209,29.11377,-12.145996,0,0
14507,2024 10 17,09:02:00.878,0.629114,-0.38507,-0.568597,-0.364191,-1.033235,0.069338,0.008301,3.723145,30.212402,-13.793945,0,0
14508,2024 10 17,09:02:00.886,0.63028,-0.383138,-0.567634,-0.365712,-1.00296,0.045412,0.049806,5.371094,28.991699,-14.709473,0,0
14509,2024 10 17,09:02:00.895,0.631406,-0.381155,-0.566767,-0.367182,-1.02298,0.059084,0.044923,6.225586,28.320313,-15.136719,0,0
14510,2024 10 17,09:02:00.903,0.632465,-0.37911,-0.566008,-0.368643,-1.014679,0.051271,0.041505,6.835938,26.977539,-16.357422,0,0
14511,2024 10 17,09:02:00.911,0.632465,-0.37911,-0.566008,-0.368643,-1.014679,0.051271,0.041505,6.835938,26.977539,-16.357422,0,0
14512,2024 10 17,09:02:00.920,0.633362,-0.377087,-0.565446,-0.370038,-0.978545,0.044923,0.072756,6.713867,23.55957,-17.211914,0,0
14513,2024 10 17,09:02:00.928,0.634009,-0.375179,-0.565148,-0.371323,-0.987823,0.029298,0.110843,7.263184,19.226074,-17.883301,0,0
14514,2024 10 17,09:02:00.936,0.634524,-0.373307,-0.564965,-0.372607,-1.012726,0.045412,0.067385,6.713867,16.845703,-18.615723,0,0
14515,2024 10 17,09:02:00.945,0.634872,-0.371393,-0.565032,-0.373822,-1.050325,0.02295,0.053224,8.056641,15.014648,-20.568848,0,0
14516,2024 10 17,09:02:00.953,0.635014,-0.369485,-0.565199,-0.375218,-1.076693,0.041993,0.042482,5.79834,13.85498,-22.888184,0,0
14517,2024 10 17,09:02:00.961,0.635102,-0.367455,-0.565375,-0.376793,-1.051302,0.001953,0.065432,5.79834,15.869141,-25.512695,0,0
14518,2024 10 17,09:02:00.970,0.635102,-0.367455,-0.565375,-0.376793,-1.051302,0.001953,0.065432,5.79834,15.869141,-25.512695,0,0
14519,2024 10 17,09:02:00.978,0.63514,-0.365293,-0.565478,-0.378674,-1.049348,0.019532,0.040529,3.90625,17.089844,-28.747559,0,0
14520,2024 10 17,09:02:00.986,0.634978,-0.363057,-0.565682,-0.380784,-1.058626,0.019532,0.066897,2.990723,15.991211,-32.104492,0,0
14521,2024 10 17,09:02:00.995,0.63455,-0.360753,-0.56605,-0.383133,-1.082064,0.051271,0.13477,0.854492,13.977051,-36.682129,0,0
14522,2024 10 17,09:02:01.003,0.633986,-0.358174,-0.566426,-0.38592,-1.232948,0.032228,0.010254,-2.13623,16.906738,-43.823242,0,0
14523,2024 10 17,09:02:01.011,0.632712,-0.355401,-0.567148,-0.389498,-1.31254,-0.007813,-0.026856,-5.249023,12.695313,-55.847168,0,0
14524,2024 10 17,09:02:01.020,0.632712,-0.355401,-0.567148,-0.389498,-1.31254,-0.007813,-0.026856,-5.249023,12.695313,-55.847168,0,0
14525,2024 10 17,09:02:01.028,0.630577,-0.352415,-0.568179,-0.394144,-1.420454,0.06885,0.029786,-15.380859,12.207031,-70.251465,0,0
14526,2024 10 17,09:02:01.036,0.627865,-0.348962,-0.56934,-0.399829,-1.356975,0.06299,0.050295,-18.066406,13.916016,-84.16748,0,0
14527,2024 10 17,09:02:01.045,0.624666,-0.344959,-0.570767,-0.406227,-1.381878,0.088382,0.104007,-18.737793,11.901855,-96.313477,0,0
14528,2024 10 17,09:02:01.053,0.621069,-0.340115,-0.57261,-0.413174,-1.438032,0.099124,0.062014,-15.50293,13.916016,-109.741211,0,0
14529,2024 10 17,09:02:01.061,0.616764,-0.334419,-0.575085,-0.420764,-1.55913,0.10596,0.053224,-14.526367,10.314941,-127.380371,0,0
14530,2024 10 17,09:02:01.070,0.616764,-0.334419,-0.575085,-0.420764,-1.55913,0.10596,0.053224,-14.526367,10.314941,-127.380371,0,0
14531,2024 10 17,09:02:01.078,0.611617,-0.327733,-0.578063,-0.429371,-1.565966,0.131352,0.013672,-14.587402,10.559082,-147.705078,0,0
14532,2024 10 17,09:02:01.086,0.606183,-0.319338,-0.581451,-0.438727,-1.626026,0.102054,0.077639,-2.197266,23.864746,-166.809082,0,0
14533,2024 10 17,09:02:01.095,0.600603,-0.308957,-0.584798,-0.449257,-1.658742,0.226081,0.044923,1.037598,30.700684,-190.734863,0,0
14534,2024 10 17,09:02:01.103,0.594046,-0.29666,-0.589198,-0.460378,-1.843806,0.285653,0.17188,10.620117,29.602051,-218.322754,0,0
14535,2024 10 17,09:02:01.111,0.586207,-0.28237,-0.593952,-0.473128,-1.912168,0.422376,0.19483,9.70459,35.827637,-253.173828,0,0
14536,2024 10 17,09:02:01.120,0.586207,-0.28237,-0.593952,-0.473128,-1.912168,0.422376,0.19483,9.70459,35.827637,-253.173828,0,0
14537,2024 10 17,09:02:01.128,0.576668,-0.265732,-0.599614,-0.487139,-2.079165,0.442396,0.224128,18.188477,30.822754,-292.480469,0,0
14538,2024 10 17,09:02:01.136,0.564746,-0.246699,-0.606083,-0.502857,-2.441969,0.59621,0.290048,19.470215,29.846191,-338.928223,0,0
14539,2024 10 17,09:02:01.145,0.550276,-0.224244,-0.613372,-0.520274,-2.75692,0.534684,0.316904,25.878906,31.921387,-395.385742,0,0
14540,2024 10 17,09:02:01.153,0.53237,-0.198277,-0.6211,-0.539911,-2.666097,0.324229,0.210456,29.846191,30.212402,-457.519531,0,0
14541,2024 10 17,09:02:01.161,0.511052,-0.169185,-0.629454,-0.560347,-2.800867,0.124027,0.267586,36.804199,26.062012,-499.87793,0,0
14542,2024 10 17,09:02:01.170,0.511052,-0.169185,-0.629454,-0.560347,-2.800867,0.124027,0.267586,36.804199,26.062012,-499.87793,0,0
14543,2024 10 17,09:02:01.178,0.488024,-0.138473,-0.637027,-0.580391,-2.77694,-0.14893,0.276376,40.649414,28.991699,-510.803223,0,1
14544,2024 10 17,09:02:01.186,0.464454,-0.10757,-0.642497,-0.599924,-2.210517,-0.065432,-0.062014,24.658203,36.437988,-508.178711,0,0
14545,2024 10 17,09:02:01.195,0.439624,-0.078138,-0.646762,-0.618324,-1.824274,-0.112308,-0.218268,16.174316,16.235352,-494.995117,0,0
14546,2024 10 17,09:02:01.203,0.411858,-0.05173,-0.649804,-0.636751,-0.993194,0.32374,-0.747581,-19.775391,-27.770996,-494.689941,0,0
14547,2024 10 17,09:02:01.211,0.379622,-0.030308,-0.652951,-0.654693,-1.524461,0.229011,-0.490249,-38.330078,-103.393555,-486.633301,0,0
14548,2024 10 17,09:02:01.220,0.379622,-0.030308,-0.652951,-0.654693,-1.524461,0.229011,-0.490249,-38.330078,-103.393555,-486.633301,0,0
14549,2024 10 17,09:02:01.228,0.342962,-0.012402,-0.65473,-0.673462,-1.544481,0.133793,-0.4756,-69.274902,-147.094727,-503.356934,0,0
14550,2024 10 17,09:02:01.236,0.304728,0.002356,-0.652879,-0.693458,-0.383312,0.519547,-1.091342,-135.253906,-166.564941,-480.59082,0,0
14551,2024 10 17,09:02:01.245,0.272907,0.009768,-0.6457,-0.71309,1.640187,0.59328,-1.806696,-203.063965,-140.319824,-326.599121,0,0
14552,2024 10 17,09:02:01.253,0.254063,0.000906,-0.635813,-0.72883,-0.150884,1.241737,0.081057,-228.942871,-200.561523,-71.289063,0,0
14553,2024 10 17,09:02:01.261,0.250258,-0.016784,-0.623811,-0.740236,-0.183111,1.462447,-0.292489,-231.018066,-114.807129,94.299316,0,0
14554,2024 10 17,09:02:01.270,0.250258,-0.016784,-0.623811,-0.740236,-0.183111,1.462447,-0.292489,-231.018066,-114.807129,94.299316,0,0
14555,2024 10 17,09:02:01.278,0.253911,-0.038621,-0.61289,-0.747264,-0.242683,1.384808,0.058107,-188.415527,-133.789063,185.791016,0,0
14556,2024 10 17,09:02:01.286,0.261446,-0.06169,-0.604182,-0.750203,-0.281259,1.166051,-0.076662,-148.4375,-113.830566,223.999023,0,0
14557,2024 10 17,09:02:01.295,0.268955,-0.084883,-0.598073,-0.750177,-0.331553,0.98294,0.044923,-104.858398,-135.681152,223.571777,0,0
14558,2024 10 17,09:02:01.303,0.274304,-0.107654,-0.594481,-0.748171,-0.308603,0.967803,0.142582,-71.838379,-153.991699,201.904297,0,0
14559,2024 10 17,09:02:01.311,0.277598,-0.129701,-0.593474,-0.744248,-0.518082,0.923368,0.190924,-37.04834,-173.278809,184.020996,0,0
14560,2024 10 17,09:02:01.320,0.277598,-0.129701,-0.593474,-0.744248,-0.518082,0.923368,0.190924,-37.04834,-173.278809,184.020996,0,0
14561,2024 10 17,09:02:01.328,0.279996,-0.151445,-0.594265,-0.73859,-0.645527,0.855007,0.371593,-12.329102,-180.541992,180.358887,0,0
14562,2024 10 17,09:02:01.336,0.283426,-0.172881,-0.595605,-0.731461,-0.687521,0.78518,0.416028,2.685547,-173.156738,194.641113,0,0
14563,2024 10 17,09:02:01.345,0.288716,-0.194649,-0.596496,-0.723151,-0.654805,0.620136,0.46437,6.164551,-164.123535,219.360352,0,0
14564,2024 10 17,09:02:01.353,0.295369,-0.21766,-0.59586,-0.714375,-0.563494,0.422864,0.412122,-9.277344,-165.100098,244.384766,0,0
14565,2024 10 17,09:02:01.361,0.30177,-0.243066,-0.593033,-0.705808,-0.568865,0.272958,0.403333,-41.687012,-181.945801,262.268066,0,0
14566,2024 10 17,09:02:01.370,0.30177,-0.243066,-0.593033,-0.705808,-0.568865,0.272958,0.403333,-41.687012,-181.945801,262.268066,0,0
14567,2024 10 17,09:02:01.378,0.306507,-0.271313,-0.587582,-0.69799,-0.724631,0.240242,0.489761,-84.777832,-206.420898,271.30127,0,0
14568,2024 10 17,09:02:01.386,0.309208,-0.302032,-0.579138,-0.691207,-1.050813,0.347667,0.702658,-130.615234,-223.632813,275.756836,0,0
14569,2024 10 17,09:02:01.395,0.310825,-0.333659,-0.567341,-0.685699,-1.338908,0.490738,0.937529,-170.10498,-216.003418,278.503418,0,0
14570,2024 10 17,09:02:01.403,0.312648,-0.364431,-0.552064,-0.681665,-1.457564,0.647481,1.144566,-199.890137,-185.913086,281.677246,0,0
14571,2024 10 17,09:02:01.411,0.315535,-0.393497,-0.533683,-0.678808,-1.402387,0.74807,1.197791,-217.651367,-151.000977,288.269043,0,0
14572,2024 10 17,09:02:01.420,0.31959,-0.421022,-0.512922,-0.676397,-1.3184,0.759789,1.178747,-226.257324,-123.596191,297.729492,0,0
14573,2024 10 17,09:02:01.428,0.31959,-0.421022,-0.512922,-0.676397,-1.3184,0.759789,1.178747,-226.257324,-123.596191,297.729492,0,0
14574,2024 10 17,09:02:01.436,0.324375,-0.447451,-0.490237,-0.67397,-1.162633,0.733909,1.089877,-234.069824,-107.48291,306.274414,0,0
14575,2024 10 17,09:02:01.445,0.328917,-0.473606,-0.466305,-0.670873,-1.061068,0.7051,0.980987,-240.905762,-109.985352,311.462402,0,0
14576,2024 10 17,09:02:01.453,0.332387,-0.500234,-0.441821,-0.666392,-1.172399,0.761254,0.999542,-244.262695,-126.77002,313.964844,0,0
14577,2024 10 17,09:02:01.461,0.335167,-0.526894,-0.417177,-0.66031,-1.389203,0.812037,1.083529,-240.05127,-137.817383,315.368652,0,0
14578,2024 10 17,09:02:01.470,0.338009,-0.552765,-0.392667,-0.652697,-1.641652,0.806665,1.1348,-225.830078,-138.85498,317.382813,0,0
14579,2024 10 17,09:02:01.478,0.338009,-0.552765,-0.392667,-0.652697,-1.641652,0.806665,1.1348,-225.830078,-138.85498,317.382813,0,0
14580,2024 10 17,09:02:01.486,0.341685,-0.577103,-0.368373,-0.643821,-1.8399,0.704123,1.189489,-206.542969,-130.859375,321.044922,0,0
14581,2024 10 17,09:02:01.495,0.346513,-0.599498,-0.344371,-0.633988,-1.999084,0.41554,1.16068,-185.72998,-118.713379,324.157715,0,0
14582,2024 10 17,09:02:01.503,0.352558,-0.619734,-0.320573,-0.623591,-2.224677,0.020997,1.010285,-165.83252,-101.074219,327.270508,0,0
14583,2024 10 17,09:02:01.511,0.359088,-0.637765,-0.297557,-0.613002,-2.069887,-0.3296,1.059114,-148.071289,-91.674805,316.52832,0,0
14584,2024 10 17,09:02:01.520,0.365161,-0.65441,-0.27683,-0.601473,-2.037172,-0.658223,1.206092,-124.511719,-104.919434,296.569824,0,0
14585,2024 10 17,09:02:01.528,0.365161,-0.65441,-0.27683,-0.601473,-2.037172,-0.658223,1.206092,-124.511719,-104.919434,296.569824,0,0
14586,2024 10 17,09:02:01.536,0.371225,-0.669441,-0.259297,-0.588902,-2.230537,-0.933622,1.35551,-89.96582,-113.952637,272.827148,0,0
14587,2024 10 17,09:02:01.545,0.377988,-0.681826,-0.245652,-0.576102,-2.36433,-1.299356,1.463424,-44.86084,-109.741211,240.783691,0,0
14588,2024 10 17,09:02:01.553,0.385415,-0.690961,-0.236078,-0.564177,-2.235908,-1.818415,1.324747,-2.441406,-96.130371,201.782227,0,0
14589,2024 10 17,09:02:01.561,0.392826,-0.697418,-0.230219,-0.553439,-1.954161,-2.374096,1.182165,26.123047,-86.547852,163.146973,0,0
14590,2024 10 17,09:02:01.570,0.399203,-0.702244,-0.227366,-0.543871,-1.792535,-2.793054,1.151891,37.17041,-83.92334,125.549316,0,0
14591,2024 10 17,09:02:01.578,0.399203,-0.702244,-0.227366,-0.543871,-1.792535,-2.793054,1.151891,37.17041,-83.92334,125.549316,0,0
14592,2024 10 17,09:02:01.586,0.403643,-0.705995,-0.226797,-0.535917,-1.79693,-2.995697,1.225135,33.26416,-78.00293,86.181641,0,0
14593,2024 10 17,09:02:01.595,0.405879,-0.708354,-0.227522,-0.530783,-1.873104,-3.024506,1.262246,21.118164,-53.527832,46.447754,0,0
14594,2024 10 17,09:02:01.603,0.402881,-0.710259,-0.230467,-0.529249,-5.898618,-4.094851,2.614826,-35.949707,-71.289063,-49.560547,0,0
14595,2024 10 17,09:02:01.611,0.391659,-0.707103,-0.241636,-0.536862,-2.444899,-3.47911,1.460982,-60.974121,82.519531,-188.659668,0,0
14596,2024 10 17,09:02:01.620,0.378036,-0.697586,-0.246997,-0.556286,-0.300302,-0.832057,-0.209479,-98.022461,147.888184,-220.581055,1,0
14597,2024 10 17,09:02:01.628,0.378036,-0.697586,-0.246997,-0.556286,-0.300302,-0.832057,-0.209479,-98.022461,147.888184,-220.581055,0,0
14598,2024 10 17,09:02:01.636,0.362302,-0.692146,-0.251565,-0.571302,-0.864284,1.211951,0.005371,-104.858398,69.641113,-209.960938,0,0
14599,2024 10 17,09:02:01.645,0.347217,-0.688965,-0.257162,-0.581924,-2.068423,1.085971,-0.427259,-78.674316,37.475586,-201.599121,0,0
14600,2024 10 17,09:02:01.653,0.338451,-0.681361,-0.266482,-0.591765,-2.385327,0.243171,-0.011231,8.178711,89.599609,-191.101074,0,0
14601,2024 10 17,09:02:01.661,0.340722,-0.665645,-0.273918,-0.604809,-1.529344,-0.439955,0.050295,106.872559,213.317871,-118.225098,0,0
14602,2024 10 17,09:02:01.670,0.348496,-0.649681,-0.277175,-0.616149,-0.674825,-0.428236,-0.649922,108.703613,191.467285,-45.227051,0,0
14603,2024 10 17,09:02:01.678,0.348496,-0.649681,-0.277175,-0.616149,-0.674825,-0.428236,-0.649922,108.703613,191.467285,-45.227051,0,0
14604,2024 10 17,09:02:01.686,0.354402,-0.641037,-0.280138,-0.620478,-0.822291,-0.034669,0.799829,78.552246,79.528809,-17.822266,0,0
14605,2024 10 17,09:02:01.695,0.359587,-0.633567,-0.281801,-0.624403,-0.89993,-0.150395,-0.015625,61.157227,93.994141,-15.258789,0,0
14606,2024 10 17,09:02:01.703,0.361934,-0.628771,-0.28241,-0.627611,-0.898953,0.044435,0.032716,22.949219,48.76709,-14.526367,0,0
14607,2024 10 17,09:02:01.711,0.36426,-0.625579,-0.283239,-0.629079,-1.102573,-0.021973,0.095218,35.15625,40.83252,-2.685547,0,0
14608,2024 10 17,09:02:01.720,0.366577,-0.622019,-0.283154,-0.631299,-0.857936,0.038087,0.025391,18.249512,47.302246,-3.723145,0,0
14609,2024 10 17,09:02:01.728,0.366577,-0.622019,-0.283154,-0.631299,-0.857936,0.038087,0.025391,18.249512,47.302246,-3.723145,0,0
14610,2024 10 17,09:02:01.736,0.367959,-0.619918,-0.283222,-0.632529,-0.964873,0.02295,0.168462,16.174316,23.498535,-1.220703,0,0
14611,2024 10 17,09:02:01.745,0.369232,-0.618208,-0.283218,-0.633461,-0.967803,0.07178,0.10303,12.390137,23.010254,0.0,0,0
14612,2024 10 17,09:02:01.753,0.370251,-0.616787,-0.283205,-0.634258,-0.942412,0.04297,0.078616,9.70459,17.028809,-0.610352,0,0
14613,2024 10 17,09:02:01.761,0.370764,-0.616025,-0.283303,-0.634655,-0.987823,0.057131,0.0918,4.882813,7.69043,-1.037598,0,0
14614,2024 10 17,09:02:01.770,0.370899,-0.615583,-0.283362,-0.634978,-1.006378,0.064455,0.064943,1.159668,5.004883,-2.502441,0,0
14615,2024 10 17,09:02:01.778,0.370899,-0.615583,-0.283362,-0.634978,-1.006378,0.064455,0.064943,1.159668,5.004883,-2.502441,0,0
14616,2024 10 17,09:02:01.786,0.370615,-0.615433,-0.283495,-0.635231,-1.026399,0.072268,0.061037,-2.197266,0.244141,-5.126953,0,0
14617,2024 10 17,09:02:01.795,0.37001,-0.615396,-0.28367,-0.63554,-1.033723,0.065432,0.04883,-4.272461,-0.061035,-7.568359,0,0
14618,2024 10 17,09:02:01.803,0.369128,-0.615405,-0.283812,-0.635982,-1.000031,0.081057,0.072268,-7.080078,-0.732422,-9.643555,0,0
14619,2024 10 17,09:02:01.811,0.368013,-0.615514,-0.284071,-0.636406,-1.025422,0.099124,0.059084,-8.056641,-2.990723,-12.023926,0,0
14620,2024 10 17,09:02:01.820,0.366893,-0.615516,-0.284493,-0.636862,-1.009796,0.07178,0.086428,-5.92041,-2.075195,-13.366699,0,0
14621,2024 10 17,09:02:01.828,0.366893,-0.615516,-0.284493,-0.636862,-1.009796,0.07178,0.086428,-5.92041,-2.075195,-13.366699,0,0
14622,2024 10 17,09:02:01.836,0.365722,-0.615502,-0.285006,-0.63732,-1.03177,0.074221,0.031251,-6.164551,-3.051758,-14.465332,0,0
14623,2024 10 17,09:02:01.845,0.364469,-0.615479,-0.285615,-0.637787,-1.040071,0.058107,0.040529,-5.737305,-2.685547,-15.74707,0,0
14624,2024 10 17,09:02:01.853,0.363121,-0.615364,-0.286198,-0.638404,-1.003937,0.061525,0.041017,-7.324219,-1.586914,-17.089844,0,0
14625,2024 10 17,09:02:01.861,0.361621,-0.615388,-0.286836,-0.638947,-1.000519,0.050295,0.04004,-8.300781,-4.577637,-17.76123,0,0
14626,2024 10 17,09:02:01.870,0.359933,-0.615537,-0.287492,-0.639461,-1.02298,0.064943,0.023438,-9.521484,-5.79834,-18.859863,0,0
14627,2024 10 17,09:02:01.878,0.358287,-0.615586,-0.288235,-0.640004,-1.018098,0.047365,0.04883,-7.507324,-4.394531,-19.470215,0,0
14628,2024 10 17,09:02:01.886,0.358287,-0.615586,-0.288235,-0.640004,-1.018098,0.047365,0.04883,-7.507324,-4.394531,-19.470215,0,0
14629,2024 10 17,09:02:01.895,0.356659,-0.615566,-0.289014,-0.640581,-0.975127,0.064943,0.070315,-7.324219,-4.577637,-19.836426,0,0
14630,2024 10 17,09:02:01.903,0.355147,-0.615574,-0.289977,-0.640977,-0.978545,0.046876,0.079592,-4.455566,-7.019043,-19.53125,0,0
14631,2024 10 17,09:02:01.911,0.353673,-0.615603,-0.291055,-0.641277,-1.014679,0.062502,0.050295,-3.295898,-7.446289,-19.53125,0,0
14632,2024 10 17,09:02:01.920,0.35238,-0.615524,-0.292227,-0.641531,-1.009308,0.038087,0.059572,-0.610352,-6.286621,-18.981934,0,0
14633,2024 10 17,09:02:01.928,0.35136,-0.615188,-0.293386,-0.641883,-1.030793,0.036134,0.041505,2.624512,-1.77002,-17.700195,0,0
14634,2024 10 17,09:02:01.936,0.35136,-0.615188,-0.293386,-0.641883,-1.030793,0.036134,0.041505,2.624512,-1.77002,-17.700195,0,0
14635,2024 10 17,09:02:01.945,0.350534,-0.614652,-0.294534,-0.642323,-0.994659,0.026856,0.069826,3.540039,0.366211,-17.700195,0,0
14636,2024 10 17,09:02:01.953,0.34982,-0.613987,-0.295606,-0.642856,-0.977569,0.021973,0.084964,3.662109,1.525879,-17.333984,0,0
14637,2024 10 17,09:02:01.961,0.348982,-0.613377,-0.296676,-0.643399,-1.027863,0.031739,0.06592,2.502441,1.342773,-18.066406,0,0
14638,2024 10 17,09:02:01.970,0.348245,-0.612637,-0.297745,-0.64401,-1.001984,0.024903,0.098148,3.601074,3.540039,-17.76123,0,0
14639,2024 10 17,09:02:01.978,0.347597,-0.611787,-0.298857,-0.644653,-1.048372,0.021485,0.042482,5.371094,4.333496,-18.127441,0,0
14640,2024 10 17,09:02:01.986,0.347597,-0.611787,-0.298857,-0.644653,-1.048372,0.021485,0.042482,5.371094,4.333496,-18.127441,0,0
14641,2024 10 17,09:02:01.995,0.34689,-0.610789,-0.299888,-0.645501,-1.056673,0.010254,0.068361,3.356934,8.361816,-19.40918,0,0
14642,2024 10 17,09:02:02.003,0.346158,-0.609546,-0.300789,-0.646649,-1.014679,0.026368,0.075686,1.586914,11.169434,-21.179199,0,0
14643,2024 10 17,09:02:02.011,0.345315,-0.608266,-0.301698,-0.64788,-1.048372,0.032716,0.058596,0.427246,11.71875,-22.277832,0,0
14644,2024 10 17,09:02:02.020,0.344236,-0.606948,-0.302598,-0.649269,-1.084994,0.043458,0.048341,-1.403809,12.451172,-25.32959,0,0
14645,2024 10 17,09:02:02.028,0.343077,-0.60539,-0.303542,-0.650895,-1.096713,0.039064,0.044435,-0.793457,16.235352,-27.832031,0,0
14646,2024 10 17,09:02:02.036,0.343077,-0.60539,-0.303542,-0.650895,-1.096713,0.039064,0.044435,-0.793457,16.235352,-27.832031,0,0
14647,2024 10 17,09:02:02.045,0.341587,-0.603716,-0.304717,-0.652681,-1.101596,0.047365,0.104007,-1.831055,14.221191,-34.118652,0,0
14648,2024 10 17,09:02:02.053,0.339756,-0.601882,-0.306158,-0.654654,-1.116733,0.008789,0.07178,-1.647949,15.625,-39.489746,0,0
14649,2024 10 17,09:02:02.061,0.33709,-0.600259,-0.307879,-0.656711,-1.169958,-0.009766,0.004395,-6.652832,9.094238,-47.302246,0,0
14650,2024 10 17,09:02:02.070,0.333637,-0.598691,-0.309822,-0.658988,-1.217811,-0.008789,0.029298,-12.878418,8.666992,-55.908203,0,0
14651,2024 10 17,09:02:02.078,0.329466,-0.596883,-0.311818,-0.66178,-1.173376,-0.002441,0.064455,-17.028809,11.535645,-64.51416,0,0
14652,2024 10 17,09:02:02.086,0.329466,-0.596883,-0.311818,-0.66178,-1.173376,-0.002441,0.064455,-17.028809,11.535645,-64.51416,0,0
14653,2024 10 17,09:02:02.095,0.324659,-0.594884,-0.314065,-0.664885,-1.174352,0.028321,0.08301,-19.775391,10.314941,-72.753906,0,0
14654,2024 10 17,09:02:02.103,0.319544,-0.592619,-0.316745,-0.668107,-1.205115,0.044923,0.128422,-16.662598,11.535645,-79.467773,0,0
14655,2024 10 17,09:02:02.111,0.314358,-0.589787,-0.319922,-0.671551,-1.200232,0.0459,0.143559,-11.535645,15.258789,-86.669922,0,0
14656,2024 10 17,09:02:02.120,0.309094,-0.586445,-0.323823,-0.675042,-1.217811,0.067385,0.167974,-4.02832,15.563965,-94.360352,0,0
14657,2024 10 17,09:02:02.128,0.303743,-0.582605,-0.328632,-0.678463,-1.2266,0.079104,0.222175,4.150391,15.869141,-103.515625,0,0
14658,2024 10 17,09:02:02.136,0.303743,-0.582605,-0.328632,-0.678463,-1.2266,0.079104,0.222175,4.150391,15.869141,-103.515625,0,0
14659,2024 10 17,09:02:02.145,0.298375,-0.578092,-0.334396,-0.681881,-1.2266,0.047853,0.155278,14.282227,17.333984,-112.426758,0,0
14660,2024 10 17,09:02:02.153,0.292851,-0.573022,-0.341158,-0.685197,-1.336467,0.043458,0.100589,23.864746,17.51709,-122.375488,0,0
14661,2024 10 17,09:02:02.161,0.287049,-0.567154,-0.34893,-0.688612,-1.512741,0.036134,0.075198,31.494141,21.30127,-136.108398,0,0
14662,2024 10 17,09:02:02.170,0.279836,-0.560697,-0.357612,-0.692404,-1.66509,0.121586,0.008301,26.184082,15.075684,-160.03418,0,0
14663,2024 10 17,09:02:02.178,0.270405,-0.554038,-0.367942,-0.69609,-1.906796,0.139164,0.045412,27.770996,4.211426,-190.734863,0,0
14664,2024 10 17,09:02:02.186,0.270405,-0.554038,-0.367942,-0.69609,-1.906796,0.139164,0.045412,27.770996,4.211426,-190.734863,0,0
14665,2024 10 17,09:02:02.195,0.258706,-0.545969,-0.379499,-0.700692,-2.06354,0.205573,0.02002,23.681641,12.512207,-227.355957,0,0
14666,2024 10 17,09:02:02.203,0.244706,-0.535841,-0.392505,-0.706352,-2.207587,0.356945,0.179693,23.071289,20.385742,-269.40918,0,0
14667,2024 10 17,09:02:02.211,0.227948,-0.523306,-0.407263,-0.712971,-2.482986,0.482925,0.178716,21.66748,29.968262,-319.763184,0,0
14668,2024 10 17,09:02:02.220,0.208407,-0.507208,-0.42381,-0.720897,-2.730552,0.543474,0.160161,23.55957,50.537109,-377.01416,0,0
14669,2024 10 17,09:02:02.228,0.185719,-0.487276,-0.442232,-0.729727,-2.99765,0.478042,0.263192,28.198242,66.345215,-436.950684,0,0
14670,2024 10 17,09:02:02.236,0.185719,-0.487276,-0.442232,-0.729727,-2.99765,0.478042,0.263192,28.198242,66.345215,-436.950684,0,0
14671,2024 10 17,09:02:02.245,0.160345,-0.463333,-0.462553,-0.738686,-3.099216,0.269539,0.282235,36.987305,84.777832,-487.609863,0,0
14672,2024 10 17,09:02:02.253,0.133215,-0.436047,-0.484245,-0.746741,-3.277932,-0.066897,0.076662,50.720215,92.895508,-521.789551,0,0
14673,2024 10 17,09:02:02.261,0.105103,-0.4065,-0.505739,-0.753618,-3.111911,-0.348643,-0.236335,50.598145,102.355957,-535.766602,0,1
14674,2024 10 17,09:02:02.270,0.07638,-0.375795,-0.52522,-0.759663,-2.837001,-0.074221,-0.333506,30.578613,109.985352,-532.897949,0,0
14675,2024 10 17,09:02:02.278,0.047272,-0.345083,-0.541893,-0.764876,-2.634846,0.338878,-0.273446,9.399414,102.294922,-523.254395,0,0
14676,2024 10 17,09:02:02.286,0.047272,-0.345083,-0.541893,-0.764876,-2.634846,0.338878,-0.273446,9.399414,102.294922,-523.254395,0,0
14677,2024 10 17,09:02:02.295,0.017454,-0.31432,-0.556329,-0.769022,-1.809626,0.961455,-0.646992,-5.432129,94.299316,-525.634766,0,0
14678,2024 10 17,09:02:02.303,-0.012581,-0.286002,-0.568991,-0.770904,-1.754448,0.600116,-1.105014,-2.075195,48.88916,-490.966797,0,0
14679,2024 10 17,09:02:02.311,-0.045832,-0.262889,-0.578834,-0.770545,-1.735893,0.926786,-0.719748,-33.752441,-23.4375,-489.929199,0,0
14680,2024 10 17,09:02:02.320,-0.080935,-0.240885,-0.584273,-0.770746,-0.092776,0.985382,-1.836482,-91.003418,-31.921387,-470.76416,0,0
14681,2024 10 17,09:02:02.328,-0.108926,-0.223029,-0.584079,-0.772817,1.565477,1.121616,-0.832545,-135.742188,-22.033691,-318.786621,0,0
14682,2024 10 17,09:02:02.336,-0.124227,-0.218353,-0.576396,-0.777597,0.297861,1.362835,-0.042482,-158.26416,-68.847656,-77.331543,0,0
14683,2024 10 17,09:02:02.345,-0.124227,-0.218353,-0.576396,-0.777597,0.297861,1.362835,-0.042482,-158.26416,-68.847656,-77.331543,0,0
14684,2024 10 17,09:02:02.353,-0.124374,-0.223212,-0.564343,-0.785,0.110843,1.465377,-0.702658,-138.671875,-40.466309,114.746094,0,0
14685,2024 10 17,09:02:02.361,-0.115404,-0.236624,-0.550742,-0.79207,-0.411145,1.321329,0.015137,-115.722656,-64.758301,238.891602,0,0
14686,2024 10 17,09:02:02.370,-0.099118,-0.253127,-0.537724,-0.798095,-0.528336,0.935087,-0.276864,-84.960938,-46.020508,302.734375,0,0
14687,2024 10 17,09:02:02.378,-0.081016,-0.271704,-0.52485,-0.802587,-0.503922,0.729026,-0.347179,-67.565918,-62.561035,321.289063,0,0
14688,2024 10 17,09:02:02.386,-0.063581,-0.291394,-0.511891,-0.805614,-0.460463,0.598651,-0.520035,-64.147949,-84.472656,315.979004,0,0
14689,2024 10 17,09:02:02.395,-0.063581,-0.291394,-0.511891,-0.805614,-0.460463,0.598651,-0.520035,-64.147949,-84.472656,315.979004,0,0
14690,2024 10 17,09:02:02.403,-0.048339,-0.312456,-0.498901,-0.806928,-0.596698,0.430677,-0.420911,-64.208984,-114.868164,301.208496,0,0
14691,2024 10 17,09:02:02.411,-0.034995,-0.333959,-0.485596,-0.807121,-0.666036,0.48146,-0.330576,-66.223145,-131.164551,286.743164,0,0
14692,2024 10 17,09:02:02.420,-0.022689,-0.355654,-0.472081,-0.806309,-0.721213,0.555681,-0.147465,-63.903809,-140.625,280.944824,0,0
14693,2024 10 17,09:02:02.428,-0.009958,-0.377275,-0.45831,-0.804684,-0.834986,0.596698,-0.038575,-59.082031,-138.366699,288.085938,0,0
14694,2024 10 17,09:02:02.436,0.004528,-0.398501,-0.444159,-0.802433,-0.907743,0.574725,0.062502,-50.598145,-126.220703,305.236816,0,0
14695,2024 10 17,09:02:02.445,0.004528,-0.398501,-0.444159,-0.802433,-0.907743,0.574725,0.062502,-50.598145,-126.220703,305.236816,0,0
