frame,date,time,quaternion_x,quaternion_y,quaternion_z,quaternion_w,accel_x,accel_y,accel_z,gyro_x,gyro_y,gyro_z,HS,TO
7911,2024 10 17,09:01:05.914,-0.464219,-0.489104,0.471659,-0.568169,-1.18656,0.04297,0.00586,-4.882813,-10.864258,-98.632813,0,0
7912,2024 10 17,09:01:05.922,-0.459914,-0.484135,0.475667,-0.572567,-1.230018,0.04297,0.010743,-4.455566,-14.221191,-102.478027,0,0
7913,2024 10 17,09:01:05.930,-0.455663,-0.478628,0.479428,-0.577439,-1.133824,-0.025391,0.026856,-3.112793,-22.827148,-106.201172,0,0
7914,2024 10 17,09:01:05.939,-0.455663,-0.478628,0.479428,-0.577439,-1.133824,-0.025391,0.026856,-3.112793,-22.827148,-106.201172,0,0
7915,2024 10 17,09:01:05.947,-0.451171,-0.472955,0.483022,-0.582621,-1.106967,-0.084475,0.095218,0.732422,-22.155762,-108.459473,0,0
7916,2024 10 17,09:01:05.955,-0.446343,-0.467517,0.486421,-0.587878,-1.132847,-0.091311,0.06299,6.164551,-22.155762,-108.032227,0,0
7917,2024 10 17,09:01:05.964,-0.441366,-0.462102,0.48935,-0.59346,-1.097201,-0.127934,0.059084,11.413574,-25.146484,-108.276367,0,0
7918,2024 10 17,09:01:05.972,-0.436307,-0.456837,0.491757,-0.59926,-1.070833,-0.126957,0.110355,17.578125,-27.22168,-105.46875,0,0
7919,2024 10 17,09:01:05.980,-0.43127,-0.451985,0.493495,-0.605127,-1.036164,0.063478,0.163579,26.000977,-28.808594,-98.999023,0,0
7920,2024 10 17,09:01:05.989,-0.43127,-0.451985,0.493495,-0.605127,-1.036164,0.063478,0.163579,26.000977,-28.808594,-98.999023,0,0
7921,2024 10 17,09:01:05.997,-0.427046,-0.447448,0.494359,-0.610763,-1.024934,0.162603,0.109378,25.024414,-36.254883,-85.327148,0,0
7922,2024 10 17,09:01:06.005,-0.423958,-0.443015,0.494249,-0.616211,-0.923856,0.337901,0.206549,26.245117,-44.86084,-71.777344,0,0
7923,2024 10 17,09:01:06.014,-0.421714,-0.438973,0.493572,-0.621165,-0.77102,0.397473,0.209967,23.254395,-46.142578,-59.448242,0,0
7924,2024 10 17,09:01:06.022,-0.420195,-0.435539,0.492908,-0.625127,-0.606952,0.407727,0.300302,17.63916,-36.621094,-44.494629,0,0
7925,2024 10 17,09:01:06.030,-0.418991,-0.4339,0.492481,-0.627407,-0.693381,0.493179,0.2378,11.413574,-16.540527,-25.878906,0,0
7926,2024 10 17,09:01:06.039,-0.418991,-0.4339,0.492481,-0.627407,-0.693381,0.493179,0.2378,11.413574,-16.540527,-25.878906,0,0
7927,2024 10 17,09:01:06.047,-0.418365,-0.432908,0.492213,-0.62872,-0.70217,0.542497,0.288583,6.103516,-11.535645,-16.662598,0,0
7928,2024 10 17,09:01:06.055,-0.41797,-0.432351,0.492424,-0.629199,-0.674337,0.545427,0.24366,-1.037598,-3.356934,-12.084961,0,0
7929,2024 10 17,09:01:06.064,-0.417821,-0.432099,0.49305,-0.628982,-0.623554,0.545915,0.252937,-8.117676,3.662109,-6.713867,0,0
7930,2024 10 17,09:01:06.072,-0.417902,-0.432466,0.494066,-0.627878,-0.623554,0.558611,0.255867,-13.977051,13.061523,1.525879,0,0
7931,2024 10 17,09:01:06.080,-0.418294,-0.433542,0.4953,-0.625899,-0.655293,0.571795,0.238289,-17.944336,21.66748,10.925293,0,0
7932,2024 10 17,09:01:06.089,-0.418294,-0.433542,0.4953,-0.625899,-0.655293,0.571795,0.238289,-17.944336,21.66748,10.925293,0,0
7933,2024 10 17,09:01:06.097,-0.419114,-0.435224,0.496564,-0.623176,-0.677267,0.551286,0.219245,-21.484375,26.367188,20.751953,0,0
7934,2024 10 17,09:01:06.105,-0.420315,-0.437415,0.497739,-0.619887,-0.684591,0.519059,0.204596,-23.132324,30.517578,29.35791,0,0
7935,2024 10 17,09:01:06.114,-0.421734,-0.440172,0.498786,-0.616118,-0.707541,0.50441,0.203131,-22.888184,35.03418,37.04834,0,0
7936,2024 10 17,09:01:06.122,-0.423351,-0.443437,0.499638,-0.611963,-0.738304,0.481948,0.192877,-21.850586,38.391113,44.006348,0,0
7937,2024 10 17,09:01:06.130,-0.425083,-0.447231,0.500234,-0.607498,-0.761254,0.467788,0.187017,-19.897461,41.748047,50.90332,0,0
7938,2024 10 17,09:01:06.139,-0.425083,-0.447231,0.500234,-0.607498,-0.761254,0.467788,0.187017,-19.897461,41.748047,50.90332,0,0
7939,2024 10 17,09:01:06.147,-0.42694,-0.451588,0.500536,-0.602706,-0.792993,0.465346,0.186041,-17.456055,45.410156,58.349609,0,0
7940,2024 10 17,09:01:06.155,-0.428935,-0.456529,0.500498,-0.597576,-0.832545,0.45851,0.181158,-14.648438,48.522949,66.101074,0,0
7941,2024 10 17,09:01:06.164,-0.431096,-0.462023,0.500076,-0.592128,-0.863308,0.45851,0.170904,-12.084961,51.269531,73.974609,0,0
7942,2024 10 17,09:01:06.172,-0.433385,-0.468083,0.499332,-0.586296,-0.912625,0.465835,0.149419,-10.253906,55.053711,81.604004,0,0
7943,2024 10 17,09:01:06.180,-0.435863,-0.47458,0.498271,-0.580107,-0.954131,0.474624,0.133793,-9.216309,56.82373,88.623047,0,0
7944,2024 10 17,09:01:06.189,-0.435863,-0.47458,0.498271,-0.580107,-0.954131,0.474624,0.133793,-9.216309,56.82373,88.623047,0,0
7945,2024 10 17,09:01:06.197,-0.438596,-0.481361,0.496951,-0.573555,-0.979522,0.477065,0.106449,-9.82666,57.922363,94.970703,0,0
7946,2024 10 17,09:01:06.205,-0.44157,-0.488336,0.495461,-0.566624,-0.997589,0.465346,0.099612,-11.535645,59.387207,100.341797,0,0
7947,2024 10 17,09:01:06.214,-0.444727,-0.495478,0.493889,-0.559279,-1.02298,0.448256,0.081545,-13.73291,61.584473,105.041504,0,0
7948,2024 10 17,09:01:06.222,-0.44808,-0.502729,0.492276,-0.551499,-1.050813,0.436048,0.082034,-16.662598,63.598633,109.49707,0,0
7949,2024 10 17,09:01:06.230,-0.451622,-0.510003,0.490687,-0.543287,-1.101108,0.416028,0.059572,-20.263672,64.880371,112.609863,0,0
7950,2024 10 17,09:01:06.239,-0.451622,-0.510003,0.490687,-0.543287,-1.101108,0.416028,0.059572,-20.263672,64.880371,112.609863,0,0
7951,2024 10 17,09:01:06.247,-0.455381,-0.517127,0.489082,-0.534796,-1.126011,0.380383,0.061037,-23.681641,64.208984,114.807129,0,0
7952,2024 10 17,09:01:06.255,-0.459346,-0.524125,0.487422,-0.526037,-1.141636,0.350597,0.066408,-26.550293,63.720703,117.553711,0,0
7953,2024 10 17,09:01:06.264,-0.463487,-0.531015,0.485633,-0.517073,-1.168981,0.302744,0.055177,-28.137207,62.255859,119.934082,0,0
7954,2024 10 17,09:01:06.272,-0.46772,-0.537755,0.48368,-0.508046,-1.173864,0.249519,0.051271,-28.564453,60.913086,121.09375,0,0
7955,2024 10 17,09:01:06.280,-0.471839,-0.544449,0.481623,-0.498981,-1.190954,0.205573,0.051759,-27.526855,61.157227,121.21582,0,0
7956,2024 10 17,09:01:06.289,-0.475758,-0.551103,0.479478,-0.489939,-1.224158,0.163579,0.034181,-25.634766,61.462402,120.483398,0,0
7957,2024 10 17,09:01:06.297,-0.475758,-0.551103,0.479478,-0.489939,-1.224158,0.163579,0.034181,-25.634766,61.462402,120.483398,0,0
7958,2024 10 17,09:01:06.305,-0.479475,-0.557666,0.477218,-0.481015,-1.240761,0.107425,0.008301,-23.498535,60.72998,119.07959,0,0
7959,2024 10 17,09:01:06.314,-0.482954,-0.564104,0.474864,-0.472277,-1.250526,0.025391,-0.006836,-20.935059,59.692383,117.126465,0,0
7960,2024 10 17,09:01:06.322,-0.486214,-0.570432,0.472351,-0.463776,-1.24369,-0.056154,-0.026368,-17.944336,57.922363,115.722656,0,0
7961,2024 10 17,09:01:06.330,-0.489252,-0.576663,0.469638,-0.455557,-1.244667,-0.1377,-0.050783,-14.587402,55.480957,114.257813,0,0
7962,2024 10 17,09:01:06.339,-0.49218,-0.582671,0.466662,-0.447749,-1.224158,-0.211921,-0.072756,-11.413574,50.292969,112.548828,0,0
7963,2024 10 17,09:01:06.347,-0.49218,-0.582671,0.466662,-0.447749,-1.224158,-0.211921,-0.072756,-11.413574,50.292969,112.548828,0,0
7964,2024 10 17,09:01:06.355,-0.495033,-0.588466,0.463427,-0.440325,-1.202673,-0.279794,-0.087405,-9.643555,45.959473,111.083984,0,0
7965,2024 10 17,09:01:06.364,-0.497839,-0.593909,0.459932,-0.433463,-1.164098,-0.314951,-0.097171,-6.835938,38.330078,107.299805,0,0
7966,2024 10 17,09:01:06.372,-0.500633,-0.598907,0.456311,-0.42715,-1.11185,-0.352062,-0.098148,-5.493164,32.653809,102.722168,0,0
7967,2024 10 17,09:01:06.380,-0.503355,-0.603522,0.452706,-0.42125,-1.099643,-0.378918,-0.112796,-5.493164,28.747559,98.144531,0,0
7968,2024 10 17,09:01:06.389,-0.506079,-0.607685,0.449179,-0.415742,-1.09183,-0.412122,-0.129398,-6.958008,23.925781,93.017578,0,0
7969,2024 10 17,09:01:06.397,-0.506079,-0.607685,0.449179,-0.415742,-1.09183,-0.412122,-0.129398,-6.958008,23.925781,93.017578,0,0
7970,2024 10 17,09:01:06.405,-0.508896,-0.611224,0.445773,-0.410751,-1.072298,-0.444349,-0.1377,-9.643555,17.211914,86.242676,0,0
7971,2024 10 17,09:01:06.414,-0.511836,-0.614108,0.442552,-0.406255,-1.025422,-0.492691,-0.159185,-12.573242,11.962891,79.772949,0,0
7972,2024 10 17,09:01:06.422,-0.514849,-0.616442,0.439587,-0.402111,-0.991241,-0.551775,-0.15772,-15.930176,7.995605,73.608398,0,0
7973,2024 10 17,09:01:06.430,-0.517885,-0.618134,0.436958,-0.398463,-0.967803,-0.652852,-0.154302,-18.554688,3.479004,64.758301,0,0
7974,2024 10 17,09:01:06.439,-0.520648,-0.619251,0.434823,-0.395452,-0.943388,-0.753929,-0.155278,-18.493652,1.037598,53.283691,0,0
7975,2024 10 17,09:01:06.447,-0.520648,-0.619251,0.434823,-0.395452,-0.943388,-0.753929,-0.155278,-18.493652,1.037598,53.283691,0,0
7976,2024 10 17,09:01:06.455,-0.522976,-0.619872,0.433236,-0.393144,-0.953154,-0.845729,-0.15479,-17.150879,-0.793457,41.19873,0,0
7977,2024 10 17,09:01:06.464,-0.524897,-0.619923,0.43211,-0.391739,-0.980987,-0.93997,-0.144047,-14.953613,-5.859375,27.954102,0,0
7978,2024 10 17,09:01:06.472,-0.526314,-0.619437,0.431386,-0.391404,-0.988311,-1.030305,-0.130375,-10.864258,-10.559082,14.465332,0,0
7979,2024 10 17,09:01:06.480,-0.527163,-0.618512,0.431019,-0.392129,-1.050325,-1.099155,-0.092776,-5.737305,-15.930176,1.281738,0,0
7980,2024 10 17,09:01:06.489,-0.527476,-0.616967,0.430919,-0.394245,-1.238319,-1.172887,-0.045412,0.427246,-24.719238,-15.319824,0,0
7981,2024 10 17,09:01:06.497,-0.527476,-0.616967,0.430919,-0.394245,-1.238319,-1.172887,-0.045412,0.427246,-24.719238,-15.319824,0,0
7982,2024 10 17,09:01:06.505,-0.516695,-0.616922,0.437397,-0.401394,-1.389203,-0.983428,-2.019104,114.074707,69.458008,-184.570313,1,0
7983,2024 10 17,09:01:06.514,-0.514239,-0.607309,0.43542,-0.420884,-0.548845,0.223151,2.477615,84.899902,-192.565918,-169.372559,0,0
7984,2024 10 17,09:01:06.522,-0.504273,-0.604123,0.438296,-0.434327,-1.33549,1.056185,-1.615283,72.387695,-23.864746,-152.282715,0,0
7985,2024 10 17,09:01:06.530,-0.502367,-0.594992,0.439917,-0.447309,-1.023469,0.6592,1.39555,23.925781,-123.168945,-145.324707,0,0
7986,2024 10 17,09:01:06.539,-0.501181,-0.585337,0.444909,-0.45635,-1.429731,0.000977,-0.677755,-48.828125,-79.711914,-139.831543,0,0
7987,2024 10 17,09:01:06.547,-0.501181,-0.585337,0.444909,-0.45635,-1.429731,0.000977,-0.677755,-48.828125,-79.711914,-139.831543,0,0
7988,2024 10 17,09:01:06.555,-0.502696,-0.573478,0.447758,-0.466833,-1.084018,0.17188,0.196295,-42.785645,-125.0,-125.793457,0,0
7989,2024 10 17,09:01:06.564,-0.504473,-0.56329,0.450682,-0.474443,-1.131871,-0.086917,-0.272958,-40.161133,-90.515137,-98.510742,0,0
7990,2024 10 17,09:01:06.572,-0.50679,-0.55454,0.451799,-0.481173,-1.002472,-0.119144,-0.143559,-38.574219,-96.313477,-70.068359,0,0
7991,2024 10 17,09:01:06.580,-0.508967,-0.547314,0.451776,-0.487133,-0.932157,0.058107,-0.013184,-21.179199,-83.312988,-55.908203,0,0
7992,2024 10 17,09:01:06.589,-0.510799,-0.541333,0.451604,-0.492033,-0.991241,0.116214,-0.013672,-20.935059,-74.21875,-45.593262,0,0
7993,2024 10 17,09:01:06.597,-0.510799,-0.541333,0.451604,-0.492033,-0.991241,0.116214,-0.013672,-20.935059,-74.21875,-45.593262,0,0
7994,2024 10 17,09:01:06.605,-0.51356,-0.535294,0.45114,-0.496174,-1.003937,0.1377,0.121586,-31.860352,-77.026367,-33.813477,0,0
7995,2024 10 17,09:01:06.614,-0.517351,-0.528967,0.450796,-0.499325,-1.015168,0.136723,0.092776,-46.630859,-77.880859,-25.268555,0,0
7996,2024 10 17,09:01:06.622,-0.522291,-0.522342,0.450561,-0.501363,-0.934111,0.06592,-0.134281,-60.852051,-77.819824,-14.770508,0,0
7997,2024 10 17,09:01:06.630,-0.527451,-0.516033,0.45005,-0.502951,-0.721702,-0.007813,-0.28956,-52.978516,-70.251465,-8.361816,0,0
7998,2024 10 17,09:01:06.639,-0.530614,-0.511976,0.449803,-0.503991,-0.832057,0.076662,-0.235847,-32.104492,-38.818359,-6.713867,0,0
7999,2024 10 17,09:01:06.647,-0.530614,-0.511976,0.449803,-0.503991,-0.832057,0.076662,-0.235847,-32.104492,-38.818359,-6.713867,0,0
8000,2024 10 17,09:01:06.655,-0.532548,-0.509448,0.44985,-0.504471,-0.866237,0.0459,-0.150884,-21.606445,-22.705078,-4.760742,0,0
8001,2024 10 17,09:01:06.664,-0.533216,-0.508305,0.449921,-0.504854,-0.875027,0.10596,-0.147954,-4.516602,-7.324219,-5.126953,0,0
8002,2024 10 17,09:01:06.672,-0.532905,-0.508147,0.45014,-0.505145,-0.938505,0.122074,-0.084475,1.281738,2.380371,-6.286621,0,0
8003,2024 10 17,09:01:06.680,-0.532003,-0.508434,0.450452,-0.505531,-0.883328,0.129887,-0.109867,9.643555,7.93457,-8.850098,0,0
8004,2024 10 17,09:01:06.688,-0.530432,-0.509312,0.450973,-0.505832,-0.931669,0.130375,-0.08301,13.793945,16.967773,-9.94873,0,0
8005,2024 10 17,09:01:06.697,-0.528479,-0.510454,0.451608,-0.506159,-0.961943,0.146489,-0.030763,16.845703,19.104004,-11.84082,0,0
8006,2024 10 17,09:01:06.705,-0.528479,-0.510454,0.451608,-0.506159,-0.961943,0.146489,-0.030763,16.845703,19.104004,-11.84082,0,0
8007,2024 10 17,09:01:06.713,-0.526411,-0.511628,0.452283,-0.506526,-0.982452,0.1377,-0.038575,17.028809,18.920898,-12.512207,0,0
8008,2024 10 17,09:01:06.722,-0.524467,-0.512672,0.4529,-0.506935,-0.966338,0.145512,-0.032716,15.930176,17.089844,-12.084961,0,0
8009,2024 10 17,09:01:06.730,-0.522787,-0.513555,0.453482,-0.507257,-0.967803,0.150395,-0.034181,12.573242,14.648438,-10.375977,0,0
8010,2024 10 17,09:01:06.738,-0.521453,-0.514159,0.454061,-0.5075,-0.96878,0.140629,-0.031251,7.995605,11.59668,-9.70459,0,0
8011,2024 10 17,09:01:06.747,-0.520429,-0.514479,0.454589,-0.507754,-0.961943,0.170415,-0.033204,5.493164,8.117676,-9.399414,0,0
8012,2024 10 17,09:01:06.755,-0.520429,-0.514479,0.454589,-0.507754,-0.961943,0.170415,-0.033204,5.493164,8.117676,-9.399414,0,0
8013,2024 10 17,09:01:06.763,-0.519693,-0.514507,0.455175,-0.507954,-0.965361,0.147954,-0.026856,2.319336,5.859375,-9.155273,0,0
8014,2024 10 17,09:01:06.772,-0.519035,-0.514404,0.455777,-0.508192,-0.973174,0.12598,-0.037111,0.12207,4.211426,-9.82666,0,0
8015,2024 10 17,09:01:06.780,-0.518433,-0.514156,0.456299,-0.508587,-0.955107,0.130375,-0.038087,0.854492,2.197266,-10.620117,0,0
8016,2024 10 17,09:01:06.788,-0.517828,-0.513868,0.456791,-0.509054,-0.943388,0.127445,-0.033204,1.77002,1.525879,-11.169434,0,0
8017,2024 10 17,09:01:06.797,-0.51715,-0.513579,0.457281,-0.509594,-0.956572,0.133305,-0.043947,1.77002,1.342773,-12.084961,0,0
8018,2024 10 17,09:01:06.805,-0.51715,-0.513579,0.457281,-0.509594,-0.956572,0.133305,-0.043947,1.77002,1.342773,-12.084961,0,0
8019,2024 10 17,09:01:06.813,-0.516504,-0.51319,0.457787,-0.510187,-0.93997,0.13184,-0.048341,1.403809,0.732422,-12.878418,0,0
8020,2024 10 17,09:01:06.822,-0.515859,-0.512738,0.458377,-0.510764,-0.927763,0.127445,-0.041993,0.305176,1.159668,-13.61084,0,0
8021,2024 10 17,09:01:06.830,-0.515157,-0.512266,0.459127,-0.511273,-0.949736,0.134281,-0.065432,-1.098633,2.380371,-14.648438,0,0
8022,2024 10 17,09:01:06.838,-0.514587,-0.511568,0.459931,-0.511821,-0.958525,0.135746,-0.025391,-2.746582,0.488281,-15.686035,0,0
8023,2024 10 17,09:01:06.847,-0.514132,-0.51067,0.460794,-0.5124,-0.965361,0.120121,-0.035157,-5.310059,-2.624512,-16.540527,0,0
8024,2024 10 17,09:01:06.855,-0.514132,-0.51067,0.460794,-0.5124,-0.965361,0.120121,-0.035157,-5.310059,-2.624512,-16.540527,0,0
8025,2024 10 17,09:01:06.863,-0.513937,-0.509454,0.461569,-0.513107,-0.960967,0.108402,-0.027833,-7.080078,-5.981445,-16.662598,0,0
8026,2024 10 17,09:01:06.872,-0.513876,-0.508082,0.462284,-0.513885,-0.938505,0.104984,-0.040529,-8.056641,-9.094238,-16.418457,0,0
8027,2024 10 17,09:01:06.880,-0.513944,-0.5066,0.462916,-0.51471,-0.946318,0.084475,-0.053224,-7.8125,-10.437012,-16.235352,0,0
8028,2024 10 17,09:01:06.888,-0.513995,-0.505126,0.463385,-0.515685,-0.931669,0.090823,-0.066408,-6.835938,-12.207031,-15.991211,0,0
8029,2024 10 17,09:01:06.897,-0.513979,-0.503734,0.463846,-0.516647,-0.938017,0.102542,-0.054201,-5.554199,-10.314941,-16.113281,0,0
8030,2024 10 17,09:01:06.905,-0.513979,-0.503734,0.463846,-0.516647,-0.938017,0.102542,-0.054201,-5.554199,-10.314941,-16.113281,0,0
8031,2024 10 17,09:01:06.913,-0.513906,-0.502366,0.464382,-0.51757,-0.92581,0.10303,-0.069338,-5.737305,-9.765625,-16.784668,0,0
8032,2024 10 17,09:01:06.922,-0.513818,-0.501027,0.464988,-0.51841,-0.930692,0.098636,-0.079592,-6.469727,-7.629395,-16.662598,0,0
8033,2024 10 17,09:01:06.930,-0.513591,-0.499786,0.465732,-0.519166,-0.946318,0.086917,-0.06006,-6.408691,-5.981445,-17.089844,0,0
8034,2024 10 17,09:01:06.938,-0.513259,-0.4986,0.466489,-0.519953,-0.94583,0.06885,-0.052736,-5.310059,-5.187988,-17.578125,0,0
8035,2024 10 17,09:01:06.947,-0.51283,-0.497491,0.467199,-0.520802,-0.951689,0.064943,-0.053713,-3.356934,-5.065918,-17.76123,0,0
8036,2024 10 17,09:01:06.955,-0.51283,-0.497491,0.467199,-0.520802,-0.951689,0.064943,-0.053713,-3.356934,-5.065918,-17.76123,0,0
8037,2024 10 17,09:01:06.963,-0.512295,-0.496469,0.467744,-0.521811,-0.964873,0.070315,-0.055177,-0.305176,-6.103516,-18.066406,0,0
8038,2024 10 17,09:01:06.972,-0.511693,-0.495451,0.468161,-0.522996,-0.975127,0.081057,-0.050783,1.77002,-7.385254,-18.859863,0,0
8039,2024 10 17,09:01:06.980,-0.510938,-0.494432,0.468581,-0.524319,-0.971709,0.074709,-0.032228,3.051758,-7.507324,-20.874023,0,0
8040,2024 10 17,09:01:06.988,-0.510252,-0.49326,0.469005,-0.525711,-0.960967,0.087405,-0.094241,1.403809,-9.033203,-21.728516,0,0
8041,2024 10 17,09:01:06.997,-0.509469,-0.49205,0.469595,-0.527075,-0.979522,0.095706,-0.089358,0.915527,-6.04248,-23.55957,0,0
8042,2024 10 17,09:01:07.005,-0.509469,-0.49205,0.469595,-0.527075,-0.979522,0.095706,-0.089358,0.915527,-6.04248,-23.55957,0,0
8043,2024 10 17,09:01:07.013,-0.508439,-0.490814,0.470465,-0.528445,-0.985382,0.095218,-0.077151,0.854492,-4.150391,-27.282715,0,0
8044,2024 10 17,09:01:07.022,-0.507133,-0.489526,0.471555,-0.529921,-0.988311,0.078616,-0.058107,1.586914,-2.197266,-31.066895,0,0
8045,2024 10 17,09:01:07.030,-0.505481,-0.488195,0.472879,-0.531545,-1.011261,0.099124,-0.075198,1.831055,-0.732422,-35.461426,0,0
8046,2024 10 17,09:01:07.038,-0.503746,-0.486653,0.474459,-0.533196,-1.007843,0.095218,-0.090823,-0.854492,0.549316,-38.696289,0,0
8047,2024 10 17,09:01:07.047,-0.501677,-0.485029,0.476507,-0.534797,-1.087435,0.118168,-0.073733,-2.319336,5.126953,-44.494629,0,0
8048,2024 10 17,09:01:07.055,-0.501677,-0.485029,0.476507,-0.534797,-1.087435,0.118168,-0.073733,-2.319336,5.126953,-44.494629,0,0
8049,2024 10 17,09:01:07.063,-0.499204,-0.483054,0.479086,-0.536593,-1.171422,0.149907,-0.099612,-3.601074,6.896973,-54.138184,0,0
8050,2024 10 17,09:01:07.072,-0.496145,-0.480641,0.482207,-0.538796,-1.287637,0.142094,-0.054689,-3.845215,7.995605,-66.40625,0,0
8051,2024 10 17,09:01:07.080,-0.492281,-0.477519,0.485796,-0.541882,-1.366741,0.140629,-0.035646,-1.342773,3.90625,-84.411621,0,0
8052,2024 10 17,09:01:07.088,-0.487704,-0.473357,0.48969,-0.546152,-1.379925,0.18067,0.043947,1.159668,-4.333496,-102.416992,0,0
8053,2024 10 17,09:01:07.097,-0.482571,-0.468067,0.493998,-0.551366,-1.404828,0.168462,-0.082522,1.403809,-10.498047,-120.97168,0,0
8054,2024 10 17,09:01:07.105,-0.476582,-0.461587,0.498677,-0.557788,-1.389691,0.173833,-0.009766,2.685547,-17.089844,-141.845703,0,0
8055,2024 10 17,09:01:07.113,-0.476582,-0.461587,0.498677,-0.557788,-1.389691,0.173833,-0.009766,2.685547,-17.089844,-141.845703,0,0
8056,2024 10 17,09:01:07.122,-0.469803,-0.453942,0.503971,-0.565008,-1.467818,0.245125,-0.049318,0.12207,-20.446777,-161.193848,0,0
8057,2024 10 17,09:01:07.130,-0.462092,-0.445058,0.510284,-0.572717,-1.552293,0.288095,-0.064943,-4.882813,-17.700195,-184.631348,0,0
8058,2024 10 17,09:01:07.138,-0.45275,-0.434802,0.517787,-0.581259,-1.87701,0.422864,-0.123051,-7.080078,-18.188477,-216.796875,0,0
8059,2024 10 17,09:01:07.147,-0.442027,-0.421918,0.526439,-0.591151,-2.088931,0.453139,-0.078127,-13.549805,-27.587891,-258.666992,0,0
8060,2024 10 17,09:01:07.155,-0.428804,-0.4064,0.5362,-0.602873,-2.281808,0.554704,0.103519,-9.58252,-36.071777,-308.044434,0,0
8061,2024 10 17,09:01:07.163,-0.428804,-0.4064,0.5362,-0.602873,-2.281808,0.554704,0.103519,-9.58252,-36.071777,-308.044434,0,0
8062,2024 10 17,09:01:07.172,-0.412921,-0.387761,0.54724,-0.61617,-2.627033,0.604999,-0.1919,-14.160156,-43.334961,-361.694336,0,0
8063,2024 10 17,09:01:07.180,-0.394544,-0.364894,0.559266,-0.631196,-3.005463,0.68508,-0.227058,-21.179199,-60.48584,-421.203613,0,0
8064,2024 10 17,09:01:07.188,-0.37448,-0.337354,0.572579,-0.646614,-3.045503,0.45851,-0.355968,-46.569824,-82.15332,-467.407227,0,0
8065,2024 10 17,09:01:07.197,-0.353163,-0.306048,0.586582,-0.661462,-2.983978,-0.008789,-0.158208,-61.096191,-89.233398,-499.450684,0,0
8066,2024 10 17,09:01:07.205,-0.329783,-0.273697,0.599829,-0.675676,-2.848232,-0.163579,-0.227058,-46.936035,-84.289551,-507.507324,0,1
8067,2024 10 17,09:01:07.213,-0.329783,-0.273697,0.599829,-0.675676,-2.848232,-0.163579,-0.227058,-46.936035,-84.289551,-507.507324,0,0
8068,2024 10 17,09:01:07.222,-0.305927,-0.241949,0.610806,-0.689047,-3.23545,0.187506,-0.13477,-41.625977,-86.914063,-494.812012,0,0
8069,2024 10 17,09:01:07.230,-0.283631,-0.208119,0.620058,-0.701261,-2.705161,0.523453,0.214362,-41.320801,-123.10791,-494.995117,0,0
8070,2024 10 17,09:01:07.238,-0.260723,-0.174291,0.627464,-0.712696,-2.253975,1.14359,0.297861,-30.944824,-107.60498,-492.004395,0,0
8071,2024 10 17,09:01:07.247,-0.235481,-0.141961,0.633868,-0.722915,-1.451705,1.439985,0.667013,-20.812988,-79.711914,-495.605469,0,0
8072,2024 10 17,09:01:07.255,-0.206255,-0.113929,0.638981,-0.732245,-0.762719,1.142125,1.281777,5.981445,1.342773,-486.14502,0,0
8073,2024 10 17,09:01:07.263,-0.206255,-0.113929,0.638981,-0.732245,-0.762719,1.142125,1.281777,5.981445,1.342773,-486.14502,0,0
8074,2024 10 17,09:01:07.272,-0.169581,-0.093386,0.64149,-0.742302,-0.445326,0.447279,0.861843,88.989258,113.342285,-496.337891,0,0
8075,2024 10 17,09:01:07.280,-0.137534,-0.082243,0.634783,-0.755891,1.802301,0.624043,1.899472,199.279785,97.229004,-297.546387,0,0
8076,2024 10 17,09:01:07.288,-0.126784,-0.089247,0.627452,-0.763062,-0.339366,1.561083,0.255379,102.966309,149.108887,29.296875,0,0
8077,2024 10 17,09:01:07.297,-0.125086,-0.111328,0.616952,-0.76898,-1.771538,2.104556,0.288583,186.645508,169.128418,166.564941,0,0
8078,2024 10 17,09:01:07.305,-0.136673,-0.130472,0.606474,-0.772326,-1.524949,1.484909,0.480483,115.966797,31.311035,250.793457,0,0
8079,2024 10 17,09:01:07.313,-0.136673,-0.130472,0.606474,-0.772326,-1.524949,1.484909,0.480483,115.966797,31.311035,250.793457,0,0
8080,2024 10 17,09:01:07.322,-0.154785,-0.146737,0.595814,-0.774284,-0.935087,1.359905,0.189459,96.008301,-7.141113,285.339355,0,0
8081,2024 10 17,09:01:07.330,-0.175773,-0.161119,0.586552,-0.774016,-0.491226,1.01175,0.499039,68.17627,-37.658691,293.457031,0,0
8082,2024 10 17,09:01:07.338,-0.194788,-0.176773,0.578363,-0.772208,-0.392102,0.89114,0.314951,54.016113,8.911133,286.193848,0,0
8083,2024 10 17,09:01:07.347,-0.211563,-0.193779,0.571242,-0.769008,-0.277352,0.87991,0.476577,43.151855,34.912109,276.733398,0,0
8084,2024 10 17,09:01:07.355,-0.226585,-0.212648,0.565373,-0.764063,-0.35548,0.89407,0.319834,28.320313,71.044922,278.259277,0,0
8085,2024 10 17,09:01:07.363,-0.226585,-0.212648,0.565373,-0.764063,-0.35548,0.89407,0.319834,28.320313,71.044922,278.259277,0,0
8086,2024 10 17,09:01:07.372,-0.241249,-0.232797,0.560525,-0.757243,-0.489761,0.881375,0.313974,10.131836,88.195801,286.315918,0,0
8087,2024 10 17,09:01:07.380,-0.25594,-0.254058,0.556605,-0.748425,-0.662618,0.793481,0.219245,-7.629395,104.309082,296.508789,0,0
8088,2024 10 17,09:01:07.388,-0.2711,-0.27576,0.553272,-0.737802,-0.739769,0.672384,0.199225,-23.803711,111.022949,306.396484,0,0
8089,2024 10 17,09:01:07.397,-0.286395,-0.297971,0.550276,-0.725526,-0.84817,0.546403,0.198737,-34.301758,121.21582,314.51416,0,0
8090,2024 10 17,09:01:07.405,-0.301648,-0.320575,0.547279,-0.711847,-0.954131,0.429212,0.187994,-40.405273,128.723145,321.166992,0,0
8091,2024 10 17,09:01:07.413,-0.301648,-0.320575,0.547279,-0.711847,-0.954131,0.429212,0.187994,-40.405273,128.723145,321.166992,0,0
8092,2024 10 17,09:01:07.422,-0.316685,-0.343522,0.543911,-0.69704,-1.04593,0.348643,0.188971,-41.07666,136.108398,326.843262,0,0
8093,2024 10 17,09:01:07.430,-0.331324,-0.366873,0.539871,-0.681298,-1.188513,0.281747,0.183111,-37.719727,141.845703,332.519531,0,0
8094,2024 10 17,09:01:07.438,-0.345721,-0.390408,0.534793,-0.664872,-1.334513,0.253914,0.161626,-31.12793,142.944336,339.111328,0,0
8095,2024 10 17,09:01:07.447,-0.359957,-0.414003,0.528402,-0.647939,-1.475631,0.22364,0.145512,-22.888184,140.625,346.252441,0,0
8096,2024 10 17,09:01:07.455,-0.374108,-0.437412,0.520557,-0.630662,-1.609912,0.213385,0.107913,-14.831543,134.521484,352.966309,0,0
8097,2024 10 17,09:01:07.463,-0.388127,-0.460421,0.511254,-0.613179,-1.734428,0.200201,0.069826,-6.713867,127.807617,357.48291,0,0
8098,2024 10 17,09:01:07.472,-0.388127,-0.460421,0.511254,-0.613179,-1.734428,0.200201,0.069826,-6.713867,127.807617,357.48291,0,0
8099,2024 10 17,09:01:07.480,-0.402015,-0.482926,0.500568,-0.595481,-1.798395,0.193854,0.073733,-0.061035,120.117188,362.792969,0,0
8100,2024 10 17,09:01:07.488,-0.415794,-0.505129,0.488536,-0.577315,-1.888241,0.195807,0.123539,5.065918,116.088867,371.21582,0,0
8101,2024 10 17,09:01:07.497,-0.429485,-0.527092,0.475196,-0.558485,-1.980529,0.139653,0.172369,9.216309,112.426758,380.554199,0,0
8102,2024 10 17,09:01:07.505,-0.442812,-0.548825,0.460682,-0.538962,-2.073794,0.043947,0.237312,14.587402,112.731934,387.817383,0,0
8103,2024 10 17,09:01:07.513,-0.455237,-0.57042,0.4453,-0.518737,-2.195868,-0.058596,0.295907,21.42334,117.06543,390.625,0,0
8104,2024 10 17,09:01:07.522,-0.455237,-0.57042,0.4453,-0.518737,-2.195868,-0.058596,0.295907,21.42334,117.06543,390.625,0,0
8105,2024 10 17,09:01:07.530,-0.466363,-0.591816,0.429344,-0.497919,-2.296945,-0.218268,0.337413,29.418945,124.511719,389.038086,0,0
8106,2024 10 17,09:01:07.538,-0.475917,-0.612912,0.413121,-0.476626,-2.420484,-0.48439,0.350108,37.536621,132.202148,384.277344,0,0
8107,2024 10 17,09:01:07.547,-0.483768,-0.633674,0.39686,-0.454894,-2.563066,-0.816431,0.298837,44.677734,141.967773,378.051758,0,0
8108,2024 10 17,09:01:07.555,-0.490135,-0.653496,0.380838,-0.433213,-2.667562,-1.213416,0.281747,48.156738,143.371582,364.501953,0,0
8109,2024 10 17,09:01:07.563,-0.495018,-0.671845,0.365869,-0.411973,-2.754479,-1.62212,0.110355,45.410156,146.54541,340.515137,0,0
8110,2024 10 17,09:01:07.572,-0.495018,-0.671845,0.365869,-0.411973,-2.754479,-1.62212,0.110355,45.410156,146.54541,340.515137,0,0
8111,2024 10 17,09:01:07.580,-0.498667,-0.687977,0.352815,-0.391842,-2.617267,-1.980041,-0.119633,35.705566,143.127441,303.527832,0,0
8112,2024 10 17,09:01:07.588,-0.501279,-0.701337,0.343034,-0.373059,-2.203192,-2.369213,-0.542009,16.601563,148.193359,252.563477,0,0
8113,2024 10 17,09:01:07.597,-0.502705,-0.712216,0.338119,-0.354558,-1.798395,-2.732505,-1.216346,-7.751465,174.194336,197.509766,0,0
8114,2024 10 17,09:01:07.605,-0.503109,-0.720539,0.338216,-0.336624,-1.863826,-3.477157,-1.815973,-33.508301,192.687988,140.075684,0,0
8115,2024 10 17,09:01:07.613,-0.502597,-0.726551,0.342413,-0.319802,-3.13535,-4.170049,-2.168523,-40.405273,197.08252,94.848633,0,0
8116,2024 10 17,09:01:07.622,-0.502597,-0.726551,0.342413,-0.319802,-3.13535,-4.170049,-2.168523,-40.405273,197.08252,94.848633,0,0
8117,2024 10 17,09:01:07.630,-0.503043,-0.728275,0.346114,-0.311077,-3.588977,-4.165166,-2.027406,-42.663574,73.730469,41.19873,0,0
8118,2024 10 17,09:01:07.638,-0.506782,-0.723763,0.34565,-0.316016,-2.24958,-3.749138,-1.393109,-36.071777,-101.745605,-15.319824,0,0
8119,2024 10 17,09:01:07.647,-0.509882,-0.717309,0.34489,-0.326404,-1.397015,-2.759362,-1.106479,-16.235352,-106.933594,-56.518555,0,0
8120,2024 10 17,09:01:07.655,-0.481492,-0.721936,0.361131,-0.341405,-3.134373,3.870235,-6.336619,355.957031,155.822754,-427.55127,1,0
8121,2024 10 17,09:01:07.663,-0.493687,-0.691685,0.356574,-0.3882,1.749565,1.087924,5.841975,36.010742,-618.530273,-320.068359,0,0
8122,2024 10 17,09:01:07.672,-0.493687,-0.691685,0.356574,-0.3882,1.749565,1.087924,5.841975,36.010742,-618.530273,-320.068359,0,0
8123,2024 10 17,09:01:07.680,-0.482653,-0.681441,0.375641,-0.401968,-1.283242,-0.057619,-2.495193,-60.36377,184.631348,-326.660156,0,0
8124,2024 10 17,09:01:07.688,-0.468831,-0.669351,0.396299,-0.418465,-2.278878,1.443403,1.116245,-37.353516,-128.051758,-367.30957,0,0
8125,2024 10 17,09:01:07.697,-0.476115,-0.64271,0.416763,-0.43191,-1.492233,-1.148961,-0.509781,-221.191406,-95.76416,-298.217773,0,0
8126,2024 10 17,09:01:07.705,-0.476195,-0.625919,0.433412,-0.44002,-2.748131,-0.525895,-0.949736,-123.718262,-77.819824,-217.285156,0,0
8127,2024 10 17,09:01:07.713,-0.481022,-0.608631,0.438333,-0.453928,-1.305216,-0.284677,0.166509,-57.495117,-186.401367,-157.287598,0,0
8128,2024 10 17,09:01:07.722,-0.481022,-0.608631,0.438333,-0.453928,-1.305216,-0.284677,0.166509,-57.495117,-186.401367,-157.287598,0,0
8129,2024 10 17,09:01:07.730,-0.483634,-0.5959,0.43975,-0.466498,-1.413129,0.192877,0.413587,-39.306641,-164.611816,-118.225098,0,0
8130,2024 10 17,09:01:07.738,-0.490495,-0.581802,0.440515,-0.476307,-1.11771,-0.175787,0.284677,-89.172363,-166.503906,-83.92334,0,0
8131,2024 10 17,09:01:07.747,-0.497708,-0.569346,0.440231,-0.484075,-0.912137,-0.089846,-0.23487,-69.946289,-162.29248,-58.47168,0,0
8132,2024 10 17,09:01:07.755,-0.504311,-0.558314,0.438573,-0.491538,-0.845241,-0.047365,-0.284188,-55.908203,-141.967773,-47.668457,0,0
8133,2024 10 17,09:01:07.763,-0.509541,-0.549524,0.436945,-0.497464,-0.909696,0.083987,0.051271,-46.264648,-116.333008,-34.667969,0,0
8134,2024 10 17,09:01:07.772,-0.509541,-0.549524,0.436945,-0.497464,-0.909696,0.083987,0.051271,-46.264648,-116.333008,-34.667969,0,0
8135,2024 10 17,09:01:07.780,-0.514395,-0.542112,0.435873,-0.501526,-0.818384,0.043458,-0.199713,-44.372559,-93.261719,-24.780273,0,0
8136,2024 10 17,09:01:07.788,-0.517825,-0.53636,0.434763,-0.50513,-0.817896,0.091311,-0.156255,-26.123047,-72.20459,-22.155762,0,0
8137,2024 10 17,09:01:07.797,-0.520175,-0.532271,0.434,-0.507691,-0.795434,0.015137,-0.224616,-19.958496,-49.804688,-14.892578,0,0
8138,2024 10 17,09:01:07.805,-0.521057,-0.530029,0.433298,-0.509728,-0.886746,0.194342,-0.051759,0.854492,-27.22168,-13.61084,0,0
8139,2024 10 17,09:01:07.813,-0.521152,-0.528774,0.433073,-0.511123,-0.938505,0.125492,-0.112308,0.488281,-16.418457,-13.61084,0,0
8140,2024 10 17,09:01:07.822,-0.521152,-0.528774,0.433073,-0.511123,-0.938505,0.125492,-0.112308,0.488281,-16.418457,-13.61084,0,0
8141,2024 10 17,09:01:07.830,-0.520527,-0.527968,0.432849,-0.512779,-0.910672,0.165532,-0.032228,10.620117,-10.253906,-17.333984,0,0
8142,2024 10 17,09:01:07.838,-0.519278,-0.527639,0.432873,-0.514363,-0.969268,0.145024,-0.058107,13.85498,-4.882813,-19.470215,0,0
8143,2024 10 17,09:01:07.847,-0.517724,-0.527416,0.432807,-0.51621,-0.956572,0.168462,-0.008301,18.554688,-4.577637,-21.66748,0,0
8144,2024 10 17,09:01:07.855,-0.516022,-0.527234,0.432777,-0.518122,-0.954131,0.173833,-0.055666,19.165039,-4.882813,-22.766113,0,0
8145,2024 10 17,09:01:07.863,-0.514398,-0.526983,0.432837,-0.519938,-0.949736,0.176763,-0.062014,15.991211,-3.417969,-22.399902,0,0
8146,2024 10 17,09:01:07.872,-0.512988,-0.526605,0.433089,-0.521502,-0.925321,0.173345,-0.072268,11.291504,-3.234863,-21.362305,0,0
8147,2024 10 17,09:01:07.880,-0.512988,-0.526605,0.433089,-0.521502,-0.925321,0.173345,-0.072268,11.291504,-3.234863,-21.362305,0,0
8148,2024 10 17,09:01:07.888,-0.511892,-0.526024,0.433498,-0.522824,-0.938994,0.151372,-0.040529,7.263184,-3.417969,-19.65332,0,0
8149,2024 10 17,09:01:07.897,-0.511,-0.525399,0.433962,-0.523938,-0.940947,0.127445,-0.063967,3.051758,-3.90625,-17.578125,0,0
8150,2024 10 17,09:01:07.905,-0.5104,-0.524614,0.434291,-0.525036,-0.952178,0.139653,-0.021485,1.77002,-6.958008,-15.74707,0,0
8151,2024 10 17,09:01:07.913,-0.510034,-0.523735,0.434566,-0.526041,-0.948271,0.130863,-0.050783,0.427246,-8.483887,-14.099121,0,0
8152,2024 10 17,09:01:07.922,-0.509836,-0.522749,0.434691,-0.527111,-0.93704,0.13184,-0.051759,-0.244141,-11.108398,-13.183594,0,0
8153,2024 10 17,09:01:07.930,-0.509836,-0.522749,0.434691,-0.527111,-0.93704,0.13184,-0.051759,-0.244141,-11.108398,-13.183594,0,0
8154,2024 10 17,09:01:07.938,-0.509745,-0.521612,0.434802,-0.528231,-0.944853,0.135746,-0.073244,-1.953125,-12.939453,-13.73291,0,0
8155,2024 10 17,09:01:07.947,-0.509758,-0.520358,0.434965,-0.529321,-0.900906,0.135746,-0.092776,-3.295898,-12.817383,-13.85498,0,0
8156,2024 10 17,09:01:07.955,-0.509821,-0.519064,0.435245,-0.530299,-0.921415,0.141118,-0.074221,-5.249023,-11.779785,-13.73291,0,0
8157,2024 10 17,09:01:07.963,-0.50994,-0.517685,0.435674,-0.531179,-0.933622,0.125004,-0.081545,-7.8125,-11.474609,-13.977051,0,0
8158,2024 10 17,09:01:07.972,-0.510011,-0.516347,0.436231,-0.531956,-0.930692,0.12598,-0.078616,-8.300781,-9.338379,-14.343262,0,0
8159,2024 10 17,09:01:07.980,-0.510011,-0.516347,0.436231,-0.531956,-0.930692,0.12598,-0.078616,-8.300781,-9.338379,-14.343262,0,0
8160,2024 10 17,09:01:07.988,-0.510176,-0.514917,0.436833,-0.53269,-0.93997,0.11475,-0.085452,-9.094238,-10.314941,-14.282227,0,0
8161,2024 10 17,09:01:07.997,-0.510344,-0.513513,0.437402,-0.533416,-0.924345,0.100101,-0.084964,-9.094238,-10.314941,-13.61084,0,0
8162,2024 10 17,09:01:08.005,-0.510525,-0.512141,0.437867,-0.53418,-0.944853,0.094729,-0.097171,-7.202148,-10.864258,-13.305664,0,0
8163,2024 10 17,09:01:08.013,-0.510659,-0.510825,0.438187,-0.535049,-0.931181,0.100101,-0.078127,-6.103516,-12.145996,-12.634277,0,0
8164,2024 10 17,09:01:08.022,-0.510755,-0.5096,0.438436,-0.53592,-0.946318,0.096683,-0.084964,-4.821777,-11.535645,-12.268066,0,0
8165,2024 10 17,09:01:08.030,-0.510755,-0.5096,0.438436,-0.53592,-0.946318,0.096683,-0.084964,-4.821777,-11.535645,-12.268066,0,0
8166,2024 10 17,09:01:08.038,-0.510806,-0.508392,0.438613,-0.536874,-0.946318,0.118656,-0.082034,-3.356934,-12.329102,-12.939453,0,0
8167,2024 10 17,09:01:08.047,-0.510763,-0.507194,0.438843,-0.537859,-0.940458,0.099124,-0.106937,-3.234863,-10.986328,-13.977051,0,0
8168,2024 10 17,09:01:08.055,-0.510556,-0.506042,0.439159,-0.538881,-0.969756,0.136723,-0.116703,-1.89209,-9.643555,-15.869141,0,0
8169,2024 10 17,09:01:08.063,-0.510112,-0.504919,0.439689,-0.539923,-0.954619,0.133793,-0.094729,-2.319336,-6.652832,-18.676758,0,0
8170,2024 10 17,09:01:08.072,-0.509279,-0.503933,0.440588,-0.540897,-0.994659,0.130863,-0.127934,-1.159668,-0.183105,-23.071289,0,0
8171,2024 10 17,09:01:08.080,-0.509279,-0.503933,0.440588,-0.540897,-0.994659,0.130863,-0.127934,-1.159668,-0.183105,-23.071289,0,0
8172,2024 10 17,09:01:08.088,-0.507872,-0.502949,0.441764,-0.542175,-0.987823,0.114261,-0.086428,2.075195,0.549316,-29.968262,0,0
8173,2024 10 17,09:01:08.097,-0.505814,-0.502039,0.443213,-0.543757,-1.038606,0.133305,-0.115238,7.202148,5.615234,-37.475586,0,0
8174,2024 10 17,09:01:08.105,-0.502901,-0.501132,0.445004,-0.545829,-1.117222,0.151372,-0.115726,11.779785,7.93457,-48.583984,0,0
8175,2024 10 17,09:01:08.113,-0.498961,-0.500071,0.44725,-0.548574,-1.152867,0.116214,-0.090823,18.127441,11.84082,-63.598633,0,0
8176,2024 10 17,09:01:08.122,-0.493812,-0.498824,0.449983,-0.552123,-1.257851,0.186529,-0.109378,24.108887,13.85498,-79.589844,0,0
8177,2024 10 17,09:01:08.130,-0.493812,-0.498824,0.449983,-0.552123,-1.257851,0.186529,-0.109378,24.108887,13.85498,-79.589844,0,0
8178,2024 10 17,09:01:08.138,-0.487945,-0.49682,0.453218,-0.556483,-1.279336,0.206061,-0.081057,24.169922,9.887695,-95.64209,0,0
8179,2024 10 17,09:01:08.147,-0.481825,-0.493909,0.457067,-0.561239,-1.280801,0.232917,-0.050295,15.808105,6.286621,-105.651855,0,0
8180,2024 10 17,09:01:08.155,-0.475912,-0.489866,0.461695,-0.566019,-1.442915,0.254891,-0.125004,5.371094,3.051758,-117.30957,0,0
8181,2024 10 17,09:01:08.163,-0.468946,-0.484836,0.467166,-0.571647,-1.48735,0.242683,-0.084475,5.371094,1.098633,-141.418457,0,0
8182,2024 10 17,09:01:08.172,-0.461203,-0.478313,0.473296,-0.578359,-1.478561,0.270516,-0.013672,1.342773,-8.056641,-162.902832,0,0
8183,2024 10 17,09:01:08.180,-0.461203,-0.478313,0.473296,-0.578359,-1.478561,0.270516,-0.013672,1.342773,-8.056641,-162.902832,0,0
8184,2024 10 17,09:01:08.188,-0.452926,-0.470166,0.480327,-0.585737,-1.551317,0.287118,-0.003418,-6.164551,-14.587402,-184.753418,0,0
8185,2024 10 17,09:01:08.197,-0.443865,-0.460196,0.488283,-0.593955,-1.738334,0.367199,0.06299,-13.427734,-22.888184,-210.9375,0,0
8186,2024 10 17,09:01:08.205,-0.433661,-0.448007,0.497314,-0.603247,-1.953673,0.456557,0.036622,-18.188477,-32.775879,-245.788574,0,0
8187,2024 10 17,09:01:08.213,-0.421405,-0.433298,0.507489,-0.614105,-2.283273,0.55031,-0.030763,-17.76123,-40.344238,-292.053223,0,0
8188,2024 10 17,09:01:08.222,-0.406523,-0.415253,0.518553,-0.627222,-2.674398,0.695334,0.08301,-15.014648,-58.71582,-349.42627,0,0
8189,2024 10 17,09:01:08.230,-0.406523,-0.415253,0.518553,-0.627222,-2.674398,0.695334,0.08301,-15.014648,-58.71582,-349.42627,0,0
8190,2024 10 17,09:01:08.238,-0.389052,-0.392569,0.530561,-0.642677,-3.093356,0.763695,-0.006836,-20.446777,-86.547852,-414.794922,0,0
8191,2024 10 17,09:01:08.247,-0.368592,-0.364901,0.543662,-0.659863,-3.645619,0.750511,-0.161626,-24.353027,-104.187012,-482.666016,0,0
8192,2024 10 17,09:01:08.255,-0.346591,-0.331576,0.557385,-0.677683,-3.647084,0.225105,0.244148,-49.072266,-145.080566,-527.099609,0,0
8193,2024 10 17,09:01:08.263,-0.323631,-0.294698,0.570607,-0.694855,-3.117283,-0.332041,0.018067,-52.001953,-160.400391,-547.119141,0,1
8194,2024 10 17,09:01:08.272,-0.299367,-0.257846,0.581885,-0.710848,-3.113376,-0.249519,0.224616,-31.25,-141.967773,-536.193848,0,0
8195,2024 10 17,09:01:08.280,-0.274748,-0.222398,0.590411,-0.725581,-3.372173,0.273446,0.244148,-15.808105,-148.376465,-521.728516,0,0
8196,2024 10 17,09:01:08.288,-0.274748,-0.222398,0.590411,-0.725581,-3.372173,0.273446,0.244148,-15.808105,-148.376465,-521.728516,0,0
8197,2024 10 17,09:01:08.297,-0.25085,-0.186149,0.595249,-0.740338,-2.786218,1.063509,1.001984,12.268066,-170.959473,-514.831543,0,0
8198,2024 10 17,09:01:08.305,-0.226461,-0.151681,0.598309,-0.753482,-1.990783,1.567919,0.995148,23.193359,-140.319824,-497.86377,0,0
8199,2024 10 17,09:01:08.313,-0.198796,-0.120787,0.600234,-0.765251,-1.495163,1.417524,1.363811,35.27832,-82.275391,-498.535156,0,0
8200,2024 10 17,09:01:08.322,-0.164153,-0.094027,0.601026,-0.776518,-1.23246,0.933622,1.049348,82.763672,10.437012,-541.19873,0,0
8201,2024 10 17,09:01:08.330,-0.12345,-0.072452,0.596145,-0.790014,0.884304,-0.109378,0.867702,163.146973,69.580078,-504.943848,0,0
8202,2024 10 17,09:01:08.338,-0.12345,-0.072452,0.596145,-0.790014,0.884304,-0.109378,0.867702,163.146973,69.580078,-504.943848,0,0
8203,2024 10 17,09:01:08.347,-0.101705,-0.066686,0.584598,-0.802156,2.156804,2.966399,2.033753,208.618164,80.749512,-134.70459,0,0
8204,2024 10 17,09:01:08.355,-0.098284,-0.083633,0.579378,-0.804777,-1.151891,1.851619,-0.616718,75.012207,186.889648,142.272949,0,0
8205,2024 10 17,09:01:08.363,-0.110401,-0.10453,0.572791,-0.805478,-1.493698,1.820368,0.296396,39.550781,71.472168,277.587891,0,0
8206,2024 10 17,09:01:08.372,-0.132317,-0.123117,0.56924,-0.80206,-1.285684,1.393597,0.576678,11.352539,14.648438,332.458496,0,0
8207,2024 10 17,09:01:08.380,-0.158197,-0.13861,0.566417,-0.796827,-0.724631,0.703635,0.676778,-22.155762,-36.132813,341.61377,0,0
8208,2024 10 17,09:01:08.388,-0.158197,-0.13861,0.566417,-0.796827,-0.724631,0.703635,0.676778,-22.155762,-36.132813,341.61377,0,0
8209,2024 10 17,09:01:08.397,-0.182129,-0.152784,0.563218,-0.791374,-0.081057,0.491714,0.674337,-17.39502,-14.587402,313.659668,0,0
8210,2024 10 17,09:01:08.405,-0.199927,-0.169123,0.560108,-0.785942,0.146001,0.385266,0.715842,3.662109,49.987793,272.583008,0,0
8211,2024 10 17,09:01:08.413,-0.212417,-0.188367,0.556977,-0.780496,0.129398,0.387219,0.78518,20.324707,110.595703,250.793457,0,0
8212,2024 10 17,09:01:08.422,-0.221553,-0.211366,0.553761,-0.77433,-0.201666,0.61623,0.512223,30.944824,162.658691,250.061035,0,0
8213,2024 10 17,09:01:08.430,-0.229672,-0.236874,0.550405,-0.766939,-0.628925,0.78518,0.395032,27.832031,186.340332,260.925293,0,0
8214,2024 10 17,09:01:08.438,-0.229672,-0.236874,0.550405,-0.766939,-0.628925,0.78518,0.395032,27.832031,186.340332,260.925293,0,0
8215,2024 10 17,09:01:08.447,-0.23922,-0.262881,0.54683,-0.758053,-0.867702,0.843776,0.271981,13.916016,176.879883,281.12793,0,0
8216,2024 10 17,09:01:08.455,-0.251692,-0.288074,0.542982,-0.747553,-0.940458,0.784692,0.183599,-6.713867,153.869629,306.82373,0,0
8217,2024 10 17,09:01:08.463,-0.266855,-0.312463,0.538891,-0.735358,-0.939482,0.668966,0.161138,-25.57373,138.305664,329.284668,0,0
8218,2024 10 17,09:01:08.472,-0.283405,-0.336492,0.534672,-0.721512,-0.929716,0.534196,0.171392,-39.123535,134.94873,342.346191,0,0
8219,2024 10 17,09:01:08.480,-0.300036,-0.360671,0.530374,-0.706115,-0.890652,0.447279,0.205084,-45.898438,145.690918,348.571777,0,0
8220,2024 10 17,09:01:08.488,-0.300036,-0.360671,0.530374,-0.706115,-0.890652,0.447279,0.205084,-45.898438,145.690918,348.571777,0,0
8221,2024 10 17,09:01:08.497,-0.315773,-0.385616,0.526132,-0.689038,-0.997101,0.421888,0.229499,-49.316406,165.588379,351.318359,0,0
8222,2024 10 17,09:01:08.505,-0.33059,-0.410945,0.521978,-0.670353,-1.179724,0.413587,0.221198,-54.56543,179.504395,351.013184,0,0
8223,2024 10 17,09:01:08.513,-0.344709,-0.43619,0.517776,-0.650248,-1.394574,0.439955,0.154302,-60.302734,188.659668,350.769043,0,0
8224,2024 10 17,09:01:08.522,-0.358688,-0.460853,0.513403,-0.628788,-1.609424,0.486343,0.106449,-69.946289,189.27002,352.905273,0,0
8225,2024 10 17,09:01:08.530,-0.373238,-0.484442,0.508653,-0.606038,-1.777886,0.496597,0.064455,-83.068848,181.945801,358.825684,0,0
8226,2024 10 17,09:01:08.538,-0.373238,-0.484442,0.508653,-0.606038,-1.777886,0.496597,0.064455,-83.068848,181.945801,358.825684,0,0
8227,2024 10 17,09:01:08.547,-0.388734,-0.506687,0.503312,-0.582092,-1.898495,0.475112,0.074709,-96.740723,171.630859,366.577148,0,0
8228,2024 10 17,09:01:08.555,-0.405138,-0.527654,0.497281,-0.556917,-2.066958,0.404309,0.123539,-109.375,162.29248,375.549316,0,0
8229,2024 10 17,09:01:08.563,-0.42207,-0.547372,0.490345,-0.530851,-2.243721,0.294931,0.231941,-116.516113,152.282715,381.652832,0,0
8230,2024 10 17,09:01:08.572,-0.438711,-0.566268,0.482318,-0.504225,-2.390698,0.108402,0.322275,-111.816406,149.230957,385.864258,0,0
8231,2024 10 17,09:01:08.580,-0.454071,-0.585083,0.472948,-0.477302,-2.566973,-0.173833,0.43556,-94.787598,152.160645,390.625,0,0
8232,2024 10 17,09:01:08.588,-0.454071,-0.585083,0.472948,-0.477302,-2.566973,-0.173833,0.43556,-94.787598,152.160645,390.625,0,0
8233,2024 10 17,09:01:08.597,-0.467561,-0.604373,0.461719,-0.450483,-2.786706,-0.611835,0.464858,-67.199707,152.709961,398.31543,0,0
8234,2024 10 17,09:01:08.605,-0.479057,-0.624082,0.447981,-0.424663,-2.983978,-1.165563,0.440443,-31.616211,143.737793,405.456543,0,0
8235,2024 10 17,09:01:08.613,-0.488404,-0.643897,0.431816,-0.400492,-3.19834,-1.662648,0.356945,2.685547,129.02832,405.517578,0,0
8236,2024 10 17,09:01:08.622,-0.496273,-0.662417,0.413971,-0.378873,-3.342875,-2.173406,0.222663,22.399902,99.67041,389.770508,0,0
8237,2024 10 17,09:01:08.630,-0.50279,-0.678498,0.395925,-0.360675,-3.031343,-2.715415,0.043947,31.921387,70.861816,351.928711,0,0
8238,2024 10 17,09:01:08.638,-0.50279,-0.678498,0.395925,-0.360675,-3.031343,-2.715415,0.043947,31.921387,70.861816,351.928711,0,0
8239,2024 10 17,09:01:08.647,-0.507121,-0.691825,0.380462,-0.345623,-2.224677,-3.267678,-0.146977,35.339355,70.373535,287.902832,0,0
8240,2024 10 17,09:01:08.655,-0.50805,-0.703091,0.371601,-0.33085,-1.564501,-3.6339,-1.073763,20.996094,127.441406,209.289551,0,0
8241,2024 10 17,09:01:08.663,-0.505544,-0.711879,0.371177,-0.31604,-1.398968,-3.948851,-1.916074,1.403809,180.908203,112.426758,0,0
8242,2024 10 17,09:01:08.672,-0.501021,-0.717434,0.378724,-0.301388,-3.342387,-5.308268,-2.429762,-19.226074,222.106934,38.208008,0,0
8243,2024 10 17,09:01:08.680,-0.496087,-0.718942,0.386946,-0.295454,-4.136845,-4.758446,-1.778863,-8.361816,90.454102,-27.160645,0,0
8244,2024 10 17,09:01:08.688,-0.486965,-0.717394,0.392142,-0.307303,-10.459304,-6.926481,-0.575701,202.270508,10.314941,-180.908203,0,0
8245,2024 10 17,09:01:08.697,-0.486965,-0.717394,0.392142,-0.307303,-10.459304,-6.926481,-0.575701,202.270508,10.314941,-180.908203,0,0
8246,2024 10 17,09:01:08.705,-0.480189,-0.698291,0.400449,-0.348493,-0.700216,-1.191442,-1.548875,-10.314941,-531.494141,-336.05957,0,0
8247,2024 10 17,09:01:08.713,-0.480179,-0.674226,0.397733,-0.395798,2.143132,3.99231,2.435621,49.987793,-325.866699,-343.383789,0,0
8248,2024 10 17,09:01:08.722,-0.470091,-0.662476,0.419817,-0.404837,-2.734458,1.411176,-0.222175,49.499512,44.98291,-356.384277,1,0
8249,2024 10 17,09:01:08.730,-0.471578,-0.640554,0.438434,-0.418426,-1.75396,-1.469283,-1.349162,-264.099121,-139.526367,-289.367676,0,0
8250,2024 10 17,09:01:08.738,-0.473486,-0.622173,0.450811,-0.430676,-1.988342,-0.417982,-0.491714,-41.992188,-101.623535,-213.012695,0,0
8251,2024 10 17,09:01:08.747,-0.473486,-0.622173,0.450811,-0.430676,-1.988342,-0.417982,-0.491714,-41.992188,-101.623535,-213.012695,0,0
8252,2024 10 17,09:01:08.755,-0.473424,-0.609679,0.454647,-0.444362,-1.655324,-1.030305,-0.364269,-5.92041,-149.108887,-141.784668,0,0
8253,2024 10 17,09:01:08.763,-0.473631,-0.600421,0.452193,-0.45901,-1.298379,0.536149,0.843776,20.507813,-159.667969,-94.604492,0,0
8254,2024 10 17,09:01:08.772,-0.480597,-0.588543,0.451115,-0.468123,-1.172399,0.2378,0.641621,-74.584961,-176.879883,-62.011719,0,0
8255,2024 10 17,09:01:08.780,-0.490535,-0.574969,0.449719,-0.475961,-1.025422,-0.193365,-0.036134,-94.665527,-191.650391,-48.88916,0,0
8256,2024 10 17,09:01:08.788,-0.499323,-0.561696,0.445836,-0.486214,-1.014679,0.131352,0.04883,-46.264648,-209.04541,-50.65918,0,0
8257,2024 10 17,09:01:08.797,-0.499323,-0.561696,0.445836,-0.486214,-1.014679,0.131352,0.04883,-46.264648,-209.04541,-50.65918,0,0
8258,2024 10 17,09:01:08.805,-0.508184,-0.548647,0.441644,-0.495667,-0.963897,0.320322,-0.027345,-74.279785,-200.744629,-40.710449,0,0
8259,2024 10 17,09:01:08.813,-0.518322,-0.534592,0.439096,-0.502741,-0.738304,0.124516,0.068361,-98.022461,-183.105469,-39.978027,0,0
8260,2024 10 17,09:01:08.822,-0.526077,-0.522812,0.438392,-0.507665,-0.430189,-0.379406,-0.971709,-81.176758,-126.159668,-36.499023,0,0
8261,2024 10 17,09:01:08.830,-0.529737,-0.516674,0.436747,-0.511547,-0.538102,0.029786,-0.534684,-10.742188,-65.002441,-17.028809,0,0
8262,2024 10 17,09:01:08.838,-0.531331,-0.514171,0.435924,-0.513113,-0.995636,0.101077,0.050295,-18.798828,-32.531738,-7.385254,0,0
8263,2024 10 17,09:01:08.847,-0.531331,-0.514171,0.435924,-0.513113,-0.995636,0.101077,0.050295,-18.798828,-32.531738,-7.385254,0,0
8264,2024 10 17,09:01:08.855,-0.532271,-0.5119,0.43521,-0.515014,-0.802271,0.167486,-0.187994,-0.244141,-30.944824,-14.770508,0,0
8265,2024 10 17,09:01:08.863,-0.531985,-0.510854,0.435116,-0.516424,-0.92581,0.118168,-0.104007,5.432129,-8.728027,-16.418457,0,0
8266,2024 10 17,09:01:08.872,-0.530899,-0.510218,0.435077,-0.5182,-0.963897,0.139164,0.000977,12.390137,-9.277344,-21.54541,0,0
8267,2024 10 17,09:01:08.880,-0.529301,-0.509777,0.435102,-0.520245,-0.953154,0.177252,-0.101566,17.211914,-6.591797,-25.32959,0,0
8268,2024 10 17,09:01:08.888,-0.52763,-0.509243,0.435394,-0.522217,-0.944365,0.17774,-0.076662,13.061523,-3.479004,-27.099609,0,0
8269,2024 10 17,09:01:08.897,-0.52763,-0.509243,0.435394,-0.522217,-0.944365,0.17774,-0.076662,13.061523,-3.479004,-27.099609,0,0
8270,2024 10 17,09:01:08.905,-0.526179,-0.508477,0.435947,-0.523963,-0.968291,0.138676,-0.036134,9.58252,-4.821777,-26.611328,0,0
8271,2024 10 17,09:01:08.913,-0.525057,-0.507463,0.436418,-0.525677,-0.938017,0.136723,-0.119144,4.02832,-9.033203,-24.414063,0,0
8272,2024 10 17,09:01:08.922,-0.524335,-0.506223,0.436983,-0.527121,-0.916532,0.165044,-0.117679,-1.403809,-7.873535,-22.460938,0,0
8273,2024 10 17,09:01:08.930,-0.524007,-0.504821,0.437857,-0.528066,-0.941923,0.142094,-0.091311,-7.446289,-6.774902,-19.53125,0,0
8274,2024 10 17,09:01:08.938,-0.523815,-0.503414,0.438856,-0.52877,-0.926786,0.103519,-0.119144,-11.352539,-5.615234,-18.188477,0,0
8275,2024 10 17,09:01:08.947,-0.523815,-0.503414,0.438856,-0.52877,-0.926786,0.103519,-0.119144,-11.352539,-5.615234,-18.188477,0,0
8276,2024 10 17,09:01:08.955,-0.523605,-0.502146,0.439826,-0.529377,-0.928739,0.135746,-0.075198,-7.995605,-3.417969,-17.089844,0,0
8277,2024 10 17,09:01:08.963,-0.523443,-0.500975,0.440852,-0.529794,-0.940947,0.084475,-0.073733,-9.521484,-2.624512,-15.441895,0,0
8278,2024 10 17,09:01:08.972,-0.523212,-0.499958,0.441719,-0.53026,-0.934599,0.11475,-0.117679,-8.300781,-2.502441,-14.343262,0,0
8279,2024 10 17,09:01:08.980,-0.522963,-0.498915,0.442553,-0.530791,-0.913602,0.107913,-0.099124,-6.713867,-3.295898,-15.075684,0,0
8280,2024 10 17,09:01:08.988,-0.522555,-0.497989,0.443537,-0.531242,-0.914579,0.13184,-0.161138,-7.385254,1.525879,-16.418457,0,0
8281,2024 10 17,09:01:08.997,-0.522555,-0.497989,0.443537,-0.531242,-0.914579,0.13184,-0.161138,-7.385254,1.525879,-16.418457,0,0
8282,2024 10 17,09:01:09.005,-0.521958,-0.497105,0.444791,-0.531608,-0.930692,0.13184,-0.123539,-7.446289,3.967285,-18.249512,0,0
8283,2024 10 17,09:01:09.013,-0.521136,-0.496323,0.446288,-0.531891,-0.971709,0.112796,-0.0918,-7.69043,7.93457,-20.324707,0,0
8284,2024 10 17,09:01:09.022,-0.520081,-0.49552,0.447878,-0.532335,-0.98587,0.109378,-0.087405,-5.187988,6.958008,-23.376465,0,0
8285,2024 10 17,09:01:09.030,-0.518907,-0.494607,0.449359,-0.533081,-0.966338,0.087893,-0.099124,-3.78418,4.577637,-25.57373,0,0
8286,2024 10 17,09:01:09.038,-0.517639,-0.493636,0.450742,-0.534045,-0.951689,0.067385,-0.08887,-1.77002,3.112793,-26.794434,0,0
8287,2024 10 17,09:01:09.047,-0.517639,-0.493636,0.450742,-0.534045,-0.951689,0.067385,-0.08887,-1.77002,3.112793,-26.794434,0,0
8288,2024 10 17,09:01:09.055,-0.516304,-0.492724,0.451951,-0.535157,-0.956572,0.06592,-0.074709,0.976563,1.77002,-26.367188,0,0
8289,2024 10 17,09:01:09.063,-0.515011,-0.49181,0.452912,-0.53643,-0.936064,0.046388,-0.101077,2.746582,-1.586914,-25.634766,0,0
8290,2024 10 17,09:01:09.072,-0.513764,-0.490927,0.453564,-0.537883,-0.929228,0.054201,-0.053224,6.469727,-3.234863,-24.291992,0,0
8291,2024 10 17,09:01:09.080,-0.512553,-0.49015,0.453985,-0.539388,-0.93704,0.044923,-0.076662,7.93457,-5.432129,-22.583008,0,0
8292,2024 10 17,09:01:09.088,-0.511372,-0.489383,0.454142,-0.541071,-0.966826,0.056154,-0.076174,9.82666,-7.93457,-22.216797,0,0
8293,2024 10 17,09:01:09.097,-0.510121,-0.488569,0.454149,-0.542978,-0.991729,0.074221,-0.084475,12.634277,-9.94873,-24.047852,0,0
8294,2024 10 17,09:01:09.105,-0.510121,-0.488569,0.454149,-0.542978,-0.991729,0.074221,-0.084475,12.634277,-9.94873,-24.047852,0,0
8295,2024 10 17,09:01:09.113,-0.508719,-0.487616,0.454129,-0.545163,-1.00296,0.081545,-0.116214,14.221191,-11.291504,-27.954102,0,0
8296,2024 10 17,09:01:09.122,-0.50706,-0.486474,0.454211,-0.547655,-1.039582,0.087893,-0.120609,14.526367,-11.84082,-33.14209,0,0
8297,2024 10 17,09:01:09.130,-0.504848,-0.485234,0.45457,-0.550493,-1.048372,0.082034,-0.094241,18.249512,-10.070801,-41.320801,0,0
8298,2024 10 17,09:01:09.138,-0.502083,-0.48385,0.455166,-0.553738,-1.150426,0.113285,-0.078127,21.42334,-8.483887,-49.743652,0,0
8299,2024 10 17,09:01:09.147,-0.498662,-0.482079,0.456099,-0.557593,-1.170446,0.151372,-0.08301,24.108887,-10.192871,-62.255859,0,0
8300,2024 10 17,09:01:09.155,-0.498662,-0.482079,0.456099,-0.557593,-1.170446,0.151372,-0.08301,24.108887,-10.192871,-62.255859,0,0
8301,2024 10 17,09:01:09.163,-0.494884,-0.479724,0.457479,-0.561843,-1.225135,0.145024,-0.113773,18.981934,-11.291504,-71.777344,0,0
8302,2024 10 17,09:01:09.172,-0.490433,-0.476785,0.45952,-0.566563,-1.276894,0.203619,-0.17774,18.676758,-9.82666,-87.463379,0,0
8303,2024 10 17,09:01:09.180,-0.485342,-0.472972,0.462358,-0.571809,-1.297891,0.210944,-0.134281,14.221191,-10.498047,-103.393555,0,0
8304,2024 10 17,09:01:09.188,-0.479578,-0.46832,0.466191,-0.577362,-1.361858,0.214362,-0.159185,7.568359,-8.605957,-120.239258,0,0
8305,2024 10 17,09:01:09.197,-0.473085,-0.462612,0.470946,-0.58343,-1.432661,0.247566,-0.071291,2.441406,-10.192871,-139.099121,0,0
8306,2024 10 17,09:01:09.205,-0.473085,-0.462612,0.470946,-0.58343,-1.432661,0.247566,-0.071291,2.441406,-10.192871,-139.099121,0,0
8307,2024 10 17,09:01:09.213,-0.465976,-0.455453,0.476756,-0.590027,-1.520066,0.261727,-0.052248,-6.04248,-14.770508,-160.522461,0,0
8308,2024 10 17,09:01:09.222,-0.457866,-0.446689,0.483579,-0.597478,-1.672903,0.290536,0.028321,-11.779785,-19.40918,-187.683105,0,0
8309,2024 10 17,09:01:09.230,-0.448574,-0.435894,0.491438,-0.606026,-1.8399,0.348155,0.005371,-17.456055,-29.23584,-220.214844,0,0
8310,2024 10 17,09:01:09.238,-0.437471,-0.422775,0.500311,-0.616091,-2.061098,0.510758,-0.028809,-17.211914,-35.339355,-262.390137,0,0
8311,2024 10 17,09:01:09.247,-0.42345,-0.407312,0.510691,-0.62768,-2.514725,0.689962,-0.102542,-15.319824,-32.958984,-316.28418,0,0
8312,2024 10 17,09:01:09.255,-0.42345,-0.407312,0.510691,-0.62768,-2.514725,0.689962,-0.102542,-15.319824,-32.958984,-316.28418,0,0
8313,2024 10 17,09:01:09.263,-0.406024,-0.38813,0.522139,-0.641771,-3.003998,0.864284,-0.051759,-12.329102,-56.945801,-385.742188,0,0
8314,2024 10 17,09:01:09.272,-0.386006,-0.362949,0.53452,-0.658449,-3.452254,0.78811,-0.100101,-21.728516,-89.477539,-460.144043,0,0
8315,2024 10 17,09:01:09.280,-0.362294,-0.332354,0.54781,-0.676896,-3.723747,0.695334,0.013672,-29.785156,-116.577148,-532.165527,0,0
8316,2024 10 17,09:01:09.288,-0.338042,-0.295768,0.561649,-0.694837,-3.417585,0.023926,-0.190435,-59.631348,-148.193359,-565.307617,0,0
8317,2024 10 17,09:01:09.297,-0.311698,-0.257574,0.575003,-0.711246,-3.104587,-0.529801,-0.010254,-56.091309,-138.61084,-574.462891,0,1
8318,2024 10 17,09:01:09.305,-0.311698,-0.257574,0.575003,-0.711246,-3.104587,-0.529801,-0.010254,-56.091309,-138.61084,-574.462891,0,0
8319,2024 10 17,09:01:09.313,-0.284302,-0.221175,0.585564,-0.726201,-3.335551,-0.072756,-0.030274,-32.714844,-121.765137,-551.818848,0,0
8320,2024 10 17,09:01:09.322,-0.256945,-0.185543,0.592734,-0.740418,-3.204688,0.754418,0.634785,-1.464844,-136.657715,-544.73877,0,0
8321,2024 10 17,09:01:09.330,-0.230018,-0.150731,0.597325,-0.753375,-2.377514,1.471236,0.840358,8.300781,-124.572754,-522.949219,0,0
8322,2024 10 17,09:01:09.338,-0.201372,-0.119181,0.600362,-0.764729,-1.767632,1.672414,1.203162,22.766113,-82.519531,-511.047363,0,0
8323,2024 10 17,09:01:09.347,-0.168,-0.091813,0.602475,-0.774835,-1.727592,1.254921,1.148961,48.461914,-0.915527,-526.550293,0,0
8324,2024 10 17,09:01:09.355,-0.168,-0.091813,0.602475,-0.774835,-1.727592,1.254921,1.148961,48.461914,-0.915527,-526.550293,0,0
8325,2024 10 17,09:01:09.363,-0.126254,-0.06741,0.599429,-0.787528,-0.66213,0.125004,0.50148,131.896973,60.180664,-574.21875,0,0
8326,2024 10 17,09:01:09.372,-0.095201,-0.053117,0.589358,-0.800483,2.477615,1.331584,1.989807,204.528809,55.725098,-299.377441,0,0
8327,2024 10 17,09:01:09.380,-0.087382,-0.059735,0.580644,-0.807247,-0.024415,2.421461,-0.173345,91.61377,130.187988,60.791016,0,0
8328,2024 10 17,09:01:09.388,-0.096665,-0.079106,0.573202,-0.809838,-1.176794,2.233467,0.426771,101.5625,83.374023,252.258301,0,0
8329,2024 10 17,09:01:09.397,-0.118729,-0.099774,0.56913,-0.80749,-1.05472,1.392132,0.225593,8.789063,35.949707,357.849121,0,0
8330,2024 10 17,09:01:09.405,-0.118729,-0.099774,0.56913,-0.80749,-1.05472,1.392132,0.225593,8.789063,35.949707,357.849121,0,0
8331,2024 10 17,09:01:09.413,-0.144676,-0.120264,0.565278,-0.80316,-0.947783,0.979522,0.670431,-3.967285,9.460449,380.065918,0,0
8332,2024 10 17,09:01:09.422,-0.170358,-0.138952,0.561543,-0.797709,-0.270516,0.731468,0.781762,0.854492,10.192871,358.459473,0,0
8333,2024 10 17,09:01:09.430,-0.19043,-0.159009,0.558178,-0.791764,0.014649,0.517594,0.570818,5.004883,70.983887,315.734863,0,0
8334,2024 10 17,09:01:09.438,-0.204251,-0.181532,0.554882,-0.785769,-0.015625,0.460952,0.743675,19.836426,134.155273,280.761719,0,0
8335,2024 10 17,09:01:09.447,-0.21405,-0.207312,0.551859,-0.778881,-0.289071,0.68215,0.495621,26.489258,186.157227,271.911621,0,0
8336,2024 10 17,09:01:09.455,-0.21405,-0.207312,0.551859,-0.778881,-0.289071,0.68215,0.495621,26.489258,186.157227,271.911621,0,0
8337,2024 10 17,09:01:09.463,-0.222533,-0.235372,0.548934,-0.770552,-0.700217,0.867214,0.336924,20.812988,212.768555,279.602051,0,0
8338,2024 10 17,09:01:09.472,-0.232271,-0.263869,0.546002,-0.760464,-1.033235,0.938994,0.202155,3.723145,203.186035,297.729492,0,0
8339,2024 10 17,09:01:09.480,-0.245026,-0.291049,0.542798,-0.748748,-1.171911,0.861843,0.079592,-18.188477,174.743652,320.617676,0,0
8340,2024 10 17,09:01:09.488,-0.260891,-0.316478,0.539171,-0.735576,-1.181188,0.711447,0.066897,-37.536621,145.324707,340.698242,0,0
8341,2024 10 17,09:01:09.497,-0.278628,-0.340723,0.535044,-0.721112,-1.132359,0.505875,0.100101,-48.828125,130.859375,354.003906,0,0
8342,2024 10 17,09:01:09.505,-0.296799,-0.364805,0.530142,-0.705533,-1.012238,0.392102,0.159673,-48.64502,133.239746,363.830566,0,0
8343,2024 10 17,09:01:09.513,-0.296799,-0.364805,0.530142,-0.705533,-1.012238,0.392102,0.159673,-48.64502,133.239746,363.830566,0,0
8344,2024 10 17,09:01:09.522,-0.314145,-0.38997,0.524503,-0.688573,-1.093295,0.359874,0.173833,-43.029785,153.320313,371.826172,0,0
8345,2024 10 17,09:01:09.530,-0.330444,-0.416044,0.518076,-0.670307,-1.295938,0.385266,0.189459,-36.132813,168.273926,376.342773,0,0
8346,2024 10 17,09:01:09.538,-0.345815,-0.442474,0.510853,-0.65089,-1.50444,0.386731,0.153325,-31.616211,176.635742,378.78418,0,0
8347,2024 10 17,09:01:09.547,-0.360603,-0.468618,0.502746,-0.630563,-1.718314,0.443861,0.033204,-30.578613,178.588867,380.92041,0,0
8348,2024 10 17,09:01:09.555,-0.375422,-0.493959,0.493704,-0.609359,-1.88287,0.496109,-0.018555,-32.958984,171.691895,385.864258,0,0
8349,2024 10 17,09:01:09.563,-0.375422,-0.493959,0.493704,-0.609359,-1.88287,0.496109,-0.018555,-32.958984,171.691895,385.864258,0,0
8350,2024 10 17,09:01:09.572,-0.39069,-0.518362,0.483753,-0.587065,-2.01178,0.518571,-0.062014,-40.222168,166.503906,394.53125,0,0
8351,2024 10 17,09:01:09.580,-0.406661,-0.541606,0.47291,-0.5636,-2.171453,0.473159,-0.023927,-50.720215,156.433105,403.808594,0,0
8352,2024 10 17,09:01:09.588,-0.423154,-0.563577,0.461142,-0.539138,-2.29255,0.348643,0.083987,-57.617188,149.169922,411.193848,0,0
8353,2024 10 17,09:01:09.597,-0.439211,-0.584897,0.448479,-0.513669,-2.436598,0.148442,0.248543,-55.358887,150.878906,417.053223,0,0
8354,2024 10 17,09:01:09.605,-0.454047,-0.606113,0.43466,-0.48738,-2.592853,-0.325205,0.422376,-42.114258,157.043457,424.133301,0,0
8355,2024 10 17,09:01:09.613,-0.454047,-0.606113,0.43466,-0.48738,-2.592853,-0.325205,0.422376,-42.114258,157.043457,424.133301,0,0
8356,2024 10 17,09:01:09.622,-0.466811,-0.627787,0.419282,-0.460623,-2.812098,-0.881374,0.558611,-17.272949,164.245605,432.006836,0,0
8357,2024 10 17,09:01:09.630,-0.477346,-0.649558,0.402282,-0.434033,-3.051363,-1.333537,0.476577,6.408691,162.658691,433.105469,0,0
8358,2024 10 17,09:01:09.638,-0.486259,-0.669917,0.384307,-0.408743,-3.229591,-1.833552,0.368664,18.188477,146.118164,417.785645,0,0
8359,2024 10 17,09:01:09.647,-0.493825,-0.687518,0.366903,-0.385796,-3.161718,-2.336985,0.147954,16.174316,125.244141,379.089355,0,0
8360,2024 10 17,09:01:09.655,-0.499452,-0.701992,0.352837,-0.365049,-2.758873,-2.831629,-0.195318,7.446289,131.835938,315.612793,0,0
8361,2024 10 17,09:01:09.663,-0.499452,-0.701992,0.352837,-0.365049,-2.758873,-2.831629,-0.195318,7.446289,131.835938,315.612793,0,0
8362,2024 10 17,09:01:09.672,-0.502365,-0.713845,0.344551,-0.345454,-2.229072,-3.133885,-0.704123,-7.568359,161.499023,239.685059,0,0
8363,2024 10 17,09:01:09.680,-0.503411,-0.722833,0.342893,-0.326366,-1.962462,-3.258888,-1.572802,-33.874512,192.016602,164.428711,0,0
8364,2024 10 17,09:01:09.688,-0.503452,-0.728241,0.347088,-0.309406,-2.247627,-4.037232,-2.033265,-60.119629,194.824219,84.838867,0,0
8365,2024 10 17,09:01:09.697,-0.502742,-0.730582,0.354955,-0.295816,-3.661245,-5.069002,-2.054262,-56.152344,173.950195,35.339355,0,0
8366,2024 10 17,09:01:09.705,-0.502497,-0.729337,0.360479,-0.292608,-3.487411,-4.584612,-1.589892,-36.315918,22.949219,-14.526367,0,0
8367,2024 10 17,09:01:09.713,-0.502497,-0.729337,0.360479,-0.292608,-3.487411,-4.584612,-1.589892,-36.315918,22.949219,-14.526367,0,0
8368,2024 10 17,09:01:09.722,-0.505985,-0.722778,0.359671,-0.303657,-1.825739,-3.903928,-0.657735,-15.625,-156.738281,-54.077148,0,0
8369,2024 10 17,09:01:09.730,-0.488536,-0.727116,0.364105,-0.316326,-11.610218,-3.552355,-0.360851,396.179199,169.128418,-197.875977,0,0
8370,2024 10 17,09:01:09.738,-0.482074,-0.708798,0.369432,-0.358787,0.435072,0.72219,0.915067,-115.539551,-640.441895,-286.92627,0,0
8371,2024 10 17,09:01:09.747,-0.487271,-0.682853,0.369005,-0.400142,2.777917,2.093326,1.651906,-82.702637,-254.333496,-328.308105,0,0
8372,2024 10 17,09:01:09.755,-0.467306,-0.677925,0.395613,-0.406858,-3.107517,2.191962,-0.618183,133.483887,117.614746,-386.71875,1,0
8373,2024 10 17,09:01:09.763,-0.467306,-0.677925,0.395613,-0.406858,-3.107517,2.191962,-0.618183,133.483887,117.614746,-386.71875,0,0
8374,2024 10 17,09:01:09.772,-0.473806,-0.651552,0.416126,-0.421695,-1.096225,-1.575732,-0.938017,-293.884277,-182.922363,-304.260254,0,0
8375,2024 10 17,09:01:09.780,-0.472476,-0.636069,0.432553,-0.430209,-2.66512,-0.542985,-0.958037,-40.161133,-6.286621,-214.233398,0,0
8376,2024 10 17,09:01:09.788,-0.473395,-0.623179,0.436672,-0.443693,-1.320841,-0.497085,0.018555,-31.616211,-176.513672,-141.235352,0,0
8377,2024 10 17,09:01:09.797,-0.473572,-0.613817,0.436694,-0.456352,-1.414106,0.618183,0.802271,12.084961,-123.291016,-105.529785,0,0
8378,2024 10 17,09:01:09.805,-0.479274,-0.602416,0.437734,-0.46452,-1.098178,-0.089846,0.410169,-84.533691,-150.45166,-72.143555,0,0
8379,2024 10 17,09:01:09.813,-0.479274,-0.602416,0.437734,-0.46452,-1.098178,-0.089846,0.410169,-84.533691,-150.45166,-72.143555,0,0
8380,2024 10 17,09:01:09.822,-0.48596,-0.591177,0.437667,-0.472018,-1.077181,-0.190435,-0.081057,-62.744141,-146.42334,-57.067871,0,0
8381,2024 10 17,09:01:09.830,-0.491671,-0.580993,0.43508,-0.481053,-0.87991,0.124516,0.102054,-26.977539,-158.935547,-49.560547,0,0
8382,2024 10 17,09:01:09.838,-0.496907,-0.572051,0.432477,-0.488676,-0.991241,0.241218,0.06006,-39.978027,-136.047363,-36.987305,0,0
8383,2024 10 17,09:01:09.847,-0.503867,-0.562559,0.430663,-0.49414,-0.770043,0.034181,-0.285165,-66.162109,-132.202148,-26.123047,0,0
8384,2024 10 17,09:01:09.855,-0.509176,-0.554565,0.428961,-0.499189,-0.842311,0.145512,-0.098636,-39.306641,-105.041504,-27.099609,0,0
8385,2024 10 17,09:01:09.863,-0.509176,-0.554565,0.428961,-0.499189,-0.842311,0.145512,-0.098636,-39.306641,-105.041504,-27.099609,0,0
8386,2024 10 17,09:01:09.872,-0.513607,-0.547892,0.42767,-0.503111,-0.940458,0.187994,0.050783,-43.029785,-89.477539,-20.507813,0,0
8387,2024 10 17,09:01:09.880,-0.517898,-0.54171,0.426979,-0.505985,-0.823756,0.072268,-0.179693,-43.212891,-74.401855,-18.066406,0,0
8388,2024 10 17,09:01:09.888,-0.520621,-0.537118,0.426316,-0.508638,-0.773461,0.050783,-0.265145,-20.751953,-54.260254,-17.76123,0,0
8389,2024 10 17,09:01:09.897,-0.521522,-0.534465,0.425728,-0.510997,-0.906766,0.182134,-0.008301,-3.78418,-31.555176,-18.249512,0,0
8390,2024 10 17,09:01:09.905,-0.521626,-0.532536,0.425525,-0.51307,-0.89114,0.107913,-0.143559,1.159668,-25.57373,-20.935059,0,0
8391,2024 10 17,09:01:09.913,-0.520841,-0.53129,0.425298,-0.515342,-0.929228,0.161138,-0.019532,10.375977,-15.50293,-23.132324,0,0
8392,2024 10 17,09:01:09.922,-0.520841,-0.53129,0.425298,-0.515342,-0.929228,0.161138,-0.019532,10.375977,-15.50293,-23.132324,0,0
8393,2024 10 17,09:01:09.930,-0.51962,-0.530431,0.425232,-0.517508,-0.920927,0.186529,-0.066408,14.404297,-12.634277,-24.597168,0,0
8394,2024 10 17,09:01:09.938,-0.518328,-0.529637,0.425369,-0.519502,-0.896512,0.1919,-0.100589,10.498047,-8.483887,-24.353027,0,0
8395,2024 10 17,09:01:09.947,-0.517247,-0.528776,0.425945,-0.520983,-0.899441,0.165532,-0.097171,3.356934,-4.02832,-22.949219,0,0
8396,2024 10 17,09:01:09.955,-0.516248,-0.527976,0.426842,-0.522049,-0.9429,0.150884,-0.070803,0.0,-0.305176,-21.484375,0,0
8397,2024 10 17,09:01:09.963,-0.515488,-0.527108,0.427697,-0.522977,-0.930204,0.134281,-0.030763,-1.037598,-2.502441,-19.042969,0,0
8398,2024 10 17,09:01:09.972,-0.515488,-0.527108,0.427697,-0.522977,-0.930204,0.134281,-0.030763,-1.037598,-2.502441,-19.042969,0,0
8399,2024 10 17,09:01:09.980,-0.514931,-0.52622,0.428409,-0.523836,-0.946318,0.123051,-0.0459,-2.13623,-4.150391,-16.662598,0,0
8400,2024 10 17,09:01:09.988,-0.51441,-0.525365,0.428905,-0.524799,-0.951689,0.166997,-0.050783,-0.12207,-5.737305,-16.418457,0,0
8401,2024 10 17,09:01:09.997,-0.514108,-0.524377,0.429395,-0.525681,-0.929228,0.155766,-0.061037,-2.197266,-6.774902,-15.014648,0,0
8402,2024 10 17,09:01:10.005,-0.513896,-0.523351,0.429971,-0.52644,-0.941923,0.146489,-0.078127,-6.225586,-6.652832,-14.404297,0,0
8403,2024 10 17,09:01:10.013,-0.513763,-0.522256,0.430691,-0.527069,-0.921415,0.165044,-0.107425,-7.873535,-4.821777,-14.526367,0,0
8404,2024 10 17,09:01:10.022,-0.513763,-0.522256,0.430691,-0.527069,-0.921415,0.165044,-0.107425,-7.873535,-4.821777,-14.526367,0,0
8405,2024 10 17,09:01:10.030,-0.513653,-0.52114,0.431649,-0.527497,-0.934111,0.165532,-0.073733,-9.216309,-2.258301,-15.197754,0,0
8406,2024 10 17,09:01:10.038,-0.513548,-0.519996,0.432798,-0.527787,-0.92581,0.162603,-0.076662,-12.145996,-0.854492,-15.50293,0,0
8407,2024 10 17,09:01:10.047,-0.513359,-0.518886,0.434044,-0.528039,-0.951201,0.149907,-0.101566,-11.047363,0.671387,-16.235352,0,0
8408,2024 10 17,09:01:10.055,-0.513232,-0.517633,0.435211,-0.528433,-0.957549,0.117679,-0.044435,-11.352539,-3.173828,-16.418457,0,0
8409,2024 10 17,09:01:10.063,-0.512941,-0.516455,0.43628,-0.528986,-0.944365,0.11475,-0.079104,-8.361816,-2.807617,-17.76123,0,0
8410,2024 10 17,09:01:10.072,-0.512941,-0.516455,0.43628,-0.528986,-0.944365,0.11475,-0.079104,-8.361816,-2.807617,-17.76123,0,0
8411,2024 10 17,09:01:10.080,-0.512541,-0.515333,0.437245,-0.52967,-0.916532,0.096194,-0.077639,-5.92041,-2.990723,-17.883301,0,0
8412,2024 10 17,09:01:10.088,-0.512062,-0.51438,0.438046,-0.530398,-0.929716,0.104007,-0.078127,-2.990723,-2.868652,-16.662598,0,0
8413,2024 10 17,09:01:10.097,-0.511531,-0.513536,0.438664,-0.531216,-0.926786,0.094241,-0.071291,-0.671387,-3.479004,-16.174316,0,0
8414,2024 10 17,09:01:10.105,-0.510891,-0.51281,0.439143,-0.532137,-0.961455,0.106449,-0.06885,1.708984,-4.089355,-15.869141,0,0
8415,2024 10 17,09:01:10.113,-0.510146,-0.512079,0.439472,-0.533284,-0.972198,0.096194,-0.074221,4.150391,-6.347656,-17.578125,0,0
8416,2024 10 17,09:01:10.122,-0.510146,-0.512079,0.439472,-0.533284,-0.972198,0.096194,-0.074221,4.150391,-6.347656,-17.578125,0,0
8417,2024 10 17,09:01:10.130,-0.509301,-0.511259,0.439611,-0.53476,-0.964873,0.126957,-0.066408,6.469727,-9.399414,-19.226074,0,0
8418,2024 10 17,09:01:10.138,-0.508372,-0.510357,0.439829,-0.536325,-0.948759,0.125004,-0.117679,6.591797,-8.728027,-21.484375,0,0
8419,2024 10 17,09:01:10.147,-0.507213,-0.509443,0.440205,-0.53798,-0.984893,0.135258,-0.076662,7.93457,-6.469727,-24.902344,0,0
8420,2024 10 17,09:01:10.155,-0.505636,-0.508582,0.440871,-0.539731,-1.025422,0.11182,-0.091311,9.399414,-3.112793,-30.212402,0,0
8421,2024 10 17,09:01:10.163,-0.503619,-0.507587,0.441568,-0.541979,-1.039094,0.11475,-0.060549,14.343262,-5.92041,-36.560059,0,0
8422,2024 10 17,09:01:10.172,-0.503619,-0.507587,0.441568,-0.541979,-1.039094,0.11475,-0.060549,14.343262,-5.92041,-36.560059,0,0
8423,2024 10 17,09:01:10.180,-0.501102,-0.506464,0.442349,-0.544719,-1.065951,0.129398,-0.073733,18.188477,-5.79834,-44.189453,0,0
8424,2024 10 17,09:01:10.188,-0.497822,-0.505242,0.443482,-0.54793,-1.162633,0.160161,-0.092776,22.583008,-2.258301,-55.603027,0,0
8425,2024 10 17,09:01:10.197,-0.493834,-0.503633,0.445028,-0.551754,-1.255409,0.187506,-0.038087,23.376465,-4.089355,-67.687988,0,0
8426,2024 10 17,09:01:10.205,-0.48949,-0.501263,0.447028,-0.556148,-1.301798,0.234382,-0.133305,20.568848,-8.728027,-80.200195,0,0
8427,2024 10 17,09:01:10.213,-0.484801,-0.497842,0.449717,-0.561138,-1.314493,0.269051,-0.113773,14.953613,-10.864258,-96.374512,0,0
8428,2024 10 17,09:01:10.222,-0.484801,-0.497842,0.449717,-0.561138,-1.314493,0.269051,-0.113773,14.953613,-10.864258,-96.374512,0,0
8429,2024 10 17,09:01:10.230,-0.479251,-0.493732,0.453603,-0.566385,-1.402387,0.278817,-0.121586,9.155273,-5.554199,-114.318848,0,0
8430,2024 10 17,09:01:10.238,-0.473249,-0.488323,0.458496,-0.572152,-1.481979,0.284677,-0.079592,0.488281,-10.925293,-133.605957,0,0
8431,2024 10 17,09:01:10.247,-0.466396,-0.481548,0.464387,-0.578732,-1.551317,0.301767,-0.003418,-3.78418,-15.014648,-157.531738,0,0
8432,2024 10 17,09:01:10.255,-0.458666,-0.473093,0.471244,-0.586292,-1.657765,0.338878,0.036134,-9.58252,-22.888184,-183.776855,0,0
8433,2024 10 17,09:01:10.263,-0.449902,-0.46261,0.479093,-0.595022,-1.823298,0.419935,0.075198,-15.014648,-32.775879,-215.332031,0,0
8434,2024 10 17,09:01:10.272,-0.43941,-0.449993,0.488153,-0.605088,-2.098209,0.555193,-0.009766,-16.723633,-37.231445,-255.859375,0,0
8435,2024 10 17,09:01:10.280,-0.43941,-0.449993,0.488153,-0.605088,-2.098209,0.555193,-0.009766,-16.723633,-37.231445,-255.859375,0,0
8436,2024 10 17,09:01:10.288,-0.426539,-0.434588,0.498586,-0.616936,-2.411206,0.707053,-0.10596,-17.578125,-47.790527,-308.532715,0,0
8437,2024 10 17,09:01:10.297,-0.410655,-0.415481,0.510277,-0.631155,-2.694418,0.89114,0.018067,-14.953613,-63.232422,-373.352051,0,0
8438,2024 10 17,09:01:10.305,-0.391113,-0.392295,0.523465,-0.647395,-3.214942,0.844264,-0.15479,-18.127441,-73.669434,-444.274902,0,0
8439,2024 10 17,09:01:10.313,-0.368013,-0.363901,0.537459,-0.665792,-3.684683,0.836451,-0.075198,-19.958496,-103.881836,-516.174316,0,0
8440,2024 10 17,09:01:10.322,-0.34361,-0.329441,0.552514,-0.684199,-3.590442,0.378918,-0.144047,-54.077148,-132.324219,-559.997559,0,0
8441,2024 10 17,09:01:10.330,-0.34361,-0.329441,0.552514,-0.684199,-3.590442,0.378918,-0.144047,-54.077148,-132.324219,-559.997559,0,0
8442,2024 10 17,09:01:10.338,-0.317466,-0.292098,0.567466,-0.701339,-3.272073,-0.185553,-0.133305,-59.753418,-139.648438,-579.956055,0,1
8443,2024 10 17,09:01:10.347,-0.290846,-0.254344,0.579877,-0.717259,-2.91171,0.107913,0.12598,-39.916992,-139.282227,-564.147949,0,0
8444,2024 10 17,09:01:10.355,-0.263503,-0.217879,0.59004,-0.731401,-3.212012,0.530778,0.225593,-23.254395,-128.051758,-555.480957,0,0
8445,2024 10 17,09:01:10.363,-0.236124,-0.181359,0.596821,-0.74509,-2.392163,1.244179,0.871609,-5.065918,-138.183594,-545.043945,0,0
8446,2024 10 17,09:01:10.372,-0.207339,-0.147997,0.602235,-0.756584,-1.75396,1.689505,0.727073,7.629395,-88.928223,-527.282715,0,0
8447,2024 10 17,09:01:10.380,-0.207339,-0.147997,0.602235,-0.756584,-1.75396,1.689505,0.727073,7.629395,-88.928223,-527.282715,0,0
8448,2024 10 17,09:01:10.388,-0.174636,-0.119189,0.605957,-0.766885,-1.201697,1.472701,1.538621,34.179688,-13.977051,-524.291992,0,0
8449,2024 10 17,09:01:10.397,-0.134852,-0.096321,0.607151,-0.777113,-0.625507,0.59621,0.662618,100.708008,80.01709,-548.278809,0,0
8450,2024 10 17,09:01:10.405,-0.097661,-0.08244,0.599058,-0.79044,1.967345,0.865261,2.085513,219.238281,105.712891,-370.544434,0,0
8451,2024 10 17,09:01:10.413,-0.084872,-0.086807,0.591307,-0.797256,0.293466,2.287179,0.227546,76.904297,133.483887,9.94873,0,0
8452,2024 10 17,09:01:10.422,-0.086503,-0.107722,0.584856,-0.799285,-1.600147,2.388257,0.077151,111.694336,160.766602,192.077637,0,0
8453,2024 10 17,09:01:10.430,-0.086503,-0.107722,0.584856,-0.799285,-1.600147,2.388257,0.077151,111.694336,160.766602,192.077637,0,0
8454,2024 10 17,09:01:10.438,-0.103223,-0.127682,0.580186,-0.797763,-1.341838,1.557176,0.136235,2.502441,36.071777,306.518555,0,0
8455,2024 10 17,09:01:10.447,-0.127812,-0.14515,0.576721,-0.793718,-0.927763,1.151891,0.281259,-23.803711,-11.779785,352.539063,0,0
8456,2024 10 17,09:01:10.455,-0.154928,-0.161272,0.573731,-0.787922,-0.553728,0.772485,0.654317,-29.602051,-33.325195,359.375,0,0
8457,2024 10 17,09:01:10.463,-0.179866,-0.177491,0.570579,-0.781399,-0.170415,0.514176,0.541032,-27.46582,-2.319336,339.111328,0,0
8458,2024 10 17,09:01:10.472,-0.199678,-0.195512,0.567235,-0.774693,-0.10303,0.376965,0.599139,-11.901855,50.537109,306.274414,0,0
8459,2024 10 17,09:01:10.480,-0.199678,-0.195512,0.567235,-0.774693,-0.10303,0.376965,0.599139,-11.901855,50.537109,306.274414,0,0
8460,2024 10 17,09:01:10.488,-0.21508,-0.215893,0.563648,-0.767744,-0.187017,0.46437,0.557634,4.516602,96.740723,288.391113,0,0
8461,2024 10 17,09:01:10.497,-0.228268,-0.238221,0.559747,-0.76015,-0.41847,0.61037,0.41554,10.131836,124.87793,286.437988,0,0
8462,2024 10 17,09:01:10.505,-0.241022,-0.261753,0.555556,-0.751499,-0.770531,0.688986,0.273446,7.202148,134.094238,294.555664,0,0
8463,2024 10 17,09:01:10.513,-0.255198,-0.284833,0.550776,-0.741882,-0.906766,0.683615,0.226569,-1.098633,117.675781,307.922363,0,0
8464,2024 10 17,09:01:10.522,-0.271079,-0.307252,0.54538,-0.731213,-0.900906,0.585467,0.15186,-10.192871,105.163574,323.486328,0,0
8465,2024 10 17,09:01:10.530,-0.271079,-0.307252,0.54538,-0.731213,-0.900906,0.585467,0.15186,-10.192871,105.163574,323.486328,0,0
8466,2024 10 17,09:01:10.538,-0.287945,-0.329654,0.539365,-0.719375,-0.873562,0.493179,0.196783,-14.404297,104.553223,337.524414,0,0
8467,2024 10 17,09:01:10.547,-0.304898,-0.352698,0.53286,-0.706188,-0.865749,0.430189,0.193854,-15.808105,115.05127,347.900391,0,0
8468,2024 10 17,09:01:10.555,-0.321171,-0.376604,0.525978,-0.69164,-0.968291,0.406751,0.184088,-15.136719,131.347656,353.149414,0,0
8469,2024 10 17,09:01:10.563,-0.336533,-0.40126,0.518741,-0.675754,-1.18363,0.416028,0.176275,-13.61084,146.850586,356.506348,0,0
8470,2024 10 17,09:01:10.572,-0.351282,-0.426139,0.511003,-0.658698,-1.451216,0.460952,0.133793,-13.671875,152.099609,359.49707,0,0
8471,2024 10 17,09:01:10.580,-0.351282,-0.426139,0.511003,-0.658698,-1.451216,0.460952,0.133793,-13.671875,152.099609,359.49707,0,0
8472,2024 10 17,09:01:10.588,-0.366169,-0.450223,0.502488,-0.640879,-1.612354,0.457045,0.099124,-16.845703,143.676758,362.304688,0,0
8473,2024 10 17,09:01:10.597,-0.381414,-0.473401,0.493195,-0.622233,-1.684133,0.469253,0.04883,-21.911621,137.390137,368.713379,0,0
8474,2024 10 17,09:01:10.605,-0.397098,-0.496032,0.483144,-0.602359,-1.769097,0.484878,0.044923,-28.991699,135.925293,379.577637,0,0
8475,2024 10 17,09:01:10.613,-0.413307,-0.518142,0.472429,-0.580962,-1.90582,0.478042,0.052736,-38.757324,135.253906,391.296387,0,0
8476,2024 10 17,09:01:10.622,-0.429898,-0.539532,0.46112,-0.558087,-2.086978,0.412122,0.07178,-47.851563,134.399414,400.45166,0,0
8477,2024 10 17,09:01:10.630,-0.429898,-0.539532,0.46112,-0.558087,-2.086978,0.412122,0.07178,-47.851563,134.399414,400.45166,0,0
8478,2024 10 17,09:01:10.638,-0.446435,-0.560201,0.449145,-0.533985,-2.299875,0.30958,0.157231,-52.185059,134.521484,407.165527,0,0
8479,2024 10 17,09:01:10.647,-0.46251,-0.580154,0.436328,-0.509042,-2.503006,0.079104,0.258309,-49.926758,133.239746,410.949707,0,0
8480,2024 10 17,09:01:10.655,-0.477465,-0.599639,0.422404,-0.483771,-2.671468,-0.455092,0.306162,-37.536621,132.629395,414.001465,0,0
8481,2024 10 17,09:01:10.663,-0.490489,-0.619246,0.40703,-0.458564,-2.835047,-0.965361,0.341319,-13.549805,134.765625,417.480469,0,0
8482,2024 10 17,09:01:10.672,-0.501514,-0.638619,0.390375,-0.433886,-3.040132,-1.420454,0.18067,6.408691,130.187988,413.208008,0,0
8483,2024 10 17,09:01:10.680,-0.510987,-0.656502,0.373,-0.410814,-3.253517,-1.825251,0.087405,16.845703,110.839844,394.348145,0,0
8484,2024 10 17,09:01:10.688,-0.510987,-0.656502,0.373,-0.410814,-3.253517,-1.825251,0.087405,16.845703,110.839844,394.348145,0,0
8485,2024 10 17,09:01:10.697,-0.518278,-0.671961,0.356802,-0.390575,-4.826807,-2.872158,-0.206061,31.005859,106.018066,336.975098,0,0
8486,2024 10 17,09:01:10.705,-0.525158,-0.681807,0.343781,-0.375716,-1.557665,-2.566484,0.81106,-14.953613,-4.272461,290.405273,0,0
8487,2024 10 17,09:01:10.713,-0.530472,-0.691845,0.335243,-0.35716,-2.231514,-3.397076,-1.331583,-19.897461,176.879883,243.164063,0,0
8488,2024 10 17,09:01:10.722,-0.532592,-0.699543,0.333601,-0.340141,-1.587939,-3.401959,-0.669942,-27.954102,135.437012,150.024414,0,0
8489,2024 10 17,09:01:10.730,-0.530446,-0.705201,0.339815,-0.325337,-3.835566,-4.909329,-2.16364,-33.996582,218.322754,50.476074,0,0
8490,2024 10 17,09:01:10.738,-0.530446,-0.705201,0.339815,-0.325337,-3.835566,-4.909329,-2.16364,-33.996582,218.322754,50.476074,0,0
8491,2024 10 17,09:01:10.747,-0.519833,-0.708291,0.354948,-0.319546,-4.945463,-4.858547,-2.797937,35.400391,155.944824,-110.656738,0,0
8492,2024 10 17,09:01:10.755,-0.508007,-0.703503,0.367826,-0.334241,-4.308725,-4.271615,-2.588946,93.139648,-36.376953,-257.385254,0,0
8493,2024 10 17,09:01:10.763,-0.499678,-0.687425,0.376831,-0.368465,-1.321818,-2.867763,-2.654866,79.528809,-304.199219,-367.797852,0,0
8494,2024 10 17,09:01:10.772,-0.48969,-0.670158,0.381793,-0.406602,0.185553,3.845821,2.534257,106.567383,-207.458496,-370.605469,1,0
8495,2024 10 17,09:01:10.780,-0.482434,-0.656599,0.406573,-0.413321,-3.181249,0.125492,-1.409711,-87.70752,57.373047,-339.599609,0,0
8496,2024 10 17,09:01:10.788,-0.482434,-0.656599,0.406573,-0.413321,-3.181249,0.125492,-1.409711,-87.70752,57.373047,-339.599609,0,0
8497,2024 10 17,09:01:10.797,-0.481827,-0.637005,0.423616,-0.427336,-1.720267,-0.812037,-0.575701,-171.691895,-131.713867,-272.460938,0,0
8498,2024 10 17,09:01:10.805,-0.484193,-0.618964,0.436036,-0.438536,-1.691946,-0.852565,-0.78518,-81.90918,-84.960938,-206.054688,0,0
8499,2024 10 17,09:01:10.813,-0.482152,-0.608156,0.440644,-0.45112,-1.570849,-0.244636,-0.010254,5.371094,-121.09375,-145.324707,0,0
8500,2024 10 17,09:01:10.822,-0.482553,-0.598132,0.440777,-0.463784,-1.306192,0.266121,0.928739,-5.554199,-138.305664,-109.25293,0,0
8501,2024 10 17,09:01:10.830,-0.487172,-0.587206,0.441518,-0.472138,-1.261269,0.095218,0.522477,-68.664551,-144.470215,-73.669434,0,0
8502,2024 10 17,09:01:10.838,-0.487172,-0.587206,0.441518,-0.472138,-1.261269,0.095218,0.522477,-68.664551,-144.470215,-73.669434,0,0
8503,2024 10 17,09:01:10.847,-0.495268,-0.574666,0.440893,-0.479668,-1.07181,-0.177252,-0.027345,-80.383301,-170.227051,-51.391602,0,0
8504,2024 10 17,09:01:10.855,-0.50272,-0.563071,0.437985,-0.488255,-0.991241,0.112796,0.062014,-52.91748,-172.058105,-43.212891,0,0
8505,2024 10 17,09:01:10.863,-0.510567,-0.55167,0.435077,-0.495671,-0.860866,0.259774,-0.017579,-69.763184,-166.625977,-35.095215,0,0
8506,2024 10 17,09:01:10.872,-0.518755,-0.540578,0.433776,-0.500507,-0.794458,0.012207,-0.186529,-84.350586,-132.385254,-28.320313,0,0
8507,2024 10 17,09:01:10.880,-0.524533,-0.531894,0.432837,-0.504585,-0.675314,-0.050783,-0.387707,-52.55127,-99.243164,-27.160645,0,0
8508,2024 10 17,09:01:10.888,-0.524533,-0.531894,0.432837,-0.504585,-0.675314,-0.050783,-0.387707,-52.55127,-99.243164,-27.160645,0,0
8509,2024 10 17,09:01:10.897,-0.528249,-0.526222,0.432032,-0.507338,-0.681173,-0.064455,-0.442885,-35.949707,-62.62207,-14.221191,0,0
8510,2024 10 17,09:01:10.905,-0.530015,-0.523324,0.431273,-0.509136,-0.84817,0.194342,-0.019044,-8.605957,-31.005859,-9.033203,0,0
8511,2024 10 17,09:01:10.913,-0.530796,-0.521746,0.431128,-0.510064,-0.913602,0.117679,-0.181646,-6.958008,-18.493652,-9.155273,0,0
8512,2024 10 17,09:01:10.922,-0.530783,-0.52065,0.43092,-0.511371,-0.908719,0.165044,-0.032228,2.258301,-11.84082,-13.305664,0,0
8513,2024 10 17,09:01:10.930,-0.529885,-0.520138,0.431148,-0.51263,-0.985382,0.181646,-0.06299,8.728027,-4.272461,-18.798828,0,0
8514,2024 10 17,09:01:10.938,-0.529885,-0.520138,0.431148,-0.51263,-0.985382,0.181646,-0.06299,8.728027,-4.272461,-18.798828,0,0
8515,2024 10 17,09:01:10.947,-0.528603,-0.519569,0.431446,-0.514278,-0.966338,0.185064,-0.050783,10.620117,-4.821777,-23.620605,0,0
8516,2024 10 17,09:01:10.955,-0.527221,-0.51892,0.431969,-0.515911,-0.93704,0.154302,-0.080569,8.361816,-3.234863,-24.841309,0,0
8517,2024 10 17,09:01:10.963,-0.525809,-0.518285,0.432663,-0.517405,-0.966826,0.172369,-0.064943,6.713867,-1.586914,-24.963379,0,0
8518,2024 10 17,09:01:10.972,-0.524748,-0.517409,0.433405,-0.518736,-0.929716,0.150395,-0.071291,3.112793,-3.417969,-23.010254,0,0
8519,2024 10 17,09:01:10.980,-0.523926,-0.516487,0.434109,-0.519897,-0.938994,0.151372,-0.072756,-0.183105,-4.272461,-20.385742,0,0
8520,2024 10 17,09:01:10.988,-0.523926,-0.516487,0.434109,-0.519897,-0.938994,0.151372,-0.072756,-0.183105,-4.272461,-20.385742,0,0
8521,2024 10 17,09:01:10.997,-0.523334,-0.515512,0.434865,-0.520827,-0.955107,0.145024,-0.097171,-3.112793,-4.02832,-18.432617,0,0
8522,2024 10 17,09:01:11.005,-0.522889,-0.514511,0.435609,-0.521643,-0.940458,0.138188,-0.033692,-4.02832,-3.723145,-16.845703,0,0
8523,2024 10 17,09:01:11.013,-0.522562,-0.513492,0.436299,-0.522397,-0.955107,0.137211,-0.059572,-4.638672,-5.981445,-15.686035,0,0
8524,2024 10 17,09:01:11.022,-0.522355,-0.512355,0.436919,-0.523201,-0.961455,0.150395,-0.062502,-5.981445,-6.835938,-15.625,0,0
8525,2024 10 17,09:01:11.030,-0.522286,-0.511064,0.437628,-0.523941,-0.954131,0.160649,-0.064455,-8.544922,-7.873535,-15.991211,0,0
8526,2024 10 17,09:01:11.038,-0.522286,-0.511064,0.437628,-0.523941,-0.954131,0.160649,-0.064455,-8.544922,-7.873535,-15.991211,0,0
8527,2024 10 17,09:01:11.047,-0.522311,-0.50964,0.438516,-0.524559,-0.933134,0.141118,-0.105472,-11.71875,-6.652832,-16.540527,0,0
8528,2024 10 17,09:01:11.055,-0.522312,-0.508142,0.439575,-0.525124,-0.935087,0.163091,-0.121097,-12.939453,-5.187988,-17.883301,0,0
8529,2024 10 17,09:01:11.063,-0.522344,-0.506525,0.440858,-0.525579,-0.938994,0.130375,-0.119144,-15.930176,-4.638672,-18.554688,0,0
8530,2024 10 17,09:01:11.072,-0.522243,-0.504946,0.442242,-0.526036,-0.946806,0.119633,-0.092776,-14.465332,-2.258301,-20.263672,0,0
8531,2024 10 17,09:01:11.080,-0.521753,-0.503537,0.443791,-0.526568,-0.950713,0.110843,-0.097171,-11.413574,0.671387,-23.376465,0,0
8532,2024 10 17,09:01:11.088,-0.521028,-0.502213,0.445268,-0.527302,-0.948759,0.106937,-0.087405,-7.568359,0.549316,-24.475098,0,0
8533,2024 10 17,09:01:11.097,-0.521028,-0.502213,0.445268,-0.527302,-0.948759,0.106937,-0.087405,-7.568359,0.549316,-24.475098,0,0
8534,2024 10 17,09:01:11.105,-0.520095,-0.501038,0.446682,-0.528145,-0.924833,0.081057,-0.117679,-5.554199,1.220703,-25.146484,0,0
8535,2024 10 17,09:01:11.113,-0.519052,-0.499971,0.447902,-0.529149,-0.924345,0.079104,-0.08887,-1.89209,0.732422,-24.963379,0,0
8536,2024 10 17,09:01:11.122,-0.517815,-0.499108,0.449041,-0.530208,-0.948759,0.075686,-0.075198,1.037598,1.89209,-24.902344,0,0
8537,2024 10 17,09:01:11.130,-0.516506,-0.498305,0.44995,-0.531468,-0.961455,0.092776,-0.064455,4.455566,-0.671387,-25.085449,0,0
8538,2024 10 17,09:01:11.138,-0.51523,-0.497414,0.450694,-0.53291,-0.970733,0.070803,-0.084475,5.004883,-3.234863,-25.634766,0,0
8539,2024 10 17,09:01:11.147,-0.51523,-0.497414,0.450694,-0.53291,-0.970733,0.070803,-0.084475,5.004883,-3.234863,-25.634766,0,0
8540,2024 10 17,09:01:11.155,-0.513771,-0.496585,0.451297,-0.534579,-0.955596,0.06299,-0.086917,7.69043,-4.333496,-26.672363,0,0
8541,2024 10 17,09:01:11.163,-0.512177,-0.495762,0.451795,-0.536447,-0.960479,0.088382,-0.108402,11.59668,-4.699707,-28.686523,0,0
8542,2024 10 17,09:01:11.172,-0.510342,-0.494955,0.452326,-0.53849,-0.994659,0.090335,-0.072268,14.221191,-3.356934,-31.738281,0,0
8543,2024 10 17,09:01:11.180,-0.508119,-0.494157,0.452962,-0.540785,-1.022004,0.093265,-0.081057,17.39502,-2.502441,-36.92627,0,0
8544,2024 10 17,09:01:11.188,-0.505363,-0.493297,0.453664,-0.543558,-1.058626,0.096683,-0.075198,22.094727,-2.685547,-43.823242,0,0
8545,2024 10 17,09:01:11.197,-0.505363,-0.493297,0.453664,-0.543558,-1.058626,0.096683,-0.075198,22.094727,-2.685547,-43.823242,0,0
8546,2024 10 17,09:01:11.205,-0.502017,-0.492316,0.454548,-0.546799,-1.141148,0.112796,-0.109378,24.230957,-2.13623,-52.612305,0,0
8547,2024 10 17,09:01:11.213,-0.497885,-0.491045,0.455698,-0.550749,-1.189001,0.154302,-0.059084,30.883789,-2.197266,-65.856934,0,0
8548,2024 10 17,09:01:11.222,-0.493116,-0.489252,0.457282,-0.555303,-1.271523,0.173345,-0.055177,30.334473,-3.90625,-78.735352,0,0
8549,2024 10 17,09:01:11.230,-0.488103,-0.486509,0.459258,-0.560488,-1.28666,0.220222,-0.076662,24.902344,-11.962891,-90.209961,0,0
8550,2024 10 17,09:01:11.238,-0.483136,-0.482544,0.461998,-0.56594,-1.314982,0.259774,-0.188971,15.075684,-13.73291,-104.431152,0,0
8551,2024 10 17,09:01:11.247,-0.483136,-0.482544,0.461998,-0.56594,-1.314982,0.259774,-0.188971,15.075684,-13.73291,-104.431152,0,0
8552,2024 10 17,09:01:11.255,-0.477244,-0.477807,0.465961,-0.571682,-1.33256,0.231452,-0.129887,8.728027,-7.93457,-123.657227,0,0
8553,2024 10 17,09:01:11.263,-0.470559,-0.472086,0.471118,-0.577717,-1.445357,0.264657,-0.047365,1.037598,-6.958008,-141.845703,0,0
8554,2024 10 17,09:01:11.272,-0.46325,-0.46491,0.477318,-0.584316,-1.610401,0.306162,-0.027833,-4.882813,-12.573242,-165.100098,0,0
8555,2024 10 17,09:01:11.280,-0.455074,-0.455769,0.484444,-0.592027,-1.724662,0.342784,0.048341,-13.366699,-23.681641,-193.847656,0,0
8556,2024 10 17,09:01:11.288,-0.44585,-0.444345,0.492697,-0.600854,-1.949278,0.436048,0.079592,-20.751953,-32.653809,-227.783203,0,0
8557,2024 10 17,09:01:11.297,-0.44585,-0.444345,0.492697,-0.600854,-1.949278,0.436048,0.079592,-20.751953,-32.653809,-227.783203,0,0
8558,2024 10 17,09:01:11.305,-0.434515,-0.430522,0.502263,-0.611211,-2.30427,0.582537,0.030274,-19.226074,-37.902832,-275.024414,0,0
8559,2024 10 17,09:01:11.313,-0.420202,-0.413532,0.513053,-0.623857,-2.756432,0.780786,-0.089358,-16.967773,-52.856445,-337.280273,0,0
8560,2024 10 17,09:01:11.322,-0.402995,-0.391497,0.524656,-0.639578,-2.999115,0.87112,0.164068,-15.50293,-83.435059,-410.949707,0,0
8561,2024 10 17,09:01:11.330,-0.381969,-0.364696,0.537808,-0.65716,-3.714469,0.798364,-0.145512,-21.911621,-93.383789,-484.558105,0,0
8562,2024 10 17,09:01:11.338,-0.358252,-0.331812,0.55168,-0.67617,-3.662709,0.634297,0.079592,-41.870117,-137.329102,-548.828125,0,0
8563,2024 10 17,09:01:11.347,-0.358252,-0.331812,0.55168,-0.67617,-3.662709,0.634297,0.079592,-41.870117,-137.329102,-548.828125,0,0
8564,2024 10 17,09:01:11.355,-0.334018,-0.293891,0.566009,-0.694041,-3.355083,-0.123051,-0.26661,-63.354492,-151.733398,-574.829102,0,1
8565,2024 10 17,09:01:11.363,-0.30801,-0.255248,0.578701,-0.710692,-2.93759,-0.345225,0.018067,-48.095703,-147.094727,-569.213867,0,0
8566,2024 10 17,09:01:11.372,-0.281264,-0.218518,0.588924,-0.725472,-3.248146,0.069338,-0.07178,-33.569336,-127.01416,-550.109863,0,0
8567,2024 10 17,09:01:11.380,-0.254493,-0.18242,0.59559,-0.739749,-2.859462,1.044954,0.775414,-4.943848,-142.822266,-539.0625,0,0
8568,2024 10 17,09:01:11.388,-0.227713,-0.148056,0.600593,-0.752007,-2.093326,1.693899,0.709006,1.159668,-116.638184,-518.676758,0,0
8569,2024 10 17,09:01:11.397,-0.227713,-0.148056,0.600593,-0.752007,-2.093326,1.693899,0.709006,1.159668,-116.638184,-518.676758,0,0
8570,2024 10 17,09:01:11.405,-0.198834,-0.116845,0.604201,-0.762727,-1.581103,1.610401,1.356975,14.404297,-68.847656,-509.765625,0,0
8571,2024 10 17,09:01:11.413,-0.163935,-0.090571,0.606774,-0.772494,-1.413129,0.937529,0.715842,53.833008,22.644043,-534.545898,0,0
8572,2024 10 17,09:01:11.422,-0.12341,-0.069133,0.602339,-0.785606,0.827174,0.213874,0.885281,156.311035,81.542969,-507.568359,0,0
8573,2024 10 17,09:01:11.430,-0.101242,-0.063429,0.589937,-0.798562,2.336009,3.119724,2.470778,221.557617,72.692871,-132.995605,0,0
8574,2024 10 17,09:01:11.438,-0.100704,-0.080975,0.585709,-0.800154,-1.262734,1.915586,-1.11185,52.79541,178.588867,177.978516,0,0
8575,2024 10 17,09:01:11.447,-0.100704,-0.080975,0.585709,-0.800154,-1.262734,1.915586,-1.11185,52.79541,178.588867,177.978516,0,0
8576,2024 10 17,09:01:11.455,-0.115499,-0.102588,0.57816,-0.801166,-1.663625,2.183661,0.582537,54.626465,52.612305,305.603027,0,0
8577,2024 10 17,09:01:11.463,-0.140427,-0.120848,0.574133,-0.797526,-1.344768,1.425825,0.502457,12.756348,-13.183594,354.797363,0,0
8578,2024 10 17,09:01:11.472,-0.168328,-0.135768,0.569809,-0.792812,-0.677755,0.76809,0.733421,-11.59668,-61.279297,356.567383,0,0
8579,2024 10 17,09:01:11.480,-0.193774,-0.149572,0.565199,-0.787801,-0.01709,0.556658,0.678243,-1.098633,-30.761719,325.927734,0,0
8580,2024 10 17,09:01:11.488,-0.212874,-0.165982,0.560557,-0.782886,0.215827,0.417982,0.830103,23.193359,38.146973,287.536621,0,0
8581,2024 10 17,09:01:11.497,-0.226586,-0.186339,0.555781,-0.777846,0.114261,0.465346,0.767602,42.175293,107.543945,273.4375,0,0
8582,2024 10 17,09:01:11.505,-0.226586,-0.186339,0.555781,-0.777846,0.114261,0.465346,0.767602,42.175293,107.543945,273.4375,0,0
8583,2024 10 17,09:01:11.513,-0.237402,-0.210962,0.550607,-0.771989,-0.28956,0.709006,0.586932,53.588867,158.752441,280.639648,0,0
8584,2024 10 17,09:01:11.522,-0.247665,-0.238224,0.545104,-0.764704,-0.741722,0.853542,0.423353,51.513672,179.321289,296.081543,0,0
8585,2024 10 17,09:01:11.530,-0.259482,-0.265834,0.53919,-0.755828,-0.939482,0.842311,0.271493,39.367676,170.10498,316.955566,0,0
8586,2024 10 17,09:01:11.538,-0.273849,-0.292832,0.532696,-0.745313,-1.003449,0.757347,0.195318,23.132324,150.57373,342.224121,0,0
8587,2024 10 17,09:01:11.547,-0.290233,-0.31934,0.525585,-0.733176,-1.032746,0.631367,0.169927,11.779785,141.479492,361.755371,0,0
8588,2024 10 17,09:01:11.555,-0.290233,-0.31934,0.525585,-0.733176,-1.032746,0.631367,0.169927,11.779785,141.479492,361.755371,0,0
8589,2024 10 17,09:01:11.563,-0.307475,-0.345299,0.518013,-0.719646,-1.006378,0.47853,0.200201,4.150391,136.047363,369.384766,0,0
8590,2024 10 17,09:01:11.572,-0.323816,-0.371556,0.51014,-0.704873,-1.029817,0.414075,0.15479,5.615234,153.564453,368.591309,0,0
8591,2024 10 17,09:01:11.580,-0.338682,-0.398274,0.502146,-0.688856,-1.202185,0.38966,0.199713,7.324219,169.189453,364.013672,0,0
8592,2024 10 17,09:01:11.588,-0.352313,-0.425066,0.493951,-0.671719,-1.419477,0.399915,0.1377,7.751465,179.443359,360.534668,0,0
8593,2024 10 17,09:01:11.597,-0.365347,-0.45157,0.48531,-0.653514,-1.590381,0.464858,0.055177,6.164551,183.044434,362.182617,0,0
8594,2024 10 17,09:01:11.605,-0.365347,-0.45157,0.48531,-0.653514,-1.590381,0.464858,0.055177,6.164551,183.044434,362.182617,0,0
8595,2024 10 17,09:01:11.613,-0.378515,-0.477739,0.476085,-0.633904,-1.748589,0.538591,-0.004883,-0.915527,185.180664,372.192383,0,0
8596,2024 10 17,09:01:11.622,-0.392503,-0.503578,0.46614,-0.612424,-1.915097,0.6133,-0.052736,-13.122559,185.241699,389.892578,0,0
8597,2024 10 17,09:01:11.630,-0.407301,-0.528836,0.456241,-0.588458,-1.975646,0.41554,-0.024903,-31.616211,181.884766,407.958984,0,0
8598,2024 10 17,09:01:11.638,-0.423719,-0.552194,0.444997,-0.56349,-2.380932,0.543962,-0.046876,-51.086426,168.273926,415.283203,0,0
8599,2024 10 17,09:01:11.647,-0.440375,-0.573849,0.433427,-0.537502,-2.525956,0.318369,0.051271,-59.570313,161.92627,414.123535,0,0
8600,2024 10 17,09:01:11.655,-0.440375,-0.573849,0.433427,-0.537502,-2.525956,0.318369,0.051271,-59.570313,161.92627,414.123535,0,0
8601,2024 10 17,09:01:11.663,-0.456233,-0.594328,0.421296,-0.511013,-2.646565,-0.015137,0.226569,-56.030273,161.132813,412.414551,0,0
8602,2024 10 17,09:01:11.672,-0.470626,-0.614542,0.408127,-0.484027,-2.829676,-0.485366,0.271004,-41.320801,164.123535,416.931152,0,0
8603,2024 10 17,09:01:11.680,-0.48337,-0.634676,0.393251,-0.457049,-3.064547,-0.992218,0.281259,-20.263672,160.522461,422.851563,0,0
8604,2024 10 17,09:01:11.688,-0.494646,-0.653848,0.376861,-0.431026,-3.233985,-1.508347,0.107425,-5.432129,143.798828,416.748047,0,0
8605,2024 10 17,09:01:11.697,-0.50467,-0.670742,0.360091,-0.407121,-3.243751,-2.001038,-0.00293,-1.220703,121.398926,389.831543,0,0
8606,2024 10 17,09:01:11.705,-0.50467,-0.670742,0.360091,-0.407121,-3.243751,-2.001038,-0.00293,-1.220703,121.398926,389.831543,0,0
8607,2024 10 17,09:01:11.713,-0.513369,-0.68442,0.345204,-0.385817,-2.987884,-2.473708,-0.136235,-11.169434,104.858398,337.280273,0,0
8608,2024 10 17,09:01:11.722,-0.520335,-0.694686,0.334776,-0.366861,-2.319407,-3.005951,-0.343272,-29.785156,114.929199,265.075684,0,0
8609,2024 10 17,09:01:11.730,-0.52467,-0.702833,0.33132,-0.347813,-1.934629,-3.428816,-0.91409,-51.208496,167.419434,193.481445,0,0
8610,2024 10 17,09:01:11.738,-0.526556,-0.708825,0.334165,-0.329607,-1.554247,-3.7257,-1.389691,-65.002441,189.575195,117.431641,0,0
8611,2024 10 17,09:01:11.747,-0.527042,-0.712283,0.342442,-0.312431,-3.148534,-5.178869,-2.100162,-74.462891,218.078613,64.63623,0,0
8612,2024 10 17,09:01:11.755,-0.527042,-0.712283,0.342442,-0.312431,-3.148534,-5.178869,-2.100162,-74.462891,218.078613,64.63623,0,0
8613,2024 10 17,09:01:11.763,-0.524857,-0.714243,0.350053,-0.303058,-4.077273,-4.651998,-1.769097,-31.066895,108.581543,12.634277,0,0
8614,2024 10 17,09:01:11.772,-0.526475,-0.709539,0.350365,-0.31084,-2.098697,-4.160283,-1.099643,-5.004883,-126.220703,-45.776367,0,0
8615,2024 10 17,09:01:11.780,-0.524452,-0.705304,0.349784,-0.324265,-6.273629,1.364299,-1.613819,67.749023,-79.589844,-89.294434,0,0
8616,2024 10 17,09:01:11.788,-0.493132,-0.707476,0.363957,-0.3519,-1.109897,1.167028,-4.841456,46.447754,-297.912598,-387.939453,0,0
8617,2024 10 17,09:01:11.797,-0.506494,-0.673199,0.35337,-0.406688,4.709128,4.487442,5.536302,42.297363,-621.21582,-341.491699,0,0
8618,2024 10 17,09:01:11.805,-0.506494,-0.673199,0.35337,-0.406688,4.709128,4.487442,5.536302,42.297363,-621.21582,-341.491699,0,0
8619,2024 10 17,09:01:11.813,-0.490011,-0.667652,0.385554,-0.406789,-2.291086,0.716331,-3.501083,14.099121,349.060059,-399.536133,1,0
8620,2024 10 17,09:01:11.822,-0.482827,-0.647171,0.41092,-0.423311,-2.295969,-0.635273,1.371136,-253.051758,-154.846191,-395.568848,0,0
8621,2024 10 17,09:01:11.830,-0.487037,-0.621942,0.435706,-0.431444,-3.174901,-2.018616,-1.696829,-183.71582,-6.652832,-289.550781,0,0
8622,2024 10 17,09:01:11.838,-0.483834,-0.608148,0.443868,-0.446141,-2.308664,-0.435072,0.104984,-15.075684,-165.283203,-193.54248,0,0
8623,2024 10 17,09:01:11.847,-0.48577,-0.594282,0.443378,-0.462895,-1.361858,0.382824,1.090365,9.94873,-185.546875,-137.695313,0,0
8624,2024 10 17,09:01:11.855,-0.48577,-0.594282,0.443378,-0.462895,-1.361858,0.382824,1.090365,9.94873,-185.546875,-137.695313,0,0
8625,2024 10 17,09:01:11.863,-0.491276,-0.580873,0.444217,-0.473187,-1.400922,-0.058107,0.254891,-95.031738,-178.527832,-90.209961,0,0
8626,2024 10 17,09:01:11.872,-0.500625,-0.565891,0.443478,-0.482151,-0.810572,-0.210456,-0.115238,-84.289551,-188.781738,-66.833496,0,0
8627,2024 10 17,09:01:11.880,-0.507891,-0.553563,0.440879,-0.491162,-0.89407,0.040529,-0.19483,-49.255371,-179.931641,-51.940918,0,0
8628,2024 10 17,09:01:11.888,-0.515301,-0.542341,0.437966,-0.498514,-0.993194,0.190435,0.264656,-67.077637,-153.076172,-33.14209,0,0
8629,2024 10 17,09:01:11.897,-0.522719,-0.532255,0.436576,-0.502863,-0.577166,-0.17481,-0.543962,-75.378418,-125.0,-23.803711,0,0
8630,2024 10 17,09:01:11.905,-0.526735,-0.525786,0.43504,-0.506793,-0.488296,-0.037111,-0.710959,-15.441895,-70.373535,-20.629883,0,0
8631,2024 10 17,09:01:11.913,-0.526735,-0.525786,0.43504,-0.506793,-0.488296,-0.037111,-0.710959,-15.441895,-70.373535,-20.629883,0,0
8632,2024 10 17,09:01:11.922,-0.528147,-0.523364,0.434188,-0.508559,-1.032746,0.183111,0.208014,-17.39502,-28.564453,-6.04248,0,0
8633,2024 10 17,09:01:11.930,-0.529594,-0.520863,0.433732,-0.510008,-0.846217,0.192389,-0.221686,-7.141113,-36.315918,-13.061523,0,0
8634,2024 10 17,09:01:11.938,-0.530073,-0.519024,0.433581,-0.511513,-0.949736,0.145512,-0.037111,-5.981445,-15.808105,-15.74707,0,0
8635,2024 10 17,09:01:11.947,-0.529571,-0.517735,0.433825,-0.513128,-0.9888,0.181158,0.003906,3.051758,-15.014648,-22.766113,0,0
8636,2024 10 17,09:01:11.955,-0.528778,-0.516225,0.434088,-0.515241,-0.971709,0.172369,-0.043947,6.04248,-16.357422,-27.832031,0,0
8637,2024 10 17,09:01:11.963,-0.528778,-0.516225,0.434088,-0.515241,-0.971709,0.172369,-0.043947,6.04248,-16.357422,-27.832031,0,0
8638,2024 10 17,09:01:11.972,-0.527817,-0.514723,0.434389,-0.517471,-0.918973,0.143071,-0.108402,6.164551,-14.648438,-29.174805,0,0
8639,2024 10 17,09:01:11.980,-0.52689,-0.513277,0.43494,-0.519385,-0.967803,0.152837,-0.082522,-0.12207,-11.352539,-27.282715,0,0
8640,2024 10 17,09:01:11.988,-0.526371,-0.511633,0.435548,-0.521022,-0.924345,0.157231,-0.085452,-2.258301,-13.366699,-24.353027,0,0
8641,2024 10 17,09:01:11.997,-0.526022,-0.510116,0.436292,-0.522237,-0.917997,0.149419,-0.12891,-5.859375,-8.544922,-21.240234,0,0
8642,2024 10 17,09:01:12.005,-0.525863,-0.50858,0.437219,-0.52312,-0.918485,0.138188,-0.094241,-11.474609,-7.446289,-19.348145,0,0
8643,2024 10 17,09:01:12.013,-0.525863,-0.50858,0.437219,-0.52312,-0.918485,0.138188,-0.094241,-11.474609,-7.446289,-19.348145,0,0
8644,2024 10 17,09:01:12.022,-0.52575,-0.507217,0.438367,-0.523595,-0.904324,0.116214,-0.08887,-10.986328,-1.586914,-16.906738,0,0
8645,2024 10 17,09:01:12.030,-0.525626,-0.506011,0.439492,-0.523943,-0.936552,0.098636,-0.081057,-11.291504,-1.953125,-15.441895,0,0
8646,2024 10 17,09:01:12.038,-0.525354,-0.505002,0.440467,-0.524371,-0.935087,0.119633,-0.057131,-7.202148,-0.671387,-15.014648,0,0
8647,2024 10 17,09:01:12.047,-0.525053,-0.504078,0.441376,-0.524797,-0.93997,0.123539,-0.095706,-7.141113,-1.464844,-14.526367,0,0
8648,2024 10 17,09:01:12.055,-0.524818,-0.503079,0.442282,-0.525228,-0.917508,0.169927,-0.143071,-8.728027,-1.281738,-14.831543,0,0
8649,2024 10 17,09:01:12.063,-0.524818,-0.503079,0.442282,-0.525228,-0.917508,0.169927,-0.143071,-8.728027,-1.281738,-14.831543,0,0
8650,2024 10 17,09:01:12.072,-0.524489,-0.502091,0.443681,-0.525322,-0.914579,0.145024,-0.147465,-12.939453,5.92041,-16.784668,0,0
8651,2024 10 17,09:01:12.080,-0.523741,-0.501298,0.445662,-0.525149,-0.992218,0.172369,-0.11182,-13.671875,14.160156,-20.751953,0,0
8652,2024 10 17,09:01:12.088,-0.522656,-0.500403,0.448021,-0.525076,-1.024445,0.104984,-0.069826,-13.244629,14.587402,-25.695801,0,0
8653,2024 10 17,09:01:12.097,-0.521043,-0.499511,0.450329,-0.525553,-1.010773,0.10889,-0.091311,-5.79834,13.122559,-32.531738,0,0
8654,2024 10 17,09:01:12.105,-0.519221,-0.498452,0.452396,-0.526585,-1.02298,0.081545,-0.047365,-2.075195,8.850098,-35.339355,0,0
8655,2024 10 17,09:01:12.113,-0.519221,-0.498452,0.452396,-0.526585,-1.02298,0.081545,-0.047365,-2.075195,8.850098,-35.339355,0,0
8656,2024 10 17,09:01:12.122,-0.517072,-0.497414,0.454186,-0.528138,-1.000519,0.081057,-0.070803,4.02832,4.699707,-39.001465,0,0
8657,2024 10 17,09:01:12.130,-0.514958,-0.496178,0.455583,-0.53016,-0.966826,0.057131,-0.048341,7.93457,-0.671387,-39.306641,0,0
8658,2024 10 17,09:01:12.138,-0.512847,-0.494984,0.45664,-0.532409,-0.953154,0.046876,-0.081545,11.291504,-3.601074,-38.513184,0,0
8659,2024 10 17,09:01:12.147,-0.510764,-0.493796,0.457378,-0.534875,-0.924833,0.028809,-0.066897,12.939453,-6.835938,-37.414551,0,0
8660,2024 10 17,09:01:12.155,-0.508574,-0.492781,0.45793,-0.537419,-0.948759,0.055177,-0.057131,17.333984,-5.79834,-36.560059,0,0
8661,2024 10 17,09:01:12.163,-0.508574,-0.492781,0.45793,-0.537419,-0.948759,0.055177,-0.057131,17.333984,-5.79834,-36.560059,0,0
8662,2024 10 17,09:01:12.172,-0.506518,-0.4917,0.458288,-0.54004,-0.975616,0.068361,-0.044435,17.883301,-9.521484,-36.010742,0,0
8663,2024 10 17,09:01:12.180,-0.504444,-0.490521,0.458514,-0.542853,-1.002472,0.064943,-0.054689,18.371582,-11.413574,-37.353516,0,0
8664,2024 10 17,09:01:12.188,-0.502187,-0.489253,0.458715,-0.545913,-1.02591,0.064943,-0.090335,19.897461,-13.183594,-40.771484,0,0
8665,2024 10 17,09:01:12.197,-0.499794,-0.487662,0.458911,-0.549356,-1.065951,0.090823,-0.102542,21.179199,-16.113281,-46.142578,0,0
8666,2024 10 17,09:01:12.205,-0.496927,-0.48587,0.459311,-0.553198,-1.086459,0.105472,-0.076174,24.414063,-15.197754,-54.504395,0,0
8667,2024 10 17,09:01:12.213,-0.496927,-0.48587,0.459311,-0.553198,-1.086459,0.105472,-0.076174,24.414063,-15.197754,-54.504395,0,0
8668,2024 10 17,09:01:12.222,-0.493682,-0.483751,0.459944,-0.557418,-1.116733,0.093753,-0.076174,24.536133,-17.028809,-61.828613,0,0
8669,2024 10 17,09:01:12.230,-0.490043,-0.481248,0.460872,-0.56201,-1.145543,0.120121,-0.090823,22.766113,-17.333984,-70.678711,0,0
8670,2024 10 17,09:01:12.238,-0.486338,-0.478068,0.4623,-0.56675,-1.233924,0.14893,-0.104495,16.418457,-19.592285,-78.186035,0,0
8671,2024 10 17,09:01:12.247,-0.482202,-0.474201,0.4644,-0.571793,-1.307657,0.204596,-0.165532,12.939453,-19.714355,-91.97998,0,0
8672,2024 10 17,09:01:12.255,-0.477563,-0.469303,0.467311,-0.57733,-1.28959,0.201666,-0.132328,6.835938,-21.42334,-108.764648,0,0
8673,2024 10 17,09:01:12.263,-0.477563,-0.469303,0.467311,-0.57733,-1.28959,0.201666,-0.132328,6.835938,-21.42334,-108.764648,0,0
8674,2024 10 17,09:01:12.272,-0.472285,-0.463515,0.471324,-0.583055,-1.323771,0.19776,-0.099124,-1.464844,-18.371582,-124.450684,0,0
8675,2024 10 17,09:01:12.280,-0.466407,-0.456626,0.47638,-0.589084,-1.460494,0.218268,-0.075198,-9.521484,-19.65332,-142.883301,0,0
8676,2024 10 17,09:01:12.288,-0.459817,-0.448266,0.482399,-0.595749,-1.642628,0.262703,0.007813,-17.089844,-25.45166,-165.527344,0,0
8677,2024 10 17,09:01:12.297,-0.45234,-0.437978,0.489482,-0.603301,-1.848201,0.360851,0.038087,-24.963379,-34.729004,-194.824219,0,0
8678,2024 10 17,09:01:12.305,-0.44389,-0.424946,0.497716,-0.612096,-2.082583,0.429701,0.081545,-33.447266,-48.339844,-232.727051,0,0
8679,2024 10 17,09:01:12.313,-0.432714,-0.409691,0.507048,-0.622747,-2.481033,0.614765,-0.06592,-26.000977,-50.170898,-284.301758,0,0
8680,2024 10 17,09:01:12.322,-0.432714,-0.409691,0.507048,-0.622747,-2.481033,0.614765,-0.06592,-26.000977,-50.170898,-284.301758,0,0
8681,2024 10 17,09:01:12.330,-0.418789,-0.390511,0.517094,-0.636185,-2.988861,0.822779,0.056642,-23.620605,-79.650879,-349.060059,0,0
8682,2024 10 17,09:01:12.338,-0.402174,-0.365951,0.527757,-0.65254,-3.397076,0.870144,0.15479,-26.062012,-113.40332,-421.813965,0,0
8683,2024 10 17,09:01:12.347,-0.381613,-0.336019,0.539327,-0.671259,-3.658315,0.754418,-0.024415,-25.024414,-135.375977,-501.708984,0,0
8684,2024 10 17,09:01:12.355,-0.359248,-0.300143,0.551044,-0.6908,-3.599231,0.308603,0.219245,-46.569824,-172.912598,-544.616699,0,0
8685,2024 10 17,09:01:12.363,-0.334975,-0.261035,0.56239,-0.709485,-3.1124,-0.270516,-0.144047,-48.828125,-184.020996,-571.472168,0,1
8686,2024 10 17,09:01:12.372,-0.334975,-0.261035,0.56239,-0.709485,-3.1124,-0.270516,-0.144047,-48.828125,-184.020996,-571.472168,0,0
8687,2024 10 17,09:01:12.380,-0.310018,-0.221392,0.571525,-0.726796,-2.85165,-0.360851,0.188482,-33.752441,-172.424316,-556.762695,0,0
8688,2024 10 17,09:01:12.388,-0.28263,-0.185475,0.578095,-0.742648,-3.139744,0.292001,0.118656,3.662109,-138.366699,-546.264648,0,0
8689,2024 10 17,09:01:12.397,-0.255455,-0.150801,0.581813,-0.757295,-2.431715,0.936552,0.674825,10.864258,-132.751465,-521.728516,0,0
8690,2024 10 17,09:01:12.405,-0.227621,-0.120397,0.58452,-0.769434,-1.820856,1.532273,0.595233,22.521973,-86.730957,-491.394043,0,0
8691,2024 10 17,09:01:12.413,-0.19807,-0.095453,0.585162,-0.78054,-0.932646,1.231971,1.459517,54.626465,-17.211914,-459.655762,0,0
8692,2024 10 17,09:01:12.422,-0.19807,-0.095453,0.585162,-0.78054,-0.932646,1.231971,1.459517,54.626465,-17.211914,-459.655762,0,0
8693,2024 10 17,09:01:12.430,-0.165753,-0.07902,0.580614,-0.793202,0.348643,0.697287,1.241249,165.527344,59.082031,-414.672852,0,0
8694,2024 10 17,09:01:12.438,-0.146486,-0.074258,0.566388,-0.807609,1.727103,1.855525,2.388257,249.816895,37.04834,-128.417969,0,0
8695,2024 10 17,09:01:12.447,-0.146832,-0.088351,0.557236,-0.81248,-1.285196,1.643117,-0.900906,135.375977,125.12207,144.287109,0,0
8696,2024 10 17,09:01:12.455,-0.158333,-0.105196,0.543265,-0.817758,-1.15775,1.938536,0.872097,161.376953,35.888672,231.079102,0,0
8697,2024 10 17,09:01:12.463,-0.174404,-0.122687,0.532583,-0.819077,-0.857936,1.66216,0.147465,113.15918,34.057617,265.197754,0,0
8698,2024 10 17,09:01:12.472,-0.174404,-0.122687,0.532583,-0.819077,-0.857936,1.66216,0.147465,113.15918,34.057617,265.197754,0,0
8699,2024 10 17,09:01:12.480,-0.19169,-0.137636,0.524353,-0.818147,-0.425306,1.311075,0.56447,64.575195,21.30127,256.896973,0,0
8700,2024 10 17,09:01:12.488,-0.206791,-0.152787,0.518965,-0.815211,-0.303232,1.039094,0.524918,33.14209,45.471191,238.342285,0,0
8701,2024 10 17,09:01:12.497,-0.219958,-0.168483,0.515686,-0.81074,-0.124516,0.955107,0.506363,14.282227,76.416016,227.478027,0,0
8702,2024 10 17,09:01:12.505,-0.231928,-0.186198,0.514097,-0.804515,-0.101077,0.900906,0.463393,-4.272461,108.032227,234.25293,0,0
8703,2024 10 17,09:01:12.513,-0.243402,-0.206834,0.51368,-0.796309,-0.339854,0.893094,0.438002,-17.822266,147.277832,251.708984,0,0
8704,2024 10 17,09:01:12.522,-0.243402,-0.206834,0.51368,-0.796309,-0.339854,0.893094,0.438002,-17.822266,147.277832,251.708984,0,0
8705,2024 10 17,09:01:12.530,-0.255019,-0.230075,0.513971,-0.786043,-0.582049,0.849635,0.385266,-28.747559,171.936035,271.30127,0,0
8706,2024 10 17,09:01:12.538,-0.267116,-0.255131,0.514467,-0.773874,-0.751488,0.796899,0.310068,-37.109375,189.697266,290.405273,0,0
8707,2024 10 17,09:01:12.547,-0.279908,-0.281334,0.514785,-0.759933,-0.907743,0.722678,0.269539,-44.311523,197.814941,308.532715,0,0
8708,2024 10 17,09:01:12.555,-0.293381,-0.30816,0.514606,-0.744409,-1.087435,0.644063,0.179693,-48.950195,201.599121,323.730469,0,0
8709,2024 10 17,09:01:12.563,-0.307632,-0.334768,0.513514,-0.727734,-1.22074,0.563494,0.124027,-50.048828,194.213867,335.021973,0,0
8710,2024 10 17,09:01:12.572,-0.307632,-0.334768,0.513514,-0.727734,-1.22074,0.563494,0.124027,-50.048828,194.213867,335.021973,0,0
8711,2024 10 17,09:01:12.580,-0.322299,-0.361021,0.511177,-0.710271,-1.334025,0.471694,0.067385,-45.837402,187.866211,343.566895,0,0
8712,2024 10 17,09:01:12.588,-0.337141,-0.386938,0.507208,-0.692355,-1.401898,0.407239,0.036134,-36.254883,179.6875,352.111816,0,0
8713,2024 10 17,09:01:12.597,-0.352119,-0.412728,0.501289,-0.674075,-1.481979,0.396985,0.050295,-23.254395,172.607422,363.647461,0,0
8714,2024 10 17,09:01:12.605,-0.367151,-0.438507,0.493338,-0.655385,-1.61333,0.401868,0.029786,-10.192871,166.015625,375.183105,0,0
8715,2024 10 17,09:01:12.613,-0.382073,-0.464003,0.483435,-0.636406,-1.730522,0.417005,-0.018555,1.77002,157.714844,382.8125,0,0
8716,2024 10 17,09:01:12.622,-0.382073,-0.464003,0.483435,-0.636406,-1.730522,0.417005,-0.018555,1.77002,157.714844,382.8125,0,0
8717,2024 10 17,09:01:12.630,-0.396731,-0.488927,0.471943,-0.61711,-1.788141,0.440931,-0.056154,9.460449,150.878906,387.084961,0,0
8718,2024 10 17,09:01:12.638,-0.410932,-0.513377,0.45936,-0.597133,-1.87701,0.4756,-0.082034,12.573242,150.634766,391.113281,0,0
8719,2024 10 17,09:01:12.647,-0.424922,-0.537288,0.445939,-0.576108,-2.010803,0.512223,-0.050295,10.314941,150.695801,398.132324,0,0
8720,2024 10 17,09:01:12.655,-0.438923,-0.560817,0.431728,-0.553572,-2.2154,0.525407,-0.008301,5.554199,154.296875,409.851074,0,0
8721,2024 10 17,09:01:12.663,-0.453142,-0.583586,0.416679,-0.529593,-2.462966,0.450697,0.096194,-2.197266,151.794434,420.166016,0,0
8722,2024 10 17,09:01:12.672,-0.453142,-0.583586,0.416679,-0.529593,-2.462966,0.450697,0.096194,-2.197266,151.794434,420.166016,0,0
8723,2024 10 17,09:01:12.680,-0.467189,-0.605107,0.400935,-0.504808,-2.626057,0.205084,0.198737,-5.432129,146.179199,421.142578,0,0
8724,2024 10 17,09:01:12.688,-0.480115,-0.625526,0.384865,-0.479673,-2.707602,-0.176275,0.281259,-1.647949,147.888184,414.733887,0,0
8725,2024 10 17,09:01:12.697,-0.491255,-0.645147,0.368821,-0.45434,-2.781823,-0.769066,0.275399,6.225586,153.747559,405.090332,0,0
8726,2024 10 17,09:01:12.705,-0.500306,-0.663976,0.353219,-0.42903,-2.906827,-1.214393,0.17481,13.122559,160.400391,389.648438,0,0
8727,2024 10 17,09:01:12.713,-0.507792,-0.681013,0.338748,-0.404497,-2.947844,-1.581103,-0.026856,10.314941,158.38623,360.900879,0,0
8728,2024 10 17,09:01:12.722,-0.51376,-0.695608,0.326694,-0.38138,-2.900479,-1.989318,-0.167974,-0.061035,157.226563,315.856934,0,0
8729,2024 10 17,09:01:12.730,-0.51376,-0.695608,0.326694,-0.38138,-2.900479,-1.989318,-0.167974,-0.061035,157.226563,315.856934,0,0
8730,2024 10 17,09:01:12.738,-0.518389,-0.707377,0.318187,-0.360067,-2.487869,-2.500076,-0.433119,-15.686035,160.15625,260.559082,0,0
8731,2024 10 17,09:01:12.747,-0.521316,-0.717048,0.314272,-0.339566,-1.872127,-2.861904,-1.209998,-28.381348,183.532715,205.505371,0,0
8732,2024 10 17,09:01:12.755,-0.522522,-0.724693,0.315108,-0.320153,-2.088931,-3.853633,-2.04059,-44.494629,206.054688,146.118164,0,0
8733,2024 10 17,09:01:12.763,-0.521852,-0.730957,0.319625,-0.302014,-4.116825,-4.50502,-2.571856,-28.991699,208.129883,105.895996,0,0
8734,2024 10 17,09:01:12.772,-0.523179,-0.731469,0.321437,-0.296506,-4.137333,-4.656392,-2.412671,-34.301758,11.108398,38.208008,0,0
8735,2024 10 17,09:01:12.780,-0.523179,-0.731469,0.321437,-0.296506,-4.137333,-4.656392,-2.412671,-34.301758,11.108398,38.208008,0,0
8736,2024 10 17,09:01:12.788,-0.527629,-0.72531,0.317959,-0.307301,-1.72222,-4.219855,-0.987335,-18.798828,-162.109375,-27.770996,0,0
8737,2024 10 17,09:01:12.797,-0.512737,-0.728875,0.323549,-0.318053,-11.977416,-4.687643,-2.51326,321.899414,174.804688,-210.754395,0,0
8738,2024 10 17,09:01:12.805,-0.501996,-0.711909,0.335317,-0.358814,0.983428,-0.788598,0.813013,-32.470703,-575.683594,-343.811035,0,0
8739,2024 10 17,09:01:12.813,-0.496678,-0.692726,0.33946,-0.397754,2.505936,2.818934,0.633808,3.662109,-103.57666,-357.36084,0,0
8740,2024 10 17,09:01:12.822,-0.474352,-0.690356,0.368944,-0.402839,-2.820399,2.936613,-0.281259,150.268555,127.197266,-402.648926,1,0
8741,2024 10 17,09:01:12.830,-0.474352,-0.690356,0.368944,-0.402839,-2.820399,2.936613,-0.281259,150.268555,127.197266,-402.648926,0,0
8742,2024 10 17,09:01:12.838,-0.475643,-0.66544,0.391242,-0.421762,-1.026399,-1.388226,-0.054689,-253.417969,-160.095215,-369.750977,0,0
8743,2024 10 17,09:01:12.847,-0.472603,-0.647139,0.415365,-0.430498,-3.049898,-1.09769,-1.238319,-124.633789,12.329102,-295.837402,0,0
8744,2024 10 17,09:01:12.855,-0.471525,-0.632084,0.425697,-0.443753,-1.926328,-0.758324,-0.045412,-37.29248,-140.075684,-192.504883,0,0
8745,2024 10 17,09:01:12.863,-0.469397,-0.621019,0.427462,-0.459649,-1.609424,0.395032,0.837916,27.648926,-147.827148,-149.169922,0,0
8746,2024 10 17,09:01:12.872,-0.472836,-0.608532,0.428681,-0.471538,-1.33549,0.031251,0.866726,-66.345215,-167.724609,-104.125977,0,0
8747,2024 10 17,09:01:12.880,-0.472836,-0.608532,0.428681,-0.471538,-1.33549,0.031251,0.866726,-66.345215,-167.724609,-104.125977,0,0
8748,2024 10 17,09:01:12.888,-0.480172,-0.595337,0.429528,-0.480119,-1.057161,-0.238289,-0.254402,-82.885742,-168.151855,-69.702148,0,0
8749,2024 10 17,09:01:12.897,-0.486856,-0.583001,0.427513,-0.490219,-0.874538,0.091311,-0.026368,-41.687012,-177.429199,-62.62207,0,0
8750,2024 10 17,09:01:12.905,-0.49321,-0.571743,0.425196,-0.499061,-1.047884,0.252937,0.276376,-59.997559,-164.367676,-49.194336,0,0
8751,2024 10 17,09:01:12.913,-0.501301,-0.560049,0.424398,-0.504905,-0.812525,0.054201,-0.127934,-91.796875,-142.63916,-36.437988,0,0
8752,2024 10 17,09:01:12.922,-0.507764,-0.550215,0.423972,-0.509595,-0.63625,-0.105472,-0.494156,-60.48584,-111.938477,-33.874512,0,0
8753,2024 10 17,09:01:12.930,-0.507764,-0.550215,0.423972,-0.509595,-0.63625,-0.105472,-0.494156,-60.48584,-111.938477,-33.874512,0,0
8754,2024 10 17,09:01:12.938,-0.511823,-0.54359,0.423167,-0.513301,-0.707541,-0.002441,-0.276376,-40.405273,-74.829102,-19.714355,0,0
8755,2024 10 17,09:01:12.947,-0.514512,-0.539476,0.422527,-0.515474,-0.814478,0.182134,-0.129398,-18.554688,-46.813965,-11.291504,0,0
8756,2024 10 17,09:01:12.955,-0.5162,-0.536679,0.422367,-0.516836,-0.958525,0.11182,-0.061037,-21.240234,-31.555176,-11.413574,0,0
8757,2024 10 17,09:01:12.963,-0.517059,-0.534474,0.422236,-0.518367,-0.870144,0.17481,-0.119144,-5.432129,-24.353027,-14.526367,0,0
8758,2024 10 17,09:01:12.972,-0.516985,-0.533121,0.422357,-0.519734,-0.955107,0.125004,-0.01709,-0.976563,-13.61084,-17.089844,0,0
8759,2024 10 17,09:01:12.980,-0.516985,-0.533121,0.422357,-0.519734,-0.955107,0.125004,-0.01709,-0.976563,-13.61084,-17.089844,0,0
8760,2024 10 17,09:01:12.988,-0.516381,-0.531982,0.422416,-0.521452,-0.917508,0.192389,-0.034181,6.286621,-13.73291,-20.324707,0,0
8761,2024 10 17,09:01:12.997,-0.515514,-0.531011,0.422693,-0.523071,-0.961455,0.179693,-0.054689,6.958008,-8.850098,-22.216797,0,0
8762,2024 10 17,09:01:13.005,-0.514558,-0.530029,0.423072,-0.524699,-0.933134,0.156255,-0.060549,4.272461,-9.277344,-22.644043,0,0
8763,2024 10 17,09:01:13.013,-0.513843,-0.528894,0.423604,-0.526114,-0.914579,0.140629,-0.119144,-0.915527,-8.666992,-21.118164,0,0
8764,2024 10 17,09:01:13.022,-0.513269,-0.527809,0.424219,-0.527267,-0.928251,0.171392,-0.079104,-1.403809,-6.225586,-18.859863,0,0
8765,2024 10 17,09:01:13.030,-0.513269,-0.527809,0.424219,-0.527267,-0.928251,0.171392,-0.079104,-1.403809,-6.225586,-18.859863,0,0
8766,2024 10 17,09:01:13.038,-0.512992,-0.526672,0.424891,-0.528132,-0.91409,0.144536,-0.079592,-4.760742,-6.896973,-16.235352,0,0
8767,2024 10 17,09:01:13.047,-0.512786,-0.525601,0.425593,-0.528834,-0.93997,0.132817,-0.077639,-6.530762,-4.882813,-14.648438,0,0
8768,2024 10 17,09:01:13.055,-0.512563,-0.52465,0.426245,-0.529468,-0.955107,0.136723,-0.049318,-4.455566,-4.821777,-13.671875,0,0
8769,2024 10 17,09:01:13.063,-0.5124,-0.523695,0.426784,-0.530137,-0.952178,0.12598,-0.053713,-4.638672,-6.286621,-12.878418,0,0
8770,2024 10 17,09:01:13.072,-0.512223,-0.522773,0.42722,-0.530866,-0.935087,0.132817,-0.06006,-3.540039,-6.652832,-12.512207,0,0
8771,2024 10 17,09:01:13.080,-0.512098,-0.52183,0.42765,-0.531568,-0.910184,0.144536,-0.106937,-4.02832,-6.652832,-12.268066,0,0
8772,2024 10 17,09:01:13.088,-0.512098,-0.52183,0.42765,-0.531568,-0.910184,0.144536,-0.106937,-4.02832,-6.652832,-12.268066,0,0
8773,2024 10 17,09:01:13.097,-0.511944,-0.520921,0.428238,-0.532134,-0.922391,0.153813,-0.117191,-5.859375,-3.662109,-12.634277,0,0
8774,2024 10 17,09:01:13.105,-0.511783,-0.52001,0.429081,-0.532501,-0.935575,0.145024,-0.082522,-8.361816,-1.098633,-13.061523,0,0
8775,2024 10 17,09:01:13.113,-0.511552,-0.519081,0.430154,-0.532764,-0.955596,0.13477,-0.073733,-10.009766,0.305176,-14.892578,0,0
8776,2024 10 17,09:01:13.122,-0.511321,-0.518048,0.431289,-0.533072,-0.976104,0.13184,-0.051759,-9.765625,-0.244141,-15.869141,0,0
8777,2024 10 17,09:01:13.130,-0.510885,-0.516974,0.432459,-0.533585,-0.95999,0.121097,-0.087405,-7.93457,-1.281738,-19.042969,0,0
8778,2024 10 17,09:01:13.138,-0.510885,-0.516974,0.432459,-0.533585,-0.95999,0.121097,-0.087405,-7.93457,-1.281738,-19.042969,0,0
8779,2024 10 17,09:01:13.147,-0.510297,-0.515838,0.43357,-0.534345,-0.942412,0.110355,-0.061525,-5.67627,-1.77002,-20.629883,0,0
8780,2024 10 17,09:01:13.155,-0.509564,-0.514825,0.434669,-0.535129,-0.934599,0.105472,-0.10303,-4.150391,-0.793457,-21.118164,0,0
8781,2024 10 17,09:01:13.163,-0.508727,-0.513878,0.435669,-0.536021,-0.93704,0.115726,-0.075686,-0.976563,-0.305176,-21.30127,0,0
8782,2024 10 17,09:01:13.172,-0.507781,-0.51306,0.436623,-0.536925,-0.935575,0.084964,-0.099612,-0.244141,-0.366211,-20.935059,0,0
8783,2024 10 17,09:01:13.180,-0.506709,-0.512352,0.437434,-0.537953,-0.943388,0.087893,-0.06006,2.685547,-0.183105,-21.179199,0,0
8784,2024 10 17,09:01:13.188,-0.506709,-0.512352,0.437434,-0.537953,-0.943388,0.087893,-0.06006,2.685547,-0.183105,-21.179199,0,0
8785,2024 10 17,09:01:13.197,-0.505535,-0.511684,0.438108,-0.539142,-0.953154,0.10303,-0.057131,6.04248,-1.831055,-22.094727,0,0
8786,2024 10 17,09:01:13.205,-0.504299,-0.510964,0.43862,-0.540565,-0.971221,0.101566,-0.057619,7.507324,-4.089355,-23.071289,0,0
8787,2024 10 17,09:01:13.213,-0.502816,-0.510288,0.439119,-0.542179,-1.000031,0.109378,-0.055666,10.070801,-3.417969,-25.756836,0,0
8788,2024 10 17,09:01:13.222,-0.501175,-0.509478,0.439574,-0.544087,-1.007355,0.101566,-0.06885,12.634277,-6.225586,-29.418945,0,0
8789,2024 10 17,09:01:13.230,-0.499238,-0.508531,0.440043,-0.54637,-0.997589,0.116703,-0.097171,15.319824,-6.713867,-34.423828,0,0
8790,2024 10 17,09:01:13.238,-0.499238,-0.508531,0.440043,-0.54637,-0.997589,0.116703,-0.097171,15.319824,-6.713867,-34.423828,0,0
8791,2024 10 17,09:01:13.247,-0.496769,-0.507618,0.44077,-0.548877,-1.051302,0.142094,-0.099124,17.76123,-2.441406,-40.893555,0,0
8792,2024 10 17,09:01:13.255,-0.493602,-0.506656,0.442008,-0.551621,-1.1348,0.154302,-0.112308,20.141602,2.380371,-51.269531,0,0
8793,2024 10 17,09:01:13.263,-0.489548,-0.505449,0.443782,-0.554907,-1.217811,0.169439,-0.059572,22.216797,3.78418,-64.880371,0,0
8794,2024 10 17,09:01:13.272,-0.484974,-0.503519,0.446057,-0.55884,-1.285195,0.196295,-0.054201,20.080566,-0.732422,-78.552246,0,0
8795,2024 10 17,09:01:13.280,-0.480212,-0.500567,0.448874,-0.563331,-1.352092,0.240242,-0.079104,13.305664,-6.286621,-91.064453,0,0
8796,2024 10 17,09:01:13.288,-0.480212,-0.500567,0.448874,-0.563331,-1.352092,0.240242,-0.079104,13.305664,-6.286621,-91.064453,0,0
8797,2024 10 17,09:01:13.297,-0.474704,-0.496693,0.45269,-0.568352,-1.428755,0.278817,-0.142582,12.084961,-3.662109,-112.548828,0,0
8798,2024 10 17,09:01:13.305,-0.468255,-0.491717,0.457454,-0.574184,-1.450728,0.268075,-0.033692,7.507324,-8.056641,-133.483887,0,0
8799,2024 10 17,09:01:13.313,-0.461118,-0.485427,0.463154,-0.580705,-1.539109,0.294931,-0.030274,2.01416,-11.291504,-154.724121,0,0
8800,2024 10 17,09:01:13.322,-0.452962,-0.47763,0.469772,-0.588226,-1.64214,0.330088,0.008301,-1.037598,-18.737793,-181.70166,0,0
8801,2024 10 17,09:01:13.330,-0.443911,-0.467724,0.477362,-0.596912,-1.743706,0.396985,0.075686,-9.094238,-29.724121,-211.425781,0,0
8802,2024 10 17,09:01:13.338,-0.443911,-0.467724,0.477362,-0.596912,-1.743706,0.396985,0.075686,-9.094238,-29.724121,-211.425781,0,0
8803,2024 10 17,09:01:13.347,-0.433743,-0.455525,0.486253,-0.606565,-2.009339,0.517106,0.040529,-17.39502,-37.475586,-246.21582,0,0
8804,2024 10 17,09:01:13.355,-0.421502,-0.440762,0.496574,-0.61764,-2.322825,0.633808,0.049806,-20.812988,-43.579102,-294.250488,0,0
8805,2024 10 17,09:01:13.363,-0.406172,-0.422844,0.508453,-0.630637,-2.852138,0.802271,-0.07178,-18.249512,-53.344727,-356.933594,0,0
8806,2024 10 17,09:01:13.372,-0.388351,-0.399563,0.521255,-0.646395,-3.186621,0.916532,0.095218,-27.832031,-92.529297,-426.269531,0,0
8807,2024 10 17,09:01:13.380,-0.367632,-0.37097,0.535535,-0.663649,-3.486434,0.810572,-0.07178,-37.475586,-110.412598,-495.544434,0,0
8808,2024 10 17,09:01:13.388,-0.367632,-0.37097,0.535535,-0.663649,-3.486434,0.810572,-0.07178,-37.475586,-110.412598,-495.544434,0,0
8809,2024 10 17,09:01:13.397,-0.344942,-0.337055,0.550548,-0.6814,-3.305277,0.492203,0.04297,-62.316895,-141.235352,-539.672852,0,0
8810,2024 10 17,09:01:13.405,-0.320477,-0.300105,0.565484,-0.698183,-2.807214,-0.200201,-0.327158,-59.631348,-143.737793,-566.223145,0,1
8811,2024 10 17,09:01:13.413,-0.29397,-0.262962,0.578073,-0.714327,-2.814539,-0.162603,0.21778,-34.484863,-127.868652,-558.288574,0,0
8812,2024 10 17,09:01:13.422,-0.267088,-0.22769,0.589008,-0.727936,-3.259865,0.125492,0.04004,-35.766602,-123.718262,-541.931152,0,0
8813,2024 10 17,09:01:13.430,-0.240705,-0.191964,0.596366,-0.741322,-2.583087,0.857448,0.752464,-6.347656,-134.887695,-528.930664,0,0
8814,2024 10 17,09:01:13.438,-0.240705,-0.191964,0.596366,-0.741322,-2.583087,0.857448,0.752464,-6.347656,-134.887695,-528.930664,0,0
8815,2024 10 17,09:01:13.447,-0.214173,-0.159173,0.601837,-0.752719,-2.296457,1.532273,0.48732,2.319336,-105.712891,-502.258301,0,0
8816,2024 10 17,09:01:13.455,-0.186816,-0.129035,0.605187,-0.763019,-1.612842,1.915097,1.310099,27.038574,-75.866699,-484.619141,0,0
8817,2024 10 17,09:01:13.463,-0.156688,-0.10355,0.606111,-0.772888,-0.900906,0.996124,0.979522,68.481445,-18.554688,-472.839355,0,0
8818,2024 10 17,09:01:13.472,-0.131381,-0.083236,0.599029,-0.785478,2.18952,0.34669,2.11774,179.443359,-53.161621,-317.260742,0,0
8819,2024 10 17,09:01:13.480,-0.129086,-0.080516,0.590906,-0.792265,0.678243,1.735893,-0.108402,59.753418,25.939941,55.664063,0,0
