frame,date,time,quaternion_x,quaternion_y,quaternion_z,quaternion_w,accel_x,accel_y,accel_z,gyro_x,gyro_y,gyro_z,HS,TO
7911,2024 10 17,09:01:05.914,-0.107515,0.389049,0.411866,0.816975,-0.867702,0.184088,-0.313974,29.968262,-106.994629,325.073242,0,0
7912,2024 10 17,09:01:05.922,-0.127022,0.40902,0.403255,0.808674,-0.942412,0.123539,-0.264168,16.357422,-121.948242,320.556641,0,0
7913,2024 10 17,09:01:05.930,-0.144894,0.42938,0.393679,0.799785,-1.002472,0.105472,-0.256844,2.441406,-134.216309,312.255859,0,0
7914,2024 10 17,09:01:05.939,-0.161116,0.450102,0.383355,0.790246,-1.185095,0.094241,-0.166021,-9.460449,-146.54541,303.344727,0,0
7915,2024 10 17,09:01:05.947,-0.161116,0.450102,0.383355,0.790246,-1.185095,0.094241,-0.166021,-9.460449,-146.54541,303.344727,0,0
7916,2024 10 17,09:01:05.955,-0.175985,0.470808,0.372343,0.780211,-1.373089,0.104984,-0.064455,-20.080566,-151.977539,295.837402,0,0
7917,2024 10 17,09:01:05.964,-0.190048,0.491112,0.360531,0.769875,-1.488815,0.135746,0.001465,-28.686523,-150.817871,293.09082,0,0
7918,2024 10 17,09:01:05.972,-0.203841,0.510926,0.347842,0.759216,-1.581591,0.136235,0.06006,-34.545898,-147.338867,295.532227,0,0
7919,2024 10 17,09:01:05.980,-0.217565,0.530246,0.334197,0.748209,-1.638234,0.129887,0.081545,-40.771484,-143.859863,299.926758,0,0
7920,2024 10 17,09:01:05.989,-0.231107,0.549228,0.319738,0.736686,-1.717826,0.099124,0.088382,-46.020508,-143.310547,303.222656,0,0
7921,2024 10 17,09:01:05.997,-0.231107,0.549228,0.319738,0.736686,-1.717826,0.099124,0.088382,-46.020508,-143.310547,303.222656,0,0
7922,2024 10 17,09:01:06.005,-0.244194,0.567845,0.304639,0.724649,-1.812067,0.07178,0.06885,-51.452637,-144.226074,302.91748,0,0
7923,2024 10 17,09:01:06.014,-0.25654,0.586111,0.289203,0.712055,-1.918027,0.032716,0.068361,-56.091309,-147.033691,298.828125,0,0
7924,2024 10 17,09:01:06.022,-0.26798,0.603893,0.273651,0.69901,-2.024964,-0.005371,0.073733,-59.997559,-148.193359,292.175293,0,0
7925,2024 10 17,09:01:06.030,-0.278473,0.621126,0.258139,0.68558,-2.101138,-0.067385,0.090335,-63.354492,-150.390625,284.301758,0,0
7926,2024 10 17,09:01:06.039,-0.28803,0.637773,0.242905,0.671775,-2.141179,-0.143559,0.101077,-64.147949,-152.34375,274.841309,0,0
7927,2024 10 17,09:01:06.047,-0.28803,0.637773,0.242905,0.671775,-2.141179,-0.143559,0.101077,-64.147949,-152.34375,274.841309,0,0
7928,2024 10 17,09:01:06.055,-0.296623,0.653864,0.228297,0.657538,-2.183661,-0.242683,0.122074,-62.866211,-157.104492,263.183594,0,0
7929,2024 10 17,09:01:06.064,-0.30426,0.669452,0.214556,0.642826,-2.220771,-0.36671,0.129887,-60.36377,-162.963867,251.037598,0,0
7930,2024 10 17,09:01:06.072,-0.311158,0.684626,0.201443,0.627606,-2.219794,-0.49855,0.099612,-59.020996,-167.785645,244.445801,0,0
7931,2024 10 17,09:01:06.080,-0.317598,0.699522,0.188739,0.611702,-2.189032,-0.720237,0.139164,-56.945801,-174.560547,241.394043,0,0
7932,2024 10 17,09:01:06.089,-0.323381,0.71412,0.176667,0.595186,-2.11774,-1.084506,0.236335,-55.480957,-181.945801,233.337402,0,0
7933,2024 10 17,09:01:06.097,-0.323381,0.71412,0.176667,0.595186,-2.11774,-1.084506,0.236335,-55.480957,-181.945801,233.337402,0,0
7934,2024 10 17,09:01:06.105,-0.327927,0.728426,0.165999,0.57819,-2.017151,-1.468795,0.396985,-53.771973,-193.908691,213.500977,0,0
7935,2024 10 17,09:01:06.114,-0.330621,0.742489,0.157905,0.560773,-1.823786,-1.800348,0.777367,-49.438477,-211.730957,179.443359,0,0
7936,2024 10 17,09:01:06.122,-0.331358,0.756172,0.153307,0.54305,-1.581591,-2.10065,1.283242,-40.405273,-230.712891,137.756348,0,0
7937,2024 10 17,09:01:06.130,-0.330772,0.769248,0.152301,0.525025,-1.483444,-2.496658,1.843318,-25.390625,-247.558594,101.928711,0,0
7938,2024 10 17,09:01:06.139,-0.329924,0.781087,0.154,0.507284,-1.906796,-2.895596,2.23542,-6.469727,-243.95752,78.00293,0,0
7939,2024 10 17,09:01:06.147,-0.329924,0.781087,0.154,0.507284,-1.906796,-2.895596,2.23542,-6.469727,-243.95752,78.00293,0,0
7940,2024 10 17,09:01:06.155,-0.329854,0.789647,0.156975,0.492964,-2.47615,-3.148045,2.415113,15.136719,-185.180664,54.382324,0,0
7941,2024 10 17,09:01:06.164,-0.326906,0.794969,0.160106,0.485307,-11.271829,-5.361003,-0.286142,-53.100586,-127.624512,-12.939453,0,0
7942,2024 10 17,09:01:06.172,-0.316041,0.791635,0.173819,0.493172,-4.132938,-4.967437,3.572375,33.813477,152.404785,-191.711426,0,0
7943,2024 10 17,09:01:06.180,-0.303083,0.770166,0.174791,0.533323,0.172857,-0.368176,-1.734428,-121.398926,481.018066,-245.056152,1,0
7944,2024 10 17,09:01:06.189,-0.289324,0.759236,0.179783,0.554554,-0.475112,1.522996,-0.309091,-78.552246,105.529785,-216.491699,0,0
7945,2024 10 17,09:01:06.197,-0.276463,0.753249,0.18765,0.566544,-0.475112,1.522996,-0.309091,-78.552246,105.529785,-216.491699,0,0
7946,2024 10 17,09:01:06.205,-0.276463,0.753249,0.18765,0.566544,-1.954161,0.680197,0.843287,-47.729492,132.69043,-204.406738,0,0
7947,2024 10 17,09:01:06.214,-0.272167,0.7388,0.195845,0.584589,-1.024934,-0.144047,-0.058596,47.119141,196.838379,-180.236816,0,0
7948,2024 10 17,09:01:06.222,-0.27201,0.726875,0.205783,0.596085,-1.740776,-0.408704,0.563982,75.500488,145.690918,-131.591797,0,0
7949,2024 10 17,09:01:06.230,-0.273704,0.714051,0.20965,0.609314,-1.213416,-0.005371,-0.454604,51.086426,189.941406,-74.401855,0,0
7950,2024 10 17,09:01:06.239,-0.278661,0.703026,0.213675,0.618422,-1.036164,0.200201,0.116703,92.407227,140.441895,-48.88916,0,0
7951,2024 10 17,09:01:06.247,-0.28621,0.691828,0.218569,0.625848,-1.104038,-0.152348,-0.125492,114.440918,145.141602,-32.714844,0,0
7952,2024 10 17,09:01:06.255,-0.28621,0.691828,0.218569,0.625848,-1.104038,-0.152348,-0.125492,114.440918,145.141602,-32.714844,0,0
7953,2024 10 17,09:01:06.264,-0.293292,0.680965,0.222072,0.633206,-0.971709,-0.060549,-0.169927,91.796875,138.73291,-26.000977,0,0
7954,2024 10 17,09:01:06.272,-0.299075,0.671676,0.224869,0.639406,-1.047395,0.062502,-0.086917,79.89502,117.919922,-22.460938,0,0
7955,2024 10 17,09:01:06.280,-0.305056,0.662814,0.22751,0.64487,-0.964385,-0.006348,0.065432,81.787109,111.938477,-15.991211,0,0
7956,2024 10 17,09:01:06.289,-0.310322,0.65507,0.229619,0.649507,-0.826685,-0.096194,0.12891,62.988281,92.285156,-13.000488,0,0
7957,2024 10 17,09:01:06.297,-0.313144,0.649838,0.230947,0.652927,-0.864772,0.02002,0.109378,35.766602,58.166504,-14.282227,0,0
7958,2024 10 17,09:01:06.305,-0.313144,0.649838,0.230947,0.652927,-0.864772,0.02002,0.109378,35.766602,58.166504,-14.282227,0,0
7959,2024 10 17,09:01:06.314,-0.31467,0.646466,0.232112,0.655125,-0.946318,0.056642,0.086917,23.071289,36.987305,-13.85498,0,0
7960,2024 10 17,09:01:06.322,-0.315426,0.644035,0.233109,0.6568,-0.964385,0.067385,0.06006,14.282227,26.245117,-14.709473,0,0
7961,2024 10 17,09:01:06.330,-0.31544,0.642335,0.23399,0.658143,-1.004425,0.075686,0.031251,6.896973,17.39502,-16.235352,0,0
7962,2024 10 17,09:01:06.339,-0.315111,0.640983,0.234852,0.659311,-1.07181,0.056642,-0.020508,6.347656,15.075684,-16.662598,0,0
7963,2024 10 17,09:01:06.347,-0.314697,0.639508,0.235605,0.660671,-1.063509,0.089358,-0.002441,3.234863,18.798828,-17.63916,0,0
7964,2024 10 17,09:01:06.355,-0.314697,0.639508,0.235605,0.660671,-1.063509,0.089358,-0.002441,3.234863,18.798828,-17.63916,0,0
7965,2024 10 17,09:01:06.364,-0.314362,0.637845,0.236283,0.662193,-1.05179,0.06006,0.004883,4.760742,21.362305,-17.211914,0,0
7966,2024 10 17,09:01:06.372,-0.314154,0.636074,0.236878,0.663781,-1.026399,0.070803,0.041993,5.79834,23.071289,-15.930176,0,0
7967,2024 10 17,09:01:06.380,-0.314122,0.634303,0.237457,0.665283,-0.990753,0.051271,0.066897,6.103516,21.66748,-14.221191,0,0
7968,2024 10 17,09:01:06.389,-0.313984,0.632804,0.237987,0.666584,-1.003937,0.052248,0.044435,3.90625,18.005371,-13.427734,0,0
7969,2024 10 17,09:01:06.397,-0.31362,0.631529,0.238444,0.667801,-0.981964,0.037599,0.051759,1.342773,15.319824,-13.977051,0,0
7970,2024 10 17,09:01:06.405,-0.31362,0.631529,0.238444,0.667801,-0.981964,0.037599,0.051759,1.342773,15.319824,-13.977051,0,0
7971,2024 10 17,09:01:06.414,-0.312928,0.630562,0.238834,0.668899,-0.975127,0.044923,0.059084,-2.441406,10.864258,-14.892578,0,0
7972,2024 10 17,09:01:06.422,-0.311892,0.629908,0.239223,0.669859,-0.976592,0.057131,0.059572,-5.493164,7.080078,-16.174316,0,0
7973,2024 10 17,09:01:06.430,-0.310647,0.629416,0.239604,0.670764,-0.974151,0.057131,0.062014,-6.896973,5.187988,-17.150879,0,0
7974,2024 10 17,09:01:06.439,-0.309347,0.628969,0.240058,0.671621,-0.971221,0.053224,0.08594,-6.652832,4.211426,-17.700195,0,0
7975,2024 10 17,09:01:06.447,-0.308025,0.628584,0.240577,0.672402,-0.987335,0.043947,0.054201,-6.225586,2.685547,-17.700195,0,0
7976,2024 10 17,09:01:06.455,-0.308025,0.628584,0.240577,0.672402,-0.987335,0.043947,0.054201,-6.225586,2.685547,-17.700195,0,0
7977,2024 10 17,09:01:06.464,-0.306684,0.628241,0.241096,0.67315,-1.017121,0.039064,0.031739,-6.347656,2.868652,-17.578125,0,0
7978,2024 10 17,09:01:06.472,-0.305407,0.627739,0.241552,0.674035,-1.016144,0.051759,0.056154,-6.286621,5.981445,-17.63916,0,0
7979,2024 10 17,09:01:06.480,-0.304272,0.627071,0.242059,0.674987,-1.012726,0.047853,0.068361,-3.90625,7.568359,-17.700195,0,0
7980,2024 10 17,09:01:06.489,-0.303265,0.626261,0.242663,0.675975,-1.016633,0.045412,0.079592,-1.831055,8.850098,-18.005371,0,0
7981,2024 10 17,09:01:06.497,-0.302388,0.625304,0.243335,0.677011,-0.997589,0.038087,0.086917,-0.427246,10.437012,-18.127441,0,0
7982,2024 10 17,09:01:06.505,-0.302388,0.625304,0.243335,0.677011,-0.997589,0.038087,0.086917,-0.427246,10.437012,-18.127441,0,0
7983,2024 10 17,09:01:06.514,-0.301552,0.624282,0.244055,0.678068,-0.978545,0.013672,0.098148,0.0,10.498047,-18.188477,0,0
7984,2024 10 17,09:01:06.522,-0.300614,0.623398,0.244725,0.679055,-0.93704,0.031251,0.121586,-1.281738,8.422852,-17.822266,0,0
7985,2024 10 17,09:01:06.530,-0.299632,0.622735,0.245454,0.679834,-0.993194,0.030274,0.091311,-1.159668,4.150391,-17.63916,0,0
7986,2024 10 17,09:01:06.539,-0.298715,0.622036,0.246307,0.680568,-1.00589,0.043947,0.11475,1.159668,5.92041,-17.578125,0,0
7987,2024 10 17,09:01:06.547,-0.29794,0.621236,0.247255,0.681295,-0.9888,0.053713,0.101077,2.685547,5.065918,-17.76123,0,0
7988,2024 10 17,09:01:06.555,-0.29794,0.621236,0.247255,0.681295,-0.9888,0.053713,0.101077,2.685547,5.065918,-17.76123,0,0
7989,2024 10 17,09:01:06.564,-0.297214,0.620493,0.248523,0.681827,-1.051302,0.039552,0.116214,6.591797,3.234863,-19.226074,0,0
7990,2024 10 17,09:01:06.572,-0.296584,0.619488,0.249985,0.682481,-1.096713,0.029298,0.057131,8.239746,6.225586,-21.30127,0,0
7991,2024 10 17,09:01:06.580,-0.295826,0.6183,0.251645,0.683277,-1.087435,0.026856,0.095706,9.521484,8.056641,-25.085449,0,0
7992,2024 10 17,09:01:06.589,-0.29493,0.616867,0.253488,0.684277,-1.11478,0.047853,0.084964,9.521484,10.253906,-28.808594,0,0
7993,2024 10 17,09:01:06.597,-0.293781,0.615168,0.255584,0.68552,-1.12064,0.037599,0.109867,10.620117,12.084961,-34.729004,0,0
7994,2024 10 17,09:01:06.605,-0.293781,0.615168,0.255584,0.68552,-1.12064,0.037599,0.109867,10.620117,12.084961,-34.729004,0,0
7995,2024 10 17,09:01:06.614,-0.292012,0.61351,0.257961,0.686871,-1.150914,0.02295,0.087405,7.507324,9.399414,-41.809082,0,0
7996,2024 10 17,09:01:06.622,-0.289402,0.611908,0.260678,0.688376,-1.257851,0.035157,0.070315,2.319336,5.493164,-52.734375,0,0
7997,2024 10 17,09:01:06.630,-0.285919,0.610037,0.263705,0.690337,-1.296915,-0.000488,0.041993,-0.732422,10.437012,-63.537598,0,0
7998,2024 10 17,09:01:06.639,-0.281343,0.607879,0.267057,0.692828,-1.371624,0.062014,0.079592,-8.605957,9.094238,-78.918457,0,0
7999,2024 10 17,09:01:06.647,-0.275828,0.605355,0.270984,0.695724,-1.416547,0.072268,0.092776,-7.263184,12.329102,-91.85791,0,0
8000,2024 10 17,09:01:06.655,-0.270075,0.601882,0.275463,0.699226,-1.432173,0.100101,0.123539,-1.831055,23.498535,-102.111816,0,0
8001,2024 10 17,09:01:06.664,-0.270075,0.601882,0.275463,0.699226,-1.432173,0.100101,0.123539,-1.831055,23.498535,-102.111816,0,0
8002,2024 10 17,09:01:06.672,-0.264248,0.59727,0.28072,0.703305,-1.460982,0.121586,0.124516,4.699707,31.860352,-114.990234,0,0
8003,2024 10 17,09:01:06.680,-0.257639,0.592053,0.287061,0.707595,-1.462935,0.129887,0.172857,9.94873,31.12793,-132.202148,0,0
8004,2024 10 17,09:01:06.688,-0.250253,0.586095,0.29455,0.712114,-1.53032,0.187506,0.218757,15.075684,33.508301,-149.597168,0,0
8005,2024 10 17,09:01:06.697,-0.241882,0.579279,0.303398,0.716853,-1.632862,0.167486,0.176763,19.348145,34.301758,-172.729492,0,0
8006,2024 10 17,09:01:06.705,-0.232103,0.571231,0.313392,0.722225,-1.745659,0.187994,0.132817,23.071289,41.992188,-198.730469,0,0
8007,2024 10 17,09:01:06.713,-0.232103,0.571231,0.313392,0.722225,-1.745659,0.187994,0.132817,23.071289,41.992188,-198.730469,0,0
8008,2024 10 17,09:01:06.722,-0.220679,0.561876,0.324678,0.728135,-1.944884,0.228523,0.007813,22.094727,47.668457,-228.45459,0,0
8009,2024 10 17,09:01:06.730,-0.207089,0.550823,0.337097,0.734897,-2.056215,0.254402,-0.082522,17.76123,59.326172,-264.709473,0,0
8010,2024 10 17,09:01:06.738,-0.190914,0.537693,0.350584,0.74265,-2.259835,0.362804,-0.195807,11.59668,67.382813,-306.335449,0,0
8011,2024 10 17,09:01:06.747,-0.171294,0.522935,0.365703,0.750639,-2.506912,0.54445,-0.058107,7.385254,67.810059,-355.46875,0,0
8012,2024 10 17,09:01:06.755,-0.148737,0.505155,0.382519,0.759194,-2.907315,0.595233,0.097171,9.521484,83.618164,-407.836914,0,0
8013,2024 10 17,09:01:06.763,-0.148737,0.505155,0.382519,0.759194,-2.907315,0.595233,0.097171,9.521484,83.618164,-407.836914,0,0
8014,2024 10 17,09:01:06.772,-0.123947,0.483014,0.400886,0.768521,-3.114841,0.558611,0.115726,16.784668,118.95752,-457.275391,0,0
8015,2024 10 17,09:01:06.780,-0.097268,0.456463,0.420748,0.777915,-3.348247,0.391614,0.2837,24.841309,143.310547,-501.464844,0,0
8016,2024 10 17,09:01:06.788,-0.069915,0.425974,0.441863,0.786394,-3.375591,0.004883,0.009766,42.84668,172.302246,-529.174805,0,0
8017,2024 10 17,09:01:06.797,-0.042706,0.392661,0.462649,0.793693,-3.120701,-0.059572,0.036622,42.297363,191.467285,-533.26416,0,1
8018,2024 10 17,09:01:06.805,-0.016475,0.357122,0.481464,0.80024,-2.826746,0.192877,-0.529801,32.470703,212.95166,-523.193359,0,0
8019,2024 10 17,09:01:06.813,-0.016475,0.357122,0.481464,0.80024,-2.826746,0.192877,-0.529801,32.470703,212.95166,-523.193359,0,0
8020,2024 10 17,09:01:06.822,0.009221,0.321475,0.497803,0.805457,-2.717856,0.499527,-0.430189,19.226074,207.092285,-510.986328,0,0
8021,2024 10 17,09:01:06.830,0.035454,0.285634,0.51212,0.809252,-1.883847,1.194372,-0.984405,4.089355,199.279785,-510.314941,0,0
8022,2024 10 17,09:01:06.838,0.061148,0.253096,0.525239,0.81014,-2.125065,0.840358,-0.993194,22.827148,148.620605,-473.815918,0,0
8023,2024 10 17,09:01:06.847,0.088405,0.224291,0.535789,0.809202,-1.845271,1.256874,-1.038606,-8.483887,107.910156,-470.458984,0,0
8024,2024 10 17,09:01:06.855,0.115805,0.197542,0.541989,0.808588,0.500015,0.918973,-2.483474,-48.156738,79.040527,-426.513672,0,0
8025,2024 10 17,09:01:06.863,0.115805,0.197542,0.541989,0.808588,0.500015,0.918973,-2.483474,-48.156738,79.040527,-426.513672,0,0
8026,2024 10 17,09:01:06.872,0.135431,0.179669,0.542664,0.809254,2.95175,1.051302,-0.89114,-92.041016,29.35791,-224.67041,0,0
8027,2024 10 17,09:01:06.880,0.139968,0.179019,0.535025,0.813701,0.572283,1.636769,-0.170904,-111.51123,-33.325195,53.588867,0,0
8028,2024 10 17,09:01:06.888,0.126788,0.189902,0.524434,0.820263,-0.101566,1.627491,-0.545427,-93.505859,-31.921387,269.40918,0,0
8029,2024 10 17,09:01:06.897,0.10246,0.208792,0.513438,0.826008,-0.866237,1.253456,0.107425,-38.085938,-28.015137,398.071289,0,0
8030,2024 10 17,09:01:06.905,0.072346,0.228683,0.503328,0.830139,-1.03177,0.804712,-0.417493,-21.179199,-6.469727,427.856445,0,0
8031,2024 10 17,09:01:06.913,0.072346,0.228683,0.503328,0.830139,-1.03177,0.804712,-0.417493,-21.179199,-6.469727,427.856445,0,0
8032,2024 10 17,09:01:06.922,0.043048,0.248184,0.493825,0.832279,-0.976104,0.405286,-0.515152,-8.117676,-22.399902,402.832031,0,0
8033,2024 10 17,09:01:06.930,0.01829,0.266609,0.484573,0.832931,-0.87698,0.134281,-0.827662,-16.296387,-40.283203,347.900391,0,0
8034,2024 10 17,09:01:06.938,-0.001156,0.285053,0.475237,0.832402,-0.671896,-0.018067,-0.796411,-31.616211,-76.660156,303.161621,0,0
8035,2024 10 17,09:01:06.947,-0.017597,0.304095,0.464675,0.831441,-0.519059,0.148442,-0.675314,-49.621582,-96.496582,291.442871,0,0
8036,2024 10 17,09:01:06.955,-0.033255,0.324598,0.452625,0.829856,-0.685568,0.351085,-0.422376,-60.302734,-116.638184,300.842285,0,0
8037,2024 10 17,09:01:06.963,-0.033255,0.324598,0.452625,0.829856,-0.685568,0.351085,-0.422376,-60.302734,-116.638184,300.842285,0,0
8038,2024 10 17,09:01:06.972,-0.049536,0.345985,0.439267,0.827577,-0.843776,0.451186,-0.360851,-64.331055,-119.384766,316.345215,0,0
8039,2024 10 17,09:01:06.980,-0.066955,0.367683,0.424903,0.82449,-0.861843,0.456069,-0.315928,-64.27002,-119.689941,332.214355,0,0
8040,2024 10 17,09:01:06.988,-0.085017,0.389687,0.409784,0.820362,-0.862331,0.388195,-0.307627,-63.842773,-125.0,342.041016,0,0
8041,2024 10 17,09:01:06.997,-0.102629,0.412388,0.394188,0.814873,-0.92581,0.32667,-0.264168,-65.185547,-142.089844,342.529297,0,0
8042,2024 10 17,09:01:07.005,-0.118993,0.435814,0.378313,0.807952,-0.998566,0.322764,-0.216803,-67.993164,-160.888672,335.81543,0,0
8043,2024 10 17,09:01:07.013,-0.118993,0.435814,0.378313,0.807952,-0.998566,0.322764,-0.216803,-67.993164,-160.888672,335.81543,0,0
8044,2024 10 17,09:01:07.022,-0.13384,0.459908,0.362542,0.799459,-1.154332,0.345225,-0.102542,-67.810059,-182.312012,325.439453,0,0
8045,2024 10 17,09:01:07.030,-0.147522,0.484096,0.347108,0.78956,-1.280801,0.40968,0.015137,-63.781738,-192.993164,315.795898,0,0
8046,2024 10 17,09:01:07.038,-0.160774,0.507953,0.332078,0.77837,-1.384808,0.477065,0.119633,-55.480957,-199.645996,311.767578,0,0
8047,2024 10 17,09:01:07.047,-0.174515,0.531219,0.31737,0.765916,-1.484909,0.534196,0.206061,-42.419434,-199.09668,316.345215,0,0
8048,2024 10 17,09:01:07.055,-0.189417,0.553834,0.302772,0.752142,-1.569872,0.578143,0.256355,-27.587891,-198.486328,327.514648,0,0
8049,2024 10 17,09:01:07.063,-0.189417,0.553834,0.302772,0.752142,-1.569872,0.578143,0.256355,-27.587891,-198.486328,327.514648,0,0
8050,2024 10 17,09:01:07.072,-0.205721,0.575746,0.288192,0.736981,-1.672414,0.572283,0.22071,-12.451172,-196.228027,340.026855,0,0
8051,2024 10 17,09:01:07.080,-0.223014,0.597007,0.273837,0.72032,-1.838923,0.5215,0.221198,1.708984,-199.462891,346.923828,0,0
8052,2024 10 17,09:01:07.088,-0.240577,0.617519,0.259936,0.7023,-2.006409,0.454604,0.204596,12.207031,-202.819824,346.191406,0,0
8053,2024 10 17,09:01:07.097,-0.257873,0.637411,0.246422,0.682997,-2.173894,0.330576,0.183111,17.39502,-209.960938,344.238281,0,0
8054,2024 10 17,09:01:07.105,-0.27483,0.656723,0.23279,0.662565,-2.373608,0.188971,0.201666,16.967773,-212.890625,346.435547,0,0
8055,2024 10 17,09:01:07.113,-0.291448,0.675029,0.218669,0.641543,-2.56209,-0.038087,0.218757,15.258789,-207.702637,347.717285,0,0
8056,2024 10 17,09:01:07.122,-0.291448,0.675029,0.218669,0.641543,-2.56209,-0.038087,0.218757,15.258789,-207.702637,347.717285,0,0
8057,2024 10 17,09:01:07.130,-0.30726,0.692078,0.204168,0.620431,-2.756432,-0.288095,0.214362,10.803223,-200.256348,342.468262,0,0
8058,2024 10 17,09:01:07.138,-0.321997,0.707587,0.189643,0.599729,-2.932218,-0.552263,0.258309,6.652832,-186.950684,330.444336,0,0
8059,2024 10 17,09:01:07.147,-0.335514,0.721212,0.175383,0.580107,-2.924406,-1.14066,0.199225,2.319336,-169.189453,313.781738,0,0
8060,2024 10 17,09:01:07.155,-0.347374,0.733472,0.161528,0.561479,-2.878506,-1.871639,0.11475,-6.103516,-158.752441,296.75293,0,0
8061,2024 10 17,09:01:07.163,-0.356972,0.744851,0.148376,0.543831,-2.58211,-2.399976,0.187994,-18.676758,-153.808594,272.033691,0,0
8062,2024 10 17,09:01:07.172,-0.356972,0.744851,0.148376,0.543831,-2.58211,-2.399976,0.187994,-18.676758,-153.808594,272.033691,0,0
8063,2024 10 17,09:01:07.180,-0.363577,0.755998,0.137542,0.526651,-2.110416,-2.740318,0.569353,-27.832031,-169.616699,227.844238,0,0
8064,2024 10 17,09:01:07.188,-0.366635,0.767582,0.13127,0.509083,-1.648976,-2.933195,1.187048,-31.12793,-207.092285,166.137695,0,0
8065,2024 10 17,09:01:07.197,-0.366656,0.779629,0.130674,0.490577,-1.573779,-3.219825,1.851131,-23.193359,-249.450684,104.125977,0,0
8066,2024 10 17,09:01:07.205,-0.365036,0.791411,0.134872,0.47141,-2.543535,-3.863888,2.253487,-8.911133,-271.484375,62.683105,0,0
8067,2024 10 17,09:01:07.213,-0.362876,0.800084,0.140305,0.45662,-3.572863,-4.294076,2.360424,-0.976563,-195.556641,31.677246,0,0
8068,2024 10 17,09:01:07.222,-0.362876,0.800084,0.140305,0.45662,-3.572863,-4.294076,2.360424,-0.976563,-195.556641,31.677246,0,0
8069,2024 10 17,09:01:07.230,-0.361051,0.801229,0.142724,0.455307,-3.116794,-4.165655,2.058657,-8.178711,6.896973,-6.835938,0,0
8070,2024 10 17,09:01:07.238,-0.350253,0.800509,0.143668,0.464616,-13.650807,-4.770165,-0.504898,-191.223145,18.798828,-130.554199,0,0
8071,2024 10 17,09:01:07.247,-0.333443,0.789334,0.159261,0.490309,-0.823267,-2.877041,0.638203,9.399414,408.996582,-286.987305,0,0
8072,2024 10 17,09:01:07.255,-0.310076,0.765817,0.153723,0.541984,1.933653,3.15537,-4.735496,-148.132324,514.404297,-310.424805,1,0
8073,2024 10 17,09:01:07.263,-0.293069,0.766789,0.170846,0.544938,-2.294504,2.368725,3.659291,-104.797363,-160.705566,-292.663574,0,0
8074,2024 10 17,09:01:07.272,-0.293069,0.766789,0.170846,0.544938,-2.294504,2.368725,3.659291,-104.797363,-160.705566,-292.663574,0,0
8075,2024 10 17,09:01:07.280,-0.284055,0.752847,0.185252,0.564106,-1.020539,-0.229011,-0.127934,38.269043,285.03418,-273.010254,0,0
8076,2024 10 17,09:01:07.288,-0.280239,0.740558,0.203154,0.575993,-1.83697,-0.384777,1.063509,112.854004,44.98291,-227.111816,0,0
8077,2024 10 17,09:01:07.297,-0.278342,0.728495,0.215255,0.587781,-1.707572,-0.377453,0.527848,53.649902,182.250977,-158.203125,0,0
8078,2024 10 17,09:01:07.305,-0.27809,0.714644,0.219853,0.603004,-1.139683,0.079104,-0.662618,37.597656,185.180664,-110.656738,0,0
8079,2024 10 17,09:01:07.313,-0.281002,0.703536,0.22548,0.612564,-1.400922,0.179205,-0.337413,90.454102,147.216797,-74.768066,0,0
8080,2024 10 17,09:01:07.322,-0.281002,0.703536,0.22548,0.612564,-1.400922,0.179205,-0.337413,90.454102,147.216797,-74.768066,0,0
8081,2024 10 17,09:01:07.330,-0.29021,0.690187,0.231435,0.621175,-1.177282,-0.226569,-0.071291,147.521973,173.76709,-36.560059,0,0
8082,2024 10 17,09:01:07.338,-0.299635,0.677016,0.235282,0.629691,-0.933622,-0.218268,0.013184,108.764648,169.616699,-23.55957,0,0
8083,2024 10 17,09:01:07.347,-0.306086,0.666385,0.237242,0.637148,-0.993683,0.097171,-0.160649,75.805664,136.962891,-20.874023,0,0
8084,2024 10 17,09:01:07.355,-0.3129,0.65708,0.239465,0.642648,-1.070345,0.010254,-0.06006,91.369629,118.286133,-7.93457,0,0
8085,2024 10 17,09:01:07.363,-0.319667,0.648431,0.241332,0.647386,-0.735862,-0.12891,0.242683,74.584961,106.872559,-4.577637,0,0
8086,2024 10 17,09:01:07.372,-0.319667,0.648431,0.241332,0.647386,-0.735862,-0.12891,0.242683,74.584961,106.872559,-4.577637,0,0
8087,2024 10 17,09:01:07.380,-0.323201,0.642699,0.242288,0.650981,-0.803735,0.02295,0.023927,35.400391,61.462402,-10.009766,0,0
8088,2024 10 17,09:01:07.388,-0.325076,0.639738,0.2434,0.652547,-1.007355,0.028809,0.139653,28.198242,30.334473,-6.713867,0,0
8089,2024 10 17,09:01:07.397,-0.326691,0.637079,0.244223,0.654033,-0.901883,-0.01709,0.112796,21.54541,31.921387,-6.713867,0,0
8090,2024 10 17,09:01:07.405,-0.327023,0.635641,0.24483,0.655038,-0.928739,0.032716,0.054689,7.141113,10.192871,-9.765625,0,0
8091,2024 10 17,09:01:07.413,-0.326428,0.635295,0.245431,0.655445,-1.017609,0.092776,0.057619,-1.403809,0.854492,-11.474609,0,0
8092,2024 10 17,09:01:07.422,-0.326428,0.635295,0.245431,0.655445,-1.017609,0.092776,0.057619,-1.403809,0.854492,-11.474609,0,0
8093,2024 10 17,09:01:07.430,-0.325586,0.634983,0.24595,0.655972,-1.035676,0.056642,-0.02295,-4.150391,2.01416,-13.549805,0,0
8094,2024 10 17,09:01:07.438,-0.324269,0.634874,0.246393,0.656563,-1.104526,0.093265,-0.04004,-7.8125,-0.183105,-15.991211,0,0
8095,2024 10 17,09:01:07.447,-0.322984,0.63445,0.2469,0.657415,-1.099643,0.097171,-0.001953,-5.371094,6.774902,-18.249512,0,0
8096,2024 10 17,09:01:07.455,-0.322032,0.633447,0.247442,0.658645,-1.021516,0.067385,0.023927,-1.464844,13.244629,-18.493652,0,0
8097,2024 10 17,09:01:07.463,-0.321167,0.632415,0.248051,0.659829,-0.978057,0.052736,0.049318,-1.220703,10.864258,-18.127441,0,0
8098,2024 10 17,09:01:07.472,-0.321167,0.632415,0.248051,0.659829,-0.978057,0.052736,0.049318,-1.220703,10.864258,-18.127441,0,0
8099,2024 10 17,09:01:07.480,-0.320126,0.631644,0.248688,0.660832,-0.987823,0.054689,0.045412,-3.234863,7.080078,-18.554688,0,0
8100,2024 10 17,09:01:07.488,-0.318865,0.631099,0.249308,0.661729,-0.98001,0.052248,0.019532,-5.737305,3.967285,-19.165039,0,0
8101,2024 10 17,09:01:07.497,-0.317348,0.630761,0.249931,0.662544,-1.001984,0.041505,0.028321,-7.507324,1.647949,-20.019531,0,0
8102,2024 10 17,09:01:07.505,-0.315699,0.630508,0.250514,0.663353,-0.997589,0.06006,0.019044,-9.216309,1.037598,-20.324707,0,0
8103,2024 10 17,09:01:07.513,-0.314103,0.630238,0.251114,0.664139,-0.999542,0.041505,0.045412,-8.422852,1.525879,-20.019531,0,0
8104,2024 10 17,09:01:07.522,-0.314103,0.630238,0.251114,0.664139,-0.999542,0.041505,0.045412,-8.422852,1.525879,-20.019531,0,0
8105,2024 10 17,09:01:07.530,-0.312559,0.629854,0.251702,0.665009,-0.990753,0.046388,0.043458,-6.958008,3.173828,-20.263672,0,0
8106,2024 10 17,09:01:07.538,-0.311198,0.629362,0.252386,0.665853,-0.974151,0.049806,0.090335,-4.333496,3.540039,-19.592285,0,0
8107,2024 10 17,09:01:07.547,-0.309973,0.628817,0.25319,0.666634,-0.983917,0.07178,0.10889,-2.807617,2.807617,-19.65332,0,0
8108,2024 10 17,09:01:07.555,-0.308957,0.628144,0.254222,0.667347,-1.019562,0.024415,0.033204,1.098633,4.089355,-19.897461,0,0
8109,2024 10 17,09:01:07.563,-0.307921,0.627392,0.255233,0.668146,-0.995636,0.037111,0.07178,0.915527,5.371094,-20.019531,0,0
8110,2024 10 17,09:01:07.572,-0.306959,0.626597,0.256241,0.668949,-1.032258,0.037599,0.073244,1.647949,5.79834,-19.65332,0,0
8111,2024 10 17,09:01:07.580,-0.306959,0.626597,0.256241,0.668949,-1.032258,0.037599,0.073244,1.647949,5.79834,-19.65332,0,0
8112,2024 10 17,09:01:07.588,-0.306204,0.625559,0.257264,0.669873,-1.024934,0.015137,0.054201,4.089355,10.070801,-19.165039,0,0
8113,2024 10 17,09:01:07.597,-0.305504,0.62439,0.258238,0.670908,-0.994171,0.02588,0.094729,3.601074,11.169434,-19.165039,0,0
8114,2024 10 17,09:01:07.605,-0.304841,0.623264,0.25932,0.671839,-1.016633,0.036622,0.089358,5.004883,8.728027,-19.53125,0,0
8115,2024 10 17,09:01:07.613,-0.304142,0.622101,0.260414,0.672809,-1.01175,0.028809,0.099612,4.699707,10.925293,-20.080566,0,0
8116,2024 10 17,09:01:07.622,-0.303585,0.620732,0.261581,0.673872,-1.044465,0.026856,0.078616,6.347656,12.390137,-21.240234,0,0
8117,2024 10 17,09:01:07.630,-0.303585,0.620732,0.261581,0.673872,-1.044465,0.026856,0.078616,6.347656,12.390137,-21.240234,0,0
8118,2024 10 17,09:01:07.638,-0.302797,0.619265,0.262877,0.675071,-1.104526,0.048341,0.056154,6.896973,13.671875,-24.353027,0,0
8119,2024 10 17,09:01:07.647,-0.301877,0.617561,0.264402,0.676447,-1.105014,0.075686,0.107913,6.835938,15.74707,-29.47998,0,0
8120,2024 10 17,09:01:07.655,-0.300492,0.615699,0.266201,0.678054,-1.207556,0.059572,0.031251,3.90625,14.526367,-37.597656,0,0
8121,2024 10 17,09:01:07.663,-0.298119,0.613893,0.268351,0.679888,-1.233436,0.000977,0.032228,0.427246,12.268066,-48.64502,0,0
8122,2024 10 17,09:01:07.672,-0.294492,0.612162,0.270868,0.682028,-1.268593,-0.016602,-0.001953,-6.408691,8.972168,-61.523438,0,0
8123,2024 10 17,09:01:07.680,-0.294492,0.612162,0.270868,0.682028,-1.268593,-0.016602,-0.001953,-6.408691,8.972168,-61.523438,0,0
8124,2024 10 17,09:01:07.688,-0.28949,0.610506,0.273693,0.684522,-1.328654,0.066408,0.075198,-19.165039,5.310059,-76.171875,0,0
8125,2024 10 17,09:01:07.697,-0.283682,0.608458,0.277037,0.687425,-1.374554,0.06592,0.1377,-15.991211,8.544922,-88.684082,0,0
8126,2024 10 17,09:01:07.705,-0.277223,0.60562,0.280855,0.691008,-1.39555,0.090335,0.067385,-16.052246,15.930176,-101.989746,0,0
8127,2024 10 17,09:01:07.713,-0.270512,0.601949,0.285501,0.69496,-1.389691,0.091311,0.083987,-8.178711,22.827148,-112.792969,0,0
8128,2024 10 17,09:01:07.722,-0.263709,0.597322,0.291025,0.699263,-1.459517,0.168462,0.193365,-1.403809,28.808594,-125.549316,0,0
8129,2024 10 17,09:01:07.730,-0.263709,0.597322,0.291025,0.699263,-1.459517,0.168462,0.193365,-1.403809,28.808594,-125.549316,0,0
8130,2024 10 17,09:01:07.738,-0.256456,0.591713,0.297766,0.703875,-1.454146,0.191412,0.204108,8.728027,32.958984,-143.066406,0,0
8131,2024 10 17,09:01:07.747,-0.248803,0.585217,0.306077,0.708473,-1.53618,0.175787,0.159185,22.460938,32.592773,-160.217285,0,0
8132,2024 10 17,09:01:07.755,-0.240251,0.577894,0.316016,0.713058,-1.808649,0.245613,0.116703,29.35791,31.494141,-184.265137,0,0
8133,2024 10 17,09:01:07.763,-0.229564,0.56942,0.327513,0.718189,-2.123112,0.261727,0.044435,27.34375,35.766602,-221.252441,0,0
8134,2024 10 17,09:01:07.772,-0.216209,0.558883,0.340466,0.724559,-2.395093,0.34962,-0.079104,22.033691,49.499512,-266.479492,0,0
8135,2024 10 17,09:01:07.780,-0.216209,0.558883,0.340466,0.724559,-2.395093,0.34962,-0.079104,22.033691,49.499512,-266.479492,0,0
8136,2024 10 17,09:01:07.788,-0.199407,0.546414,0.355135,0.731811,-2.649495,0.487808,-0.190924,15.625,47.302246,-319.458008,0,0
8137,2024 10 17,09:01:07.797,-0.178852,0.53141,0.371868,0.739817,-2.976653,0.637226,-0.057619,13.183594,66.345215,-378.90625,0,0
8138,2024 10 17,09:01:07.805,-0.155118,0.511559,0.39003,0.749748,-3.383404,0.687521,-0.137211,5.065918,98.266602,-443.115234,0,0
8139,2024 10 17,09:01:07.813,-0.128188,0.487115,0.409903,0.760438,-3.641224,0.560564,0.154302,12.939453,128.356934,-503.173828,0,0
8140,2024 10 17,09:01:07.822,-0.100066,0.457048,0.431717,0.771177,-3.770135,0.201666,0.159673,38.085938,170.837402,-545.776367,0,0
8141,2024 10 17,09:01:07.830,-0.100066,0.457048,0.431717,0.771177,-3.770135,0.201666,0.159673,38.085938,170.837402,-545.776367,0,0
8142,2024 10 17,09:01:07.838,-0.071169,0.42358,0.454552,0.780319,-3.625111,0.009766,-0.056154,46.325684,179.870605,-566.894531,0,1
8143,2024 10 17,09:01:07.847,-0.042384,0.388187,0.475783,0.788127,-3.056734,0.160649,-0.292489,31.311035,194.396973,-562.866211,0,0
8144,2024 10 17,09:01:07.855,-0.014101,0.352549,0.494219,0.794518,-2.970305,0.674337,-0.465835,15.74707,191.650391,-543.701172,0,0
8145,2024 10 17,09:01:07.863,0.014171,0.316724,0.510367,0.799381,-2.262764,1.397015,-0.755882,6.835938,188.903809,-541.992188,0,0
8146,2024 10 17,09:01:07.872,0.042328,0.28227,0.524656,0.80204,-1.593799,1.355998,-1.149449,11.71875,153.686523,-514.282227,0,0
8147,2024 10 17,09:01:07.880,0.042328,0.28227,0.524656,0.80204,-1.593799,1.355998,-1.149449,11.71875,153.686523,-514.282227,0,0
8148,2024 10 17,09:01:07.888,0.072527,0.253457,0.537053,0.801295,-1.660695,1.362835,-0.983917,-7.69043,76.171875,-501.953125,0,0
8149,2024 10 17,09:01:07.897,0.104399,0.227556,0.544457,0.800553,-0.074709,0.933622,-2.235908,-55.297852,39.672852,-469.360352,0,0
8150,2024 10 17,09:01:07.905,0.130175,0.208625,0.544873,0.801651,2.113834,1.147496,-0.505875,-114.807129,11.230469,-296.386719,0,0
8151,2024 10 17,09:01:07.913,0.139949,0.202553,0.537695,0.806393,0.201178,1.806207,-0.237312,-134.094238,-8.728027,-35.522461,0,0
8152,2024 10 17,09:01:07.922,0.134525,0.206993,0.527961,0.812598,0.16895,1.665578,-0.280282,-107.36084,-18.127441,148.55957,0,0
8153,2024 10 17,09:01:07.930,0.134525,0.206993,0.527961,0.812598,0.16895,1.665578,-0.280282,-107.36084,-18.127441,148.55957,0,0
8154,2024 10 17,09:01:07.938,0.119612,0.219023,0.517155,0.818702,-0.272958,1.471725,-0.247566,-64.819336,-20.141602,273.4375,0,0
8155,2024 10 17,09:01:07.947,0.098527,0.235297,0.50805,0.822686,-0.648946,1.062532,-0.141606,-24.169922,-34.240723,328.674316,0,0
8156,2024 10 17,09:01:07.955,0.075313,0.25266,0.499836,0.825018,-0.572771,0.771996,-0.496109,-2.502441,-30.456543,341.491699,0,0
8157,2024 10 17,09:01:07.963,0.05313,0.27099,0.49243,0.825381,-0.69631,0.474624,-0.59621,7.873535,-54.748535,327.819824,0,0
8158,2024 10 17,09:01:07.972,0.033305,0.28949,0.48513,0.82446,-0.731468,0.199225,-0.780786,5.371094,-73.486328,303.771973,0,0
8159,2024 10 17,09:01:07.980,0.033305,0.28949,0.48513,0.82446,-0.731468,0.199225,-0.780786,5.371094,-73.486328,303.771973,0,0
8160,2024 10 17,09:01:07.988,0.016095,0.308529,0.477321,0.822627,-0.701682,0.195807,-0.639668,-5.126953,-93.505859,286.621094,0,0
8161,2024 10 17,09:01:07.997,9e-06,0.327691,0.46843,0.820482,-0.586444,0.308603,-0.612812,-16.540527,-101.44043,284.667969,0,0
8162,2024 10 17,09:01:08.005,-0.016047,0.347953,0.458278,0.817712,-0.645527,0.398938,-0.502457,-23.986816,-115.05127,298.76709,0,0
8163,2024 10 17,09:01:08.013,-0.033257,0.369193,0.446658,0.814302,-0.761742,0.447768,-0.449721,-28.747559,-117.370605,321.716309,0,0
8164,2024 10 17,09:01:08.022,-0.051893,0.391083,0.43352,0.810199,-0.819361,0.411145,-0.403821,-33.203125,-119.384766,344.055176,0,0
8165,2024 10 17,09:01:08.030,-0.071338,0.413639,0.41891,0.805189,-0.923368,0.339854,-0.410169,-39.611816,-125.366211,360.168457,0,0
8166,2024 10 17,09:01:08.038,-0.071338,0.413639,0.41891,0.805189,-0.923368,0.339854,-0.410169,-39.611816,-125.366211,360.168457,0,0
8167,2024 10 17,09:01:08.047,-0.090588,0.436798,0.402948,0.799146,-1.014191,0.237312,-0.356456,-49.621582,-137.145996,366.149902,0,0
8168,2024 10 17,09:01:08.055,-0.108771,0.460498,0.385795,0.792005,-1.097201,0.186529,-0.325694,-61.340332,-151.977539,364.562988,0,0
8169,2024 10 17,09:01:08.063,-0.125443,0.484674,0.367802,0.783631,-1.244667,0.170904,-0.250496,-71.716309,-168.762207,357.849121,0,0
8170,2024 10 17,09:01:08.072,-0.140595,0.509089,0.349218,0.77402,-1.371624,0.197272,-0.130863,-79.223633,-182.128906,350.646973,0,0
8171,2024 10 17,09:01:08.080,-0.154902,0.533368,0.330157,0.76323,-1.458541,0.288095,-0.037111,-81.481934,-190.063477,348.693848,0,0
8172,2024 10 17,09:01:08.088,-0.154902,0.533368,0.330157,0.76323,-1.458541,0.288095,-0.037111,-81.481934,-190.063477,348.693848,0,0
8173,2024 10 17,09:01:08.097,-0.169128,0.557421,0.310888,0.751017,-1.604053,0.410169,0.077639,-76.11084,-197.44873,351.68457,0,0
8174,2024 10 17,09:01:08.105,-0.183979,0.580869,0.291811,0.737285,-1.763237,0.516129,0.23487,-61.096191,-198.303223,356.506348,0,0
8175,2024 10 17,09:01:08.113,-0.200042,0.603003,0.273406,0.722233,-1.937071,0.551286,0.238289,-38.024902,-193.908691,360.107422,0,0
8176,2024 10 17,09:01:08.122,-0.217358,0.623553,0.256149,0.705922,-2.124088,0.495132,0.262215,-12.268066,-187.133789,359.558105,0,0
8177,2024 10 17,09:01:08.130,-0.235445,0.642421,0.240113,0.688626,-2.216865,0.297372,0.131352,7.873535,-184.204102,354.675293,0,0
8178,2024 10 17,09:01:08.138,-0.235445,0.642421,0.240113,0.688626,-2.216865,0.297372,0.131352,7.873535,-184.204102,354.675293,0,0
8179,2024 10 17,09:01:08.147,-0.253344,0.660512,0.225003,0.670011,-2.340892,0.018067,-0.010254,16.357422,-191.52832,350.341797,0,0
8180,2024 10 17,09:01:08.155,-0.270458,0.678194,0.210051,0.650219,-2.429762,-0.264657,-0.109867,13.000488,-200.073242,348.144531,0,0
8181,2024 10 17,09:01:08.163,-0.286294,0.695756,0.194925,0.629256,-2.565996,-0.522477,-0.049806,3.540039,-211.608887,345.336914,0,0
8182,2024 10 17,09:01:08.172,-0.300755,0.712968,0.179835,0.607356,-2.813562,-0.722678,0.098636,-1.953125,-218.87207,338.134766,0,0
8183,2024 10 17,09:01:08.180,-0.314236,0.728719,0.165427,0.58554,-3.045015,-1.164098,0.265633,2.13623,-209.04541,322.631836,0,0
8184,2024 10 17,09:01:08.188,-0.314236,0.728719,0.165427,0.58554,-3.045015,-1.164098,0.265633,2.13623,-209.04541,322.631836,0,0
8185,2024 10 17,09:01:08.197,-0.326735,0.742144,0.152203,0.565067,-3.052339,-1.805231,0.319346,7.873535,-187.683105,298.217773,0,0
8186,2024 10 17,09:01:08.205,-0.337476,0.753351,0.140828,0.54657,-2.634846,-2.408277,0.444838,8.850098,-169.372559,259.58252,0,0
8187,2024 10 17,09:01:08.213,-0.345076,0.763761,0.132822,0.529103,-2.012269,-2.821375,0.726096,2.624512,-183.47168,203.491211,0,0
8188,2024 10 17,09:01:08.222,-0.348669,0.774742,0.129606,0.511279,-1.592822,-3.051851,1.211951,-4.821777,-220.703125,139.038086,0,0
8189,2024 10 17,09:01:08.230,-0.348815,0.786496,0.131315,0.492452,-1.829646,-3.37608,1.788141,-6.652832,-260.681152,84.350586,0,0
8190,2024 10 17,09:01:08.238,-0.348815,0.786496,0.131315,0.492452,-1.829646,-3.37608,1.788141,-6.652832,-260.681152,84.350586,0,0
8191,2024 10 17,09:01:08.247,-0.347198,0.797601,0.136028,0.474113,-2.781335,-3.6798,2.292062,-2.380371,-254.211426,52.429199,0,0
8192,2024 10 17,09:01:08.255,-0.346034,0.803914,0.140507,0.462861,-3.315042,-3.830683,2.591876,9.765625,-134.765625,23.498535,0,0
8193,2024 10 17,09:01:08.263,-0.345995,0.802412,0.142548,0.464868,-2.409741,-3.576769,1.95172,15.014648,41.07666,-14.953613,0,0
8194,2024 10 17,09:01:08.272,-0.343942,0.797943,0.144715,0.473337,-11.914914,-1.156774,-7.351299,-19.287109,71.594238,-67.932129,0,0
8195,2024 10 17,09:01:08.280,-0.326061,0.792191,0.163751,0.489187,-1.124058,-3.652944,2.343821,157.226563,282.409668,-307.861328,0,0
8196,2024 10 17,09:01:08.288,-0.326061,0.792191,0.163751,0.489187,-1.124058,-3.652944,2.343822,157.226563,282.409668,-307.861328,0,0
8197,2024 10 17,09:01:08.297,-0.301181,0.766611,0.160445,0.543925,1.354045,3.830195,-5.885434,-196.289063,596.618652,-367.858887,1,0
8198,2024 10 17,09:01:08.305,-0.289249,0.764343,0.182932,0.54649,-2.187078,1.410199,3.203712,-6.958008,-190.429688,-309.936523,0,0
8199,2024 10 17,09:01:08.313,-0.280657,0.74955,0.200888,0.564846,-1.339396,-0.311045,0.61623,79.467773,307.739258,-291.137695,0,0
8200,2024 10 17,09:01:08.322,-0.279531,0.732693,0.21959,0.580348,-1.762261,-0.343272,1.274941,133.666992,100.158691,-238.28125,0,0
8201,2024 10 17,09:01:08.330,-0.27806,0.718487,0.229918,0.59464,-1.932188,-0.63039,0.608417,27.832031,228.69873,-153.991699,0,0
8202,2024 10 17,09:01:08.338,-0.27806,0.718487,0.229918,0.59464,-1.932188,-0.63039,0.608417,27.832031,228.69873,-153.991699,0,0
8203,2024 10 17,09:01:08.347,-0.278904,0.702794,0.231891,0.61198,-1.063021,0.082034,-1.322306,43.395996,213.562012,-88.806152,0,0
8204,2024 10 17,09:01:08.355,-0.284665,0.692472,0.237359,0.618958,-1.483444,0.154302,0.304209,119.20166,126.403809,-41.931152,0,0
8205,2024 10 17,09:01:08.363,-0.297438,0.677775,0.242071,0.627338,-0.897,-0.379894,-0.027345,162.414551,204.101563,-7.446289,0,0
8206,2024 10 17,09:01:08.372,-0.306314,0.665452,0.244221,0.635375,-0.808618,-0.13477,-0.39845,82.885742,147.155762,-14.526367,0,0
8207,2024 10 17,09:01:08.380,-0.311912,0.657579,0.246006,0.640142,-1.144566,0.1377,0.117191,73.852539,99.731445,-7.324219,0,0
8208,2024 10 17,09:01:08.388,-0.311912,0.657579,0.246006,0.640142,-1.144566,0.1377,0.117191,73.852539,99.731445,-7.324219,0,0
8209,2024 10 17,09:01:08.397,-0.319798,0.648445,0.24767,0.644909,-0.909696,-0.153813,0.030274,90.515137,124.511719,3.90625,0,0
8210,2024 10 17,09:01:08.405,-0.324709,0.641258,0.248246,0.649405,-0.65334,-0.029298,0.118168,41.687012,82.580566,-6.225586,0,0
8211,2024 10 17,09:01:08.413,-0.326971,0.637941,0.24905,0.651226,-0.944365,0.016114,0.207038,29.418945,32.531738,-3.967285,0,0
8212,2024 10 17,09:01:08.422,-0.328677,0.635303,0.249603,0.652732,-0.944365,0.044435,0.07178,19.226074,33.630371,-4.821777,0,0
8213,2024 10 17,09:01:08.430,-0.329503,0.633546,0.250063,0.653847,-0.955107,0.06006,0.026368,9.70459,16.174316,-6.835938,0,0
8214,2024 10 17,09:01:08.438,-0.329503,0.633546,0.250063,0.653847,-0.955107,0.06006,0.026368,9.70459,16.174316,-6.835938,0,0
8215,2024 10 17,09:01:08.447,-0.329472,0.632768,0.250731,0.65436,-1.028352,0.075686,0.101566,5.554199,6.347656,-10.009766,0,0
8216,2024 10 17,09:01:08.455,-0.329076,0.631924,0.251422,0.655109,-1.07181,0.056642,-0.042482,4.089355,8.239746,-14.160156,0,0
8217,2024 10 17,09:01:08.463,-0.328296,0.631167,0.252198,0.655931,-1.067904,0.044923,0.00293,-0.244141,6.896973,-17.211914,0,0
8218,2024 10 17,09:01:08.472,-0.327282,0.630355,0.252867,0.656961,-1.062532,0.02588,-0.019044,-1.831055,9.094238,-18.554688,0,0
8219,2024 10 17,09:01:08.480,-0.326075,0.629552,0.253418,0.658118,-1.063509,0.063478,-0.013184,-4.699707,9.643555,-19.592285,0,0
8220,2024 10 17,09:01:08.488,-0.324967,0.62858,0.253938,0.659393,-1.011261,0.069338,0.067873,-3.723145,12.573242,-19.714355,0,0
8221,2024 10 17,09:01:08.497,-0.324967,0.62858,0.253938,0.659393,-1.011261,0.069338,0.067873,-3.723145,12.573242,-19.714355,0,0
8222,2024 10 17,09:01:08.505,-0.323931,0.627522,0.254504,0.660692,-0.972198,0.06885,0.039552,-3.417969,11.230469,-19.897461,0,0
8223,2024 10 17,09:01:08.513,-0.322852,0.626703,0.255272,0.6617,-0.980987,0.041505,0.065432,-1.403809,6.652832,-20.019531,0,0
8224,2024 10 17,09:01:08.522,-0.321809,0.625856,0.256065,0.662703,-1.011261,0.046388,-0.013184,-1.037598,7.873535,-19.65332,0,0
8225,2024 10 17,09:01:08.530,-0.320623,0.625189,0.256862,0.663597,-1.013214,0.043947,0.00293,-2.929688,4.638672,-20.019531,0,0
8226,2024 10 17,09:01:08.538,-0.319397,0.624578,0.257687,0.664443,-1.012726,0.06006,0.06006,-2.197266,4.943848,-20.019531,0,0
8227,2024 10 17,09:01:08.547,-0.319397,0.624578,0.257687,0.664443,-1.012726,0.06006,0.06006,-2.197266,4.943848,-20.019531,0,0
8228,2024 10 17,09:01:08.555,-0.318392,0.623762,0.258594,0.665339,-0.98001,0.066897,0.0918,0.976563,6.591797,-20.080566,0,0
8229,2024 10 17,09:01:08.563,-0.31753,0.622907,0.259773,0.666092,-0.986358,0.067385,0.158696,4.699707,3.90625,-20.690918,0,0
8230,2024 10 17,09:01:08.572,-0.316953,0.621841,0.261189,0.666809,-1.021516,0.049806,0.101566,10.070801,7.8125,-19.897461,0,0
8231,2024 10 17,09:01:08.580,-0.316662,0.62039,0.262581,0.667752,-0.991241,0.036134,0.051271,10.498047,12.512207,-20.263672,0,0
8232,2024 10 17,09:01:08.588,-0.316265,0.619058,0.263978,0.668625,-0.966338,0.032716,0.080569,9.277344,9.521484,-20.202637,0,0
8233,2024 10 17,09:01:08.597,-0.316265,0.619058,0.263978,0.668625,-0.966338,0.032716,0.080569,9.277344,9.521484,-20.202637,0,0
8234,2024 10 17,09:01:08.605,-0.315888,0.61779,0.265338,0.669437,-1.005402,0.01709,0.117191,10.253906,9.399414,-19.226074,0,0
8235,2024 10 17,09:01:08.613,-0.315667,0.616211,0.2665,0.670535,-1.017609,0.002441,0.057131,9.033203,16.540527,-18.432617,0,0
8236,2024 10 17,09:01:08.622,-0.315372,0.614564,0.267457,0.671802,-0.984893,0.009278,0.083499,7.629395,17.700195,-18.615723,0,0
8237,2024 10 17,09:01:08.630,-0.31496,0.613032,0.268352,0.673037,-1.006867,0.020997,0.101077,5.67627,15.625,-18.676758,0,0
8238,2024 10 17,09:01:08.638,-0.314383,0.611505,0.269214,0.674351,-1.037141,0.013184,0.059572,4.150391,17.089844,-20.141602,0,0
8239,2024 10 17,09:01:08.647,-0.314383,0.611505,0.269214,0.674351,-1.037141,0.013184,0.059572,4.150391,17.089844,-20.141602,0,0
8240,2024 10 17,09:01:08.655,-0.313511,0.61002,0.270095,0.675748,-1.024934,0.001953,0.10889,0.915527,14.648438,-23.31543,0,0
8241,2024 10 17,09:01:08.663,-0.312295,0.608617,0.271038,0.677197,-1.048372,0.028809,0.132328,-2.380371,13.244629,-26.550293,0,0
8242,2024 10 17,09:01:08.672,-0.310763,0.607238,0.272125,0.678701,-1.126011,0.02002,0.072268,-2.258301,12.023926,-30.334473,0,0
8243,2024 10 17,09:01:08.680,-0.308608,0.605906,0.273374,0.680372,-1.145543,0.027345,0.10596,-5.737305,11.352539,-37.353516,0,0
8244,2024 10 17,09:01:08.688,-0.305912,0.604397,0.274875,0.682324,-1.178259,0.015625,0.070803,-8.911133,11.474609,-45.654297,0,0
8245,2024 10 17,09:01:08.697,-0.305912,0.604397,0.274875,0.682324,-1.178259,0.015625,0.070803,-8.911133,11.474609,-45.654297,0,0
8246,2024 10 17,09:01:08.705,-0.302386,0.602931,0.276708,0.684448,-1.203162,0.018555,0.078616,-12.573242,8.544922,-54.6875,0,0
8247,2024 10 17,09:01:08.713,-0.298234,0.601319,0.278818,0.686828,-1.233436,0.032716,0.095706,-14.282227,9.216309,-62.683105,0,0
8248,2024 10 17,09:01:08.722,-0.293679,0.599356,0.281327,0.689478,-1.265175,0.061525,0.110843,-12.634277,11.230469,-70.861816,0,0
8249,2024 10 17,09:01:08.730,-0.288814,0.596969,0.284461,0.692312,-1.347209,0.08301,0.135258,-8.239746,12.817383,-80.383301,0,0
8250,2024 10 17,09:01:08.738,-0.283629,0.593872,0.288368,0.695496,-1.432661,0.090823,0.13184,-3.234863,18.981934,-92.407227,0,0
8251,2024 10 17,09:01:08.747,-0.283629,0.593872,0.288368,0.695496,-1.432661,0.090823,0.13184,-3.234863,18.981934,-92.407227,0,0
8252,2024 10 17,09:01:08.755,-0.278031,0.589734,0.293016,0.699325,-1.414106,0.10303,0.106937,-0.366211,27.038574,-107.60498,0,0
8253,2024 10 17,09:01:08.763,-0.271579,0.585024,0.298674,0.70341,-1.45024,0.118656,0.136235,4.699707,24.841309,-124.572754,0,0
8254,2024 10 17,09:01:08.772,-0.264135,0.57984,0.305619,0.707541,-1.605029,0.159673,0.181646,10.864258,23.681641,-143.249512,0,0
8255,2024 10 17,09:01:08.780,-0.255769,0.573434,0.313954,0.712172,-1.783746,0.208014,0.104984,14.953613,29.35791,-168.823242,0,0
8256,2024 10 17,09:01:08.788,-0.245755,0.565742,0.323707,0.717464,-1.932188,0.202643,0.110843,18.066406,36.682129,-199.768066,0,0
8257,2024 10 17,09:01:08.797,-0.245755,0.565742,0.323707,0.717464,-1.932188,0.202643,0.110843,18.066406,36.682129,-199.768066,0,0
8258,2024 10 17,09:01:08.805,-0.233748,0.556098,0.334611,0.723984,-2.178289,0.354503,0.009278,14.770508,49.926758,-236.26709,0,0
8259,2024 10 17,09:01:08.813,-0.219483,0.54441,0.347177,0.731378,-2.398022,0.397473,-0.056642,15.991211,62.011719,-278.747559,0,0
8260,2024 10 17,09:01:08.822,-0.201919,0.53078,0.361527,0.739459,-2.724693,0.484878,-0.281259,12.939453,59.875488,-330.810547,0,0
8261,2024 10 17,09:01:08.830,-0.180975,0.514141,0.377559,0.74857,-3.027436,0.519059,-0.307138,7.385254,86.425781,-386.901855,0,0
8262,2024 10 17,09:01:08.838,-0.156606,0.493168,0.394928,0.759139,-3.389264,0.72219,-0.028321,2.380371,109.863281,-449.035645,0,0
8263,2024 10 17,09:01:08.847,-0.156606,0.493168,0.394928,0.759139,-3.389264,0.72219,-0.028321,2.380371,109.863281,-449.035645,0,0
8264,2024 10 17,09:01:08.855,-0.12997,0.466971,0.413823,0.770582,-3.39024,0.551775,0.107913,11.047363,153.381348,-502.13623,0,0
8265,2024 10 17,09:01:08.863,-0.10144,0.436512,0.434499,0.781267,-3.695425,0.2378,0.440443,29.47998,167.236328,-544.311523,0,0
8266,2024 10 17,09:01:08.872,-0.072695,0.402212,0.455527,0.790845,-3.269631,-0.044435,-0.023438,32.531738,197.692871,-559.875488,0,1
8267,2024 10 17,09:01:08.880,-0.04427,0.366308,0.47458,0.799145,-2.95761,0.054201,-0.351085,24.169922,205.993652,-547.668457,0,0
8268,2024 10 17,09:01:08.888,-0.016596,0.330535,0.490647,0.806062,-2.903897,0.392102,-0.473159,7.69043,203.125,-526.733398,0,0
8269,2024 10 17,09:01:08.897,0.010848,0.294767,0.503903,0.811835,-2.027406,1.236366,-1.02298,-13.793945,201.782227,-516.052246,0,0
8270,2024 10 17,09:01:08.905,0.010848,0.294767,0.503903,0.811835,-2.027406,1.236366,-1.02298,-13.793945,201.782227,-516.052246,0,0
8271,2024 10 17,09:01:08.913,0.037635,0.262392,0.515499,0.814858,-1.962462,1.143101,-1.022492,-0.671387,144.40918,-476.806641,0,0
8272,2024 10 17,09:01:08.922,0.06662,0.234284,0.525049,0.815473,-1.646535,1.382855,-0.923368,-23.681641,97.290039,-480.59082,0,0
8273,2024 10 17,09:01:08.930,0.097472,0.208642,0.530659,0.815701,-0.448744,0.58742,-2.529862,-65.246582,41.564941,-455.993652,0,0
8274,2024 10 17,09:01:08.938,0.125231,0.191928,0.527239,0.81823,2.916593,0.630879,-0.774926,-158.14209,-12.084961,-280.822754,0,0
8275,2024 10 17,09:01:08.947,0.13429,0.189649,0.515764,0.824613,0.193854,1.726615,-0.721702,-155.273438,-58.227539,11.84082,0,0
8276,2024 10 17,09:01:08.955,0.13429,0.189649,0.515764,0.824613,0.193854,1.726615,-0.721702,-155.273438,-58.227539,11.84082,0,0
8277,2024 10 17,09:01:08.963,0.128308,0.198868,0.501984,0.831866,-0.606952,1.600635,0.388195,-152.038574,-46.569824,187.194824,0,0
8278,2024 10 17,09:01:08.972,0.110884,0.210553,0.488966,0.839216,-0.859401,1.333537,-0.058107,-85.510254,-7.629395,289.123535,0,0
8279,2024 10 17,09:01:08.980,0.088788,0.22346,0.478761,0.844376,-0.776879,0.952666,0.015625,-43.579102,6.774902,313.415527,0,0
8280,2024 10 17,09:01:08.988,0.066295,0.235886,0.471047,0.847395,-0.576678,0.670919,-0.395032,-12.695313,-0.061035,298.461914,0,0
8281,2024 10 17,09:01:08.997,0.046394,0.249157,0.465145,0.84818,-0.426771,0.447768,-0.59621,6.408691,-30.273438,271.057129,0,0
8282,2024 10 17,09:01:09.005,0.046394,0.249157,0.465145,0.84818,-0.426771,0.447768,-0.59621,6.408691,-30.273438,271.057129,0,0
8283,2024 10 17,09:01:09.013,0.029193,0.2639,0.460151,0.847211,-0.356945,0.356456,-0.625507,12.573242,-62.866211,253.479004,0,0
8284,2024 10 17,09:01:09.022,0.0135,0.280468,0.455171,0.84497,-0.37843,0.423353,-0.528825,15.014648,-90.759277,252.441406,0,0
8285,2024 10 17,09:01:09.030,-0.002084,0.298869,0.449764,0.841656,-0.513199,0.505387,-0.427747,17.63916,-110.595703,264.709473,0,0
8286,2024 10 17,09:01:09.038,-0.018782,0.318755,0.443727,0.837346,-0.637226,0.526383,-0.35548,21.179199,-119.934082,287.04834,0,0
8287,2024 10 17,09:01:09.047,-0.037571,0.339742,0.436736,0.832121,-0.7051,0.522477,-0.340831,23.803711,-121.032715,317.504883,0,0
8288,2024 10 17,09:01:09.055,-0.037571,0.339742,0.436736,0.832121,-0.7051,0.522477,-0.340831,23.803711,-121.032715,317.504883,0,0
8289,2024 10 17,09:01:09.063,-0.05852,0.361787,0.42844,0.825909,-0.797388,0.489761,-0.33253,23.498535,-124.389648,347.961426,0,0
8290,2024 10 17,09:01:09.072,-0.080861,0.384809,0.418667,0.818597,-0.83694,0.401379,-0.335948,18.493652,-131.286621,370.422363,0,0
8291,2024 10 17,09:01:09.080,-0.103363,0.408915,0.407307,0.810065,-0.881375,0.300302,-0.390637,7.446289,-146.911621,383.361816,0,0
8292,2024 10 17,09:01:09.088,-0.124889,0.43431,0.394377,0.800152,-0.984893,0.257332,-0.358409,-7.568359,-168.823242,387.451172,0,0
8293,2024 10 17,09:01:09.097,-0.144816,0.460641,0.380092,0.788903,-1.153844,0.23487,-0.294931,-23.254395,-188.598633,383.789063,0,0
8294,2024 10 17,09:01:09.105,-0.144816,0.460641,0.380092,0.788903,-1.153844,0.23487,-0.294931,-23.254395,-188.598633,383.789063,0,0
8295,2024 10 17,09:01:09.113,-0.162899,0.487407,0.364724,0.77645,-1.313028,0.270516,-0.186529,-37.658691,-203.735352,375.915527,0,0
8296,2024 10 17,09:01:09.122,-0.179542,0.513817,0.348462,0.763106,-1.496139,0.308115,-0.12598,-47.363281,-207.397461,368.286133,0,0
8297,2024 10 17,09:01:09.130,-0.195304,0.539259,0.331537,0.749092,-1.68511,0.335948,0.032716,-52.612305,-203.491211,362.243652,0,0
8298,2024 10 17,09:01:09.138,-0.210641,0.563303,0.313897,0.734703,-1.734428,0.397473,0.06885,-56.152344,-194.335938,359.863281,0,0
8299,2024 10 17,09:01:09.147,-0.225965,0.586425,0.295676,0.719459,-1.827693,0.473647,0.16895,-53.466797,-192.504883,364.013672,0,0
8300,2024 10 17,09:01:09.155,-0.225965,0.586425,0.295676,0.719459,-1.827693,0.473647,0.16895,-53.466797,-192.504883,364.013672,0,0
8301,2024 10 17,09:01:09.163,-0.241811,0.608468,0.276965,0.703267,-1.996643,0.486831,0.147954,-47.851563,-187.194824,370.849609,0,0
8302,2024 10 17,09:01:09.172,-0.258068,0.629402,0.257998,0.686069,-2.208564,0.410657,0.099612,-41.503906,-183.288574,374.755859,0,0
8303,2024 10 17,09:01:09.180,-0.274189,0.649383,0.238913,0.667864,-2.419508,0.270516,0.038575,-38.024902,-184.509277,375.366211,0,0
8304,2024 10 17,09:01:09.188,-0.289873,0.668473,0.219711,0.648726,-2.644612,0.051271,-0.001953,-37.109375,-185.60791,374.87793,0,0
8305,2024 10 17,09:01:09.197,-0.304853,0.686631,0.200399,0.628842,-2.808191,-0.279794,0.023927,-39.672852,-185.48584,372.253418,0,0
8306,2024 10 17,09:01:09.205,-0.304853,0.686631,0.200399,0.628842,-2.808191,-0.279794,0.023927,-39.672852,-185.48584,372.253418,0,0
8307,2024 10 17,09:01:09.213,-0.318799,0.703804,0.181392,0.608378,-2.937101,-0.701193,0.113285,-40.466309,-188.354492,362.915039,0,0
8308,2024 10 17,09:01:09.222,-0.331278,0.719987,0.163736,0.587421,-3.045015,-1.187536,0.271493,-37.109375,-195.068359,341.796875,0,0
8309,2024 10 17,09:01:09.230,-0.342099,0.734821,0.148416,0.56655,-3.098727,-1.705619,0.420911,-28.259277,-197.387695,308.959961,0,0
8310,2024 10 17,09:01:09.238,-0.351089,0.747839,0.13658,0.546643,-2.910245,-2.332591,0.625996,-14.709473,-193.847656,260.131836,0,0
8311,2024 10 17,09:01:09.247,-0.357599,0.759174,0.12905,0.528322,-2.296945,-2.917081,0.767113,-6.286621,-195.068359,198.913574,0,0
8312,2024 10 17,09:01:09.255,-0.357599,0.759174,0.12905,0.528322,-2.296945,-2.917081,0.767113,-6.286621,-195.068359,198.913574,0,0
8313,2024 10 17,09:01:09.263,-0.360901,0.770408,0.126503,0.510116,-1.731986,-3.280862,1.182653,-4.699707,-227.478027,138.183594,0,0
8314,2024 10 17,09:01:09.272,-0.361427,0.782368,0.128578,0.490651,-1.887753,-3.5421,1.891659,-2.685547,-267.211914,91.796875,0,0
8315,2024 10 17,09:01:09.280,-0.360766,0.793307,0.133913,0.471784,-2.760338,-3.706656,2.561113,10.192871,-259.94873,55.480957,0,0
8316,2024 10 17,09:01:09.288,-0.360786,0.799842,0.140344,0.458683,-3.470809,-3.837519,2.943938,34.484863,-170.227051,21.850586,0,0
8317,2024 10 17,09:01:09.297,-0.362744,0.798859,0.144727,0.457487,-2.938566,-3.59093,2.641682,49.865723,6.713867,-8.666992,0,0
8318,2024 10 17,09:01:09.305,-0.362744,0.798859,0.144727,0.457487,-2.938566,-3.59093,2.641682,49.865723,6.713867,-8.666992,0,0
8319,2024 10 17,09:01:09.313,-0.366057,0.791716,0.147593,0.466265,-1.918516,-3.039155,1.793023,63.964844,112.915039,-44.921875,0,0
8320,2024 10 17,09:01:09.322,-0.345632,0.794321,0.160918,0.472967,-0.213385,2.355541,10.004211,-283.14209,-179.504395,-375.061035,1,0
8321,2024 10 17,09:01:09.330,-0.332019,0.775054,0.167016,0.511038,-1.018586,0.827174,-3.687124,-235.900879,514.831543,-322.875977,0,0
8322,2024 10 17,09:01:09.338,-0.317205,0.762769,0.178616,0.534472,-0.773461,0.489273,-3.125095,20.996094,30.395508,-288.330078,0,0
8323,2024 10 17,09:01:09.347,-0.298537,0.760377,0.198824,0.541453,-2.562578,0.398938,2.909757,-29.052734,66.040039,-328.308105,0,0
8324,2024 10 17,09:01:09.355,-0.293503,0.740263,0.214837,0.56543,-1.103549,-0.693869,-1.02884,88.806152,231.872559,-281.25,0,0
8325,2024 10 17,09:01:09.363,-0.293503,0.740263,0.214837,0.56543,-1.103549,-0.693869,-1.02884,88.806152,231.872559,-281.25,0,0
8326,2024 10 17,09:01:09.372,-0.289764,0.729084,0.230156,0.575762,-2.397046,-0.743675,1.641163,65.551758,101.745605,-184.631348,0,0
8327,2024 10 17,09:01:09.380,-0.288901,0.712835,0.232944,0.595097,-1.171422,0.276864,-0.961455,17.39502,274.414063,-116.760254,0,0
8328,2024 10 17,09:01:09.388,-0.293539,0.700021,0.238292,0.605824,-1.257851,0.065432,-0.236335,102.172852,139.221191,-73.547363,0,0
8329,2024 10 17,09:01:09.397,-0.302347,0.687763,0.244375,0.613065,-1.212439,-0.241218,0.380383,144.40918,162.658691,-34.545898,0,0
8330,2024 10 17,09:01:09.405,-0.311655,0.674492,0.247523,0.621822,-0.746117,-0.222175,-0.337901,100.280762,165.83252,-25.268555,0,0
8331,2024 10 17,09:01:09.413,-0.311655,0.674492,0.247523,0.621822,-0.746117,-0.222175,-0.337901,100.280762,165.83252,-25.268555,0,0
8332,2024 10 17,09:01:09.422,-0.316261,0.666052,0.249843,0.62764,-1.050325,0.095706,-0.054689,59.509277,98.754883,-28.686523,0,0
8333,2024 10 17,09:01:09.430,-0.321899,0.657626,0.252037,0.632761,-1.120151,0.019532,-0.050295,83.435059,115.17334,-13.977051,0,0
8334,2024 10 17,09:01:09.438,-0.328308,0.648773,0.253617,0.637955,-0.76516,-0.101566,0.021973,69.641113,110.778809,-9.765625,0,0
8335,2024 10 17,09:01:09.447,-0.331798,0.643039,0.254661,0.641528,-0.816919,-0.007324,0.170415,37.231445,62.744141,-11.474609,0,0
8336,2024 10 17,09:01:09.455,-0.333937,0.639497,0.255521,0.643614,-0.976592,0.080569,0.052248,28.076172,39.978027,-7.446289,0,0
8337,2024 10 17,09:01:09.463,-0.333937,0.639497,0.255521,0.643614,-0.976592,0.080569,0.052248,28.076172,39.978027,-7.446289,0,0
8338,2024 10 17,09:01:09.472,-0.335781,0.636656,0.256296,0.645161,-0.950224,0.024415,0.051271,22.094727,32.653809,-6.408691,0,0
8339,2024 10 17,09:01:09.480,-0.336591,0.634788,0.256833,0.646365,-0.954619,0.024415,0.051759,11.71875,19.470215,-7.873535,0,0
8340,2024 10 17,09:01:09.488,-0.336671,0.633714,0.257282,0.647198,-0.981475,0.061037,0.06885,4.455566,11.291504,-9.216309,0,0
8341,2024 10 17,09:01:09.497,-0.336194,0.633001,0.257685,0.647983,-1.040071,0.099612,-0.014161,-1.403809,6.835938,-12.512207,0,0
8342,2024 10 17,09:01:09.505,-0.33541,0.632347,0.258174,0.648833,-1.083529,0.092288,-0.011231,-3.356934,8.178711,-15.319824,0,0
8343,2024 10 17,09:01:09.513,-0.33541,0.632347,0.258174,0.648833,-1.083529,0.092288,-0.011231,-3.356934,8.178711,-15.319824,0,0
8344,2024 10 17,09:01:09.522,-0.334705,0.631354,0.258659,0.64997,-1.084506,0.081057,-0.021485,0.793457,13.427734,-16.174316,0,0
8345,2024 10 17,09:01:09.530,-0.334237,0.629904,0.259169,0.651412,-1.067904,0.08887,-0.009278,2.258301,20.141602,-17.150879,0,0
8346,2024 10 17,09:01:09.538,-0.333987,0.628101,0.259651,0.653088,-1.006378,0.075686,0.035157,3.601074,24.047852,-17.211914,0,0
8347,2024 10 17,09:01:09.547,-0.333641,0.626331,0.260167,0.654757,-0.992218,0.050783,0.057131,3.051758,21.728516,-18.127441,0,0
8348,2024 10 17,09:01:09.555,-0.333046,0.62476,0.260651,0.656366,-0.970244,0.044923,0.040529,-0.671387,18.981934,-18.798828,0,0
8349,2024 10 17,09:01:09.563,-0.333046,0.62476,0.260651,0.656366,-0.970244,0.044923,0.040529,-0.671387,18.981934,-18.798828,0,0
8350,2024 10 17,09:01:09.572,-0.332125,0.623495,0.261071,0.657867,-0.977569,0.043458,0.052248,-3.78418,15.258789,-19.470215,0,0
8351,2024 10 17,09:01:09.580,-0.33103,0.622409,0.261443,0.659297,-0.971221,0.042482,0.0459,-5.493164,13.48877,-19.470215,0,0
8352,2024 10 17,09:01:09.588,-0.329888,0.621425,0.261767,0.660668,-0.9888,0.056642,0.062014,-6.591797,12.207031,-18.981934,0,0
8353,2024 10 17,09:01:09.597,-0.328822,0.620401,0.262134,0.662016,-1.00296,0.051271,0.069826,-4.638672,13.000488,-18.981934,0,0
8354,2024 10 17,09:01:09.605,-0.327871,0.619262,0.262593,0.663371,-0.981475,0.056642,0.083499,-2.624512,14.160156,-19.104004,0,0
8355,2024 10 17,09:01:09.613,-0.327871,0.619262,0.262593,0.663371,-0.981475,0.056642,0.083499,-2.624512,14.160156,-19.104004,0,0
8356,2024 10 17,09:01:09.622,-0.32702,0.618056,0.263137,0.664698,-0.994171,0.036134,0.067873,-0.732422,13.671875,-18.798828,0,0
8357,2024 10 17,09:01:09.630,-0.326112,0.616978,0.263764,0.665896,-0.989288,0.04883,0.087893,-1.647949,10.681152,-19.287109,0,0
8358,2024 10 17,09:01:09.638,-0.325175,0.616005,0.264595,0.666925,-1.00589,0.047365,0.104007,0.732422,8.728027,-20.080566,0,0
8359,2024 10 17,09:01:09.647,-0.324242,0.614988,0.265464,0.667971,-1.004425,0.052736,0.112308,0.671387,9.277344,-20.385742,0,0
8360,2024 10 17,09:01:09.655,-0.3234,0.613939,0.266454,0.66895,-0.981475,0.040529,0.0918,3.051758,8.056641,-20.080566,0,0
8361,2024 10 17,09:01:09.663,-0.3234,0.613939,0.266454,0.66895,-0.981475,0.040529,0.0918,3.051758,8.056641,-20.080566,0,0
8362,2024 10 17,09:01:09.672,-0.322565,0.612977,0.267578,0.669786,-0.997101,0.032716,0.108402,3.601074,6.225586,-20.507813,0,0
8363,2024 10 17,09:01:09.680,-0.321744,0.612048,0.268885,0.670507,-1.017609,0.00586,0.10596,5.432129,4.150391,-21.54541,0,0
8364,2024 10 17,09:01:09.688,-0.320868,0.611048,0.270257,0.671286,-1.047395,0.01709,0.06885,5.126953,5.79834,-22.521973,0,0
8365,2024 10 17,09:01:09.697,-0.319869,0.610015,0.27176,0.672095,-1.049348,0.019044,0.138676,5.432129,5.126953,-25.32959,0,0
8366,2024 10 17,09:01:09.705,-0.318724,0.60884,0.273425,0.673028,-1.039582,0.026368,0.12598,5.554199,4.943848,-28.869629,0,0
8367,2024 10 17,09:01:09.713,-0.318724,0.60884,0.273425,0.673028,-1.039582,0.026368,0.12598,5.554199,4.943848,-28.869629,0,0
8368,2024 10 17,09:01:09.722,-0.317256,0.6076,0.275297,0.674079,-1.108432,0.055177,0.116214,4.272461,5.432129,-33.325195,0,0
8369,2024 10 17,09:01:09.730,-0.315302,0.606319,0.277394,0.675289,-1.163121,0.023438,0.101077,2.075195,4.943848,-40.527344,0,0
8370,2024 10 17,09:01:09.738,-0.312492,0.604897,0.279611,0.676953,-1.173376,-0.001465,0.06299,-3.417969,5.737305,-49.987793,0,0
8371,2024 10 17,09:01:09.747,-0.308617,0.603506,0.282073,0.678949,-1.316446,0.00586,-0.008301,-12.329102,2.868652,-62.255859,0,0
8372,2024 10 17,09:01:09.755,-0.303662,0.601878,0.284748,0.681507,-1.350627,0.039552,0.064943,-16.174316,7.324219,-74.401855,0,0
8373,2024 10 17,09:01:09.763,-0.303662,0.601878,0.284748,0.681507,-1.350627,0.039552,0.064943,-16.174316,7.324219,-74.401855,0,0
8374,2024 10 17,09:01:09.772,-0.298184,0.599491,0.287734,0.684767,-1.334513,0.085452,0.06885,-15.441895,14.831543,-85.693359,0,0
8375,2024 10 17,09:01:09.780,-0.292583,0.596413,0.29149,0.688274,-1.437544,0.102054,0.105472,-8.666992,18.310547,-95.214844,0,0
8376,2024 10 17,09:01:09.788,-0.286768,0.592272,0.295991,0.692364,-1.503464,0.133793,0.12598,-1.89209,28.869629,-109.619141,0,0
8377,2024 10 17,09:01:09.797,-0.280297,0.587174,0.301499,0.696964,-1.439497,0.159185,0.225105,3.540039,32.287598,-126.831055,0,0
8378,2024 10 17,09:01:09.805,-0.273273,0.581215,0.30835,0.701734,-1.469771,0.206549,0.210944,13.427734,33.02002,-144.104004,0,0
8379,2024 10 17,09:01:09.813,-0.265642,0.574619,0.317028,0.706215,-1.729057,0.214362,0.236335,27.404785,27.099609,-164.489746,0,0
8380,2024 10 17,09:01:09.822,-0.265642,0.574619,0.317028,0.706215,-1.729057,0.214362,0.236335,27.404785,27.099609,-164.489746,0,0
8381,2024 10 17,09:01:09.830,-0.256665,0.566667,0.327155,0.711323,-2.033753,0.221686,0.061525,28.381348,38.574219,-194.824219,0,0
8382,2024 10 17,09:01:09.838,-0.245408,0.556878,0.338412,0.717732,-2.211493,0.28956,-0.089846,23.193359,49.804688,-233.520508,0,0
8383,2024 10 17,09:01:09.847,-0.231459,0.545379,0.351189,0.72502,-2.523026,0.475112,-0.043458,19.226074,54.6875,-277.648926,0,0
8384,2024 10 17,09:01:09.855,-0.214572,0.531626,0.366007,0.733056,-2.963469,0.532243,-0.243171,22.460938,63.049316,-329.833984,0,0
8385,2024 10 17,09:01:09.863,-0.194548,0.51387,0.382331,0.742907,-3.29844,0.550798,-0.50734,15.563965,98.815918,-389.953613,0,0
8386,2024 10 17,09:01:09.872,-0.194548,0.51387,0.382331,0.742907,-3.29844,0.550798,-0.50734,15.563965,98.815918,-389.953613,0,0
8387,2024 10 17,09:01:09.880,-0.171143,0.491516,0.400137,0.754329,-3.765252,0.634297,-0.105472,12.084961,129.699707,-452.697754,0,0
8388,2024 10 17,09:01:09.888,-0.145763,0.462981,0.418756,0.767492,-3.625111,0.479995,-0.1919,14.099121,182.189941,-506.103516,0,0
8389,2024 10 17,09:01:09.897,-0.118461,0.430671,0.438892,0.779656,-3.836055,0.0459,0.244148,31.005859,193.54248,-543.273926,0,0
8390,2024 10 17,09:01:09.905,-0.090647,0.394574,0.458214,0.791287,-3.144139,-0.049318,-0.279794,21.789551,223.449707,-553.955078,0,1
8391,2024 10 17,09:01:09.913,-0.06285,0.358532,0.475113,0.801107,-3.115818,0.430189,-0.181646,9.033203,212.890625,-532.714844,0,0
8392,2024 10 17,09:01:09.922,-0.06285,0.358532,0.475113,0.801107,-3.115818,0.430189,-0.181646,9.033203,212.890625,-532.714844,0,0
8393,2024 10 17,09:01:09.930,-0.036174,0.322282,0.489155,0.809662,-2.744713,0.96878,-0.489273,-2.685547,217.224121,-518.676758,0,0
8394,2024 10 17,09:01:09.938,-0.009606,0.287152,0.50084,0.816462,-1.776421,1.442427,-1.104038,-15.014648,194.763184,-494.689941,0,0
8395,2024 10 17,09:01:09.947,0.017951,0.258049,0.5115,0.819424,-1.798883,1.230018,-0.819849,-7.263184,106.994629,-468.017578,0,0
8396,2024 10 17,09:01:09.955,0.048391,0.233045,0.517942,0.821635,0.04883,0.461928,-1.880428,-68.786621,57.861328,-453.369141,0,0
8397,2024 10 17,09:01:09.963,0.07634,0.215319,0.513633,0.827038,2.755455,0.984893,-2.110416,-201.599121,-6.713867,-291.931152,0,0
8398,2024 10 17,09:01:09.972,0.07634,0.215319,0.513633,0.827038,2.755455,0.984893,-2.110416,-201.599121,-6.713867,-291.931152,0,0
8399,2024 10 17,09:01:09.980,0.089097,0.216365,0.501457,0.83294,-0.58742,1.418012,-0.282235,-162.414551,-101.745605,-8.850098,0,0
8400,2024 10 17,09:01:09.988,0.08826,0.223098,0.485222,0.840831,-1.058626,1.618702,0.003418,-192.077637,-37.231445,114.379883,0,0
8401,2024 10 17,09:01:09.997,0.079759,0.230518,0.470076,0.84825,-1.007843,1.621632,-0.016114,-143.066406,-12.817383,171.813965,0,0
8402,2024 10 17,09:01:10.005,0.067583,0.236663,0.458233,0.854076,-0.572283,1.254433,-0.265145,-92.895508,19.042969,182.434082,0,0
8403,2024 10 17,09:01:10.013,0.054922,0.242633,0.449898,0.857732,-0.291513,0.906766,-0.34669,-49.682617,8.666992,173.400879,0,0
8404,2024 10 17,09:01:10.022,0.054922,0.242633,0.449898,0.857732,-0.291513,0.906766,-0.34669,-49.682617,8.666992,173.400879,0,0
8405,2024 10 17,09:01:10.030,0.043502,0.249837,0.44396,0.859412,0.022462,0.703635,-0.571306,-24.963379,-17.883301,162.231445,0,0
8406,2024 10 17,09:01:10.038,0.033277,0.260241,0.439294,0.859179,0.061525,0.674825,-0.510758,-7.141113,-64.147949,168.273926,0,0
8407,2024 10 17,09:01:10.047,0.022819,0.274212,0.434946,0.857385,-0.148442,0.717795,-0.45558,5.310059,-98.815918,190.429688,0,0
8408,2024 10 17,09:01:10.055,0.010778,0.29121,0.430489,0.85426,-0.389172,0.72805,-0.390637,16.601563,-121.398926,221.740723,0,0
8409,2024 10 17,09:01:10.063,-0.003673,0.310347,0.425568,0.850037,-0.569842,0.686544,-0.320322,25.512695,-130.126953,257.019043,0,0
8410,2024 10 17,09:01:10.072,-0.003673,0.310347,0.425568,0.850037,-0.569842,0.686544,-0.320322,25.512695,-130.126953,257.019043,0,0
8411,2024 10 17,09:01:10.080,-0.020749,0.330881,0.419844,0.844878,-0.6592,0.630879,-0.324717,30.517578,-133.728027,290.95459,0,0
8412,2024 10 17,09:01:10.088,-0.039701,0.352722,0.413116,0.838657,-0.733909,0.531266,-0.341319,31.616211,-141.723633,317.260742,0,0
8413,2024 10 17,09:01:10.097,-0.059514,0.375815,0.405145,0.831311,-0.792505,0.443861,-0.356456,25.878906,-155.395508,334.960938,0,0
8414,2024 10 17,09:01:10.105,-0.079303,0.400141,0.395793,0.822768,-0.855983,0.371105,-0.339366,15.930176,-171.081543,345.76416,0,0
8415,2024 10 17,09:01:10.113,-0.098529,0.425495,0.384953,0.813054,-0.951201,0.321299,-0.314951,3.356934,-187.988281,352.416992,0,0
8416,2024 10 17,09:01:10.122,-0.098529,0.425495,0.384953,0.813054,-0.951201,0.321299,-0.314951,3.356934,-187.988281,352.416992,0,0
8417,2024 10 17,09:01:10.130,-0.117031,0.451806,0.372588,0.802093,-1.131871,0.316904,-0.270516,-10.437012,-203.613281,358.642578,0,0
8418,2024 10 17,09:01:10.138,-0.134923,0.478706,0.358687,0.789924,-1.350627,0.336436,-0.18067,-22.094727,-214.416504,364.624023,0,0
8419,2024 10 17,09:01:10.147,-0.15244,0.505409,0.343365,0.776804,-1.472213,0.375988,-0.075198,-32.287598,-214.904785,368.896484,0,0
8420,2024 10 17,09:01:10.155,-0.169687,0.531334,0.326928,0.762895,-1.620167,0.356945,-0.062502,-38.024902,-212.036133,370.544434,0,0
8421,2024 10 17,09:01:10.163,-0.186508,0.556483,0.309742,0.748065,-1.759331,0.39845,0.064943,-41.381836,-211.669922,370.300293,0,0
8422,2024 10 17,09:01:10.172,-0.186508,0.556483,0.309742,0.748065,-1.759331,0.39845,0.064943,-41.381836,-211.669922,370.300293,0,0
8423,2024 10 17,09:01:10.180,-0.203203,0.580692,0.291916,0.732318,-1.835017,0.48439,0.144536,-41.381836,-208.557129,372.98584,0,0
8424,2024 10 17,09:01:10.188,-0.220305,0.60387,0.273663,0.715482,-1.981017,0.537614,0.199225,-34.545898,-205.993652,378.845215,0,0
8425,2024 10 17,09:01:10.197,-0.237887,0.625923,0.255389,0.697429,-2.201727,0.512711,0.238777,-24.169922,-203.979492,382.019043,0,0
8426,2024 10 17,09:01:10.205,-0.255712,0.64671,0.237201,0.678316,-2.425855,0.415052,0.153813,-16.113281,-201.538086,383.056641,0,0
8427,2024 10 17,09:01:10.213,-0.273416,0.666475,0.218878,0.658139,-2.634358,0.182134,0.050295,-14.282227,-201.599121,385.375977,0,0
8428,2024 10 17,09:01:10.222,-0.273416,0.666475,0.218878,0.658139,-2.634358,0.182134,0.050295,-14.282227,-201.599121,385.375977,0,0
8429,2024 10 17,09:01:10.230,-0.290375,0.685355,0.199951,0.637174,-2.747154,-0.315439,-0.090335,-22.644043,-200.561523,386.962891,0,0
8430,2024 10 17,09:01:10.238,-0.305511,0.703828,0.180304,0.615451,-2.869716,-0.903348,-0.052248,-41.442871,-208.068848,382.568359,0,0
8431,2024 10 17,09:01:10.247,-0.317737,0.722235,0.16097,0.592882,-3.138768,-1.407758,0.173345,-59.204102,-223.937988,362.182617,0,0
8432,2024 10 17,09:01:10.255,-0.327179,0.739624,0.143366,0.5704,-3.384869,-1.835505,0.518082,-62.683105,-225.219727,326.904297,0,0
8433,2024 10 17,09:01:10.263,-0.334589,0.754616,0.128654,0.549594,-3.22422,-2.312082,0.908231,-51.391602,-207.641602,278.991699,0,0
8434,2024 10 17,09:01:10.272,-0.340225,0.767051,0.117928,0.531011,-2.389233,-2.797449,1.250038,-34.606934,-196.777344,221.191406,0,0
8435,2024 10 17,09:01:10.280,-0.340225,0.767051,0.117928,0.531011,-2.389233,-2.797449,1.250038,-34.606934,-196.777344,221.191406,0,0
8436,2024 10 17,09:01:10.288,-0.343817,0.778696,0.11256,0.512594,-1.715873,-3.123631,1.767632,-16.784668,-225.341797,159.973145,0,0
8437,2024 10 17,09:01:10.297,-0.345699,0.790308,0.113233,0.493035,-1.956603,-3.568468,2.382885,5.310059,-263.000488,102.233887,0,0
8438,2024 10 17,09:01:10.305,-0.346747,0.800396,0.118242,0.474501,-3.125584,-4.074343,2.745689,26.184082,-249.084473,59.875488,0,0
8439,2024 10 17,09:01:10.313,-0.348096,0.805153,0.12396,0.463888,-3.714957,-4.366832,2.925382,43.151855,-124.145508,20.202637,0,0
8440,2024 10 17,09:01:10.322,-0.349858,0.801614,0.127249,0.467784,-3.141209,-3.619739,1.657277,42.419434,71.472168,-25.695801,0,0
8441,2024 10 17,09:01:10.330,-0.349858,0.801614,0.127249,0.467784,-3.141209,-3.619739,1.657277,42.419434,71.472168,-25.695801,0,0
8442,2024 10 17,09:01:10.338,-0.330028,0.800577,0.144403,0.478859,-3.184179,-3.083102,7.032441,-8.422852,10.681152,-364.135742,0,0
8443,2024 10 17,09:01:10.347,-0.307839,0.776814,0.145807,0.529655,0.028321,2.156316,-4.770165,-322.570801,611.51123,-371.337891,1,0
8444,2024 10 17,09:01:10.355,-0.291825,0.769564,0.160763,0.544761,-1.311075,1.000519,-0.657247,-22.460938,-77.453613,-291.564941,0,0
8445,2024 10 17,09:01:10.363,-0.275047,0.762184,0.176763,0.558731,-2.088931,-0.283212,0.474624,-8.728027,232.116699,-305.175781,0,0
8446,2024 10 17,09:01:10.372,-0.268254,0.745369,0.193514,0.578806,-1.351604,-0.701193,0.043458,99.79248,130.615234,-272.338867,0,0
8447,2024 10 17,09:01:10.380,-0.268254,0.745369,0.193514,0.578806,-1.351604,-0.701193,0.043458,99.79248,130.615234,-272.338867,0,0
8448,2024 10 17,09:01:10.388,-0.264468,0.733533,0.209451,0.590014,-2.197821,-0.858913,1.237342,66.101074,155.395508,-192.077637,0,0
8449,2024 10 17,09:01:10.397,-0.261287,0.718564,0.21319,0.608231,-1.142613,-0.057619,-1.033234,-1.89209,217.895508,-123.779297,0,0
8450,2024 10 17,09:01:10.405,-0.261686,0.708706,0.218216,0.617769,-1.462935,0.292001,-0.042482,63.842773,125.427246,-80.383301,0,0
8451,2024 10 17,09:01:10.413,-0.270213,0.695908,0.223799,0.626587,-1.125034,-0.239265,-0.248543,139.221191,180.114746,-32.653809,0,0
8452,2024 10 17,09:01:10.422,-0.279331,0.68343,0.227905,0.634788,-0.858913,-0.18067,0.051759,109.069824,156.433105,-22.827148,0,0
8453,2024 10 17,09:01:10.430,-0.279331,0.68343,0.227905,0.634788,-0.858913,-0.18067,0.051759,109.069824,156.433105,-22.827148,0,0
8454,2024 10 17,09:01:10.438,-0.285621,0.673164,0.230432,0.642006,-1.022492,-0.015137,-0.083987,76.11084,136.535645,-22.705078,0,0
8455,2024 10 17,09:01:10.447,-0.291859,0.663894,0.232367,0.648127,-1.00296,-0.02002,-0.149907,78.552246,120.727539,-9.033203,0,0
8456,2024 10 17,09:01:10.455,-0.297929,0.656082,0.23409,0.652683,-0.900418,-0.106449,0.104495,67.077637,98.999023,-2.990723,0,0
8457,2024 10 17,09:01:10.463,-0.301589,0.650122,0.234827,0.65669,-0.762719,0.025391,0.21485,36.010742,73.669434,-8.178711,0,0
8458,2024 10 17,09:01:10.472,-0.303858,0.646404,0.23563,0.659022,-0.956084,0.050783,0.012207,27.22168,40.588379,-6.164551,0,0
8459,2024 10 17,09:01:10.480,-0.303858,0.646404,0.23563,0.659022,-0.956084,0.050783,0.012207,27.22168,40.588379,-6.164551,0,0
8460,2024 10 17,09:01:10.488,-0.305592,0.64376,0.23643,0.66052,-0.987335,0.037599,0.104007,22.888184,32.287598,-5.004883,0,0
8461,2024 10 17,09:01:10.497,-0.306926,0.641386,0.237095,0.661972,-0.965361,0.030763,0.028809,18.676758,28.076172,-6.408691,0,0
8462,2024 10 17,09:01:10.505,-0.307509,0.63979,0.237782,0.662998,-1.001984,0.08301,0.036622,10.192871,15.991211,-9.338379,0,0
8463,2024 10 17,09:01:10.513,-0.307621,0.638517,0.238585,0.663885,-1.046907,0.055177,0.013672,8.483887,14.282227,-12.512207,0,0
8464,2024 10 17,09:01:10.522,-0.307349,0.637195,0.239351,0.665004,-1.058626,0.071291,-0.024903,4.577637,15.075684,-15.869141,0,0
8465,2024 10 17,09:01:10.530,-0.307349,0.637195,0.239351,0.665004,-1.058626,0.071291,-0.024903,4.577637,15.075684,-15.869141,0,0
8466,2024 10 17,09:01:10.538,-0.306961,0.635849,0.240111,0.666196,-1.056673,0.04883,-0.003906,3.78418,16.418457,-16.601563,0,0
8467,2024 10 17,09:01:10.547,-0.306562,0.634341,0.240722,0.667596,-1.018098,0.048341,-0.012207,3.662109,19.165039,-16.357422,0,0
8468,2024 10 17,09:01:10.555,-0.306074,0.632934,0.241303,0.668944,-0.976104,0.064943,0.080569,1.220703,17.089844,-16.479492,0,0
8469,2024 10 17,09:01:10.563,-0.305705,0.631547,0.241944,0.670191,-0.969268,0.041993,0.072268,4.02832,16.174316,-15.686035,0,0
8470,2024 10 17,09:01:10.572,-0.305171,0.63033,0.242596,0.671344,-0.952666,0.040529,0.074709,1.77002,12.756348,-16.296387,0,0
8471,2024 10 17,09:01:10.580,-0.305171,0.63033,0.242596,0.671344,-0.952666,0.040529,0.074709,1.77002,12.756348,-16.296387,0,0
8472,2024 10 17,09:01:10.588,-0.304521,0.629335,0.243335,0.672304,-0.98001,0.037111,0.061037,1.159668,9.277344,-16.601563,0,0
8473,2024 10 17,09:01:10.597,-0.303589,0.628559,0.244081,0.67318,-1.003937,0.037599,0.021485,-1.037598,6.896973,-18.005371,0,0
8474,2024 10 17,09:01:10.605,-0.302535,0.627843,0.244848,0.674044,-1.001495,0.053224,0.06592,-2.197266,5.859375,-18.920898,0,0
8475,2024 10 17,09:01:10.613,-0.301494,0.627124,0.245696,0.674871,-1.003449,0.047853,0.074709,0.0,6.469727,-19.226074,0,0
8476,2024 10 17,09:01:10.622,-0.300676,0.62621,0.24665,0.675736,-1.032746,0.064455,0.078127,3.78418,7.629395,-18.859863,0,0
8477,2024 10 17,09:01:10.630,-0.300676,0.62621,0.24665,0.675736,-1.032746,0.064455,0.078127,3.78418,7.629395,-18.859863,0,0
8478,2024 10 17,09:01:10.638,-0.300081,0.625102,0.247815,0.676599,-1.008332,0.02295,0.074709,6.04248,9.94873,-19.348145,0,0
8479,2024 10 17,09:01:10.647,-0.299523,0.623978,0.249018,0.677442,-0.944365,-0.000488,0.098148,6.469727,7.93457,-18.920898,0,0
8480,2024 10 17,09:01:10.655,-0.298812,0.62311,0.250187,0.678124,-0.982452,0.032228,0.074709,4.02832,4.394531,-18.493652,0,0
8481,2024 10 17,09:01:10.663,-0.297947,0.622422,0.251366,0.6787,-0.988311,0.029298,0.079592,3.112793,2.929688,-19.348145,0,0
8482,2024 10 17,09:01:10.672,-0.297142,0.621708,0.252579,0.679257,-0.963897,0.0,0.110843,4.089355,2.502441,-18.981934,0,0
8483,2024 10 17,09:01:10.680,-0.296291,0.621085,0.253806,0.679741,-0.963897,0.0,0.110843,4.089355,2.502441,-18.981934,0,0
8484,2024 10 17,09:01:10.688,-0.296291,0.621085,0.253806,0.679741,-1.015656,0.027833,0.062014,4.882813,1.586914,-18.737793,0,0
8485,2024 10 17,09:01:10.697,-0.295383,0.620522,0.255142,0.68015,-1.049348,0.027833,0.116703,5.554199,0.366211,-19.897461,0,0
8486,2024 10 17,09:01:10.705,-0.294732,0.61955,0.256613,0.680765,-1.064486,0.032228,0.051759,8.361816,6.225586,-20.751953,0,0
8487,2024 10 17,09:01:10.713,-0.293984,0.618424,0.258119,0.681542,-1.106967,0.062502,0.055666,6.713867,7.8125,-23.4375,0,0
8488,2024 10 17,09:01:10.722,-0.293078,0.617073,0.259765,0.682531,-1.085482,0.040529,0.10303,7.263184,10.070801,-27.770996,0,0
8489,2024 10 17,09:01:10.730,-0.291821,0.61546,0.261464,0.683876,-1.116733,0.031739,0.116703,4.699707,12.390137,-33.447266,0,0
8490,2024 10 17,09:01:10.738,-0.291821,0.61546,0.261464,0.683876,-1.116733,0.031739,0.116703,4.699707,12.390137,-33.447266,0,0
8491,2024 10 17,09:01:10.747,-0.289865,0.613889,0.263414,0.68537,-1.211463,0.004395,0.047853,2.319336,10.620117,-40.527344,0,0
8492,2024 10 17,09:01:10.755,-0.286834,0.612416,0.265618,0.68711,-1.238807,0.017579,0.078127,-6.469727,7.446289,-53.161621,0,0
8493,2024 10 17,09:01:10.763,-0.282945,0.61059,0.268119,0.689372,-1.265664,0.040529,0.04883,-10.864258,10.986328,-64.453125,0,0
8494,2024 10 17,09:01:10.772,-0.27833,0.608487,0.270985,0.691985,-1.312052,0.031739,0.100101,-8.850098,12.451172,-74.279785,0,0
8495,2024 10 17,09:01:10.780,-0.273294,0.605747,0.274334,0.69507,-1.317911,0.090823,0.114261,-8.361816,19.165039,-84.411621,0,0
8496,2024 10 17,09:01:10.788,-0.273294,0.605747,0.274334,0.69507,-1.317911,0.090823,0.114261,-8.361816,19.165039,-84.411621,0,0
8497,2024 10 17,09:01:10.797,-0.268323,0.602226,0.278463,0.698416,-1.397015,0.080569,0.117679,-0.366211,23.376465,-93.62793,0,0
8498,2024 10 17,09:01:10.805,-0.26301,0.598001,0.283345,0.702094,-1.437056,0.13477,0.199225,6.469727,28.991699,-105.46875,0,0
8499,2024 10 17,09:01:10.813,-0.257039,0.593001,0.289247,0.706128,-1.399457,0.1377,0.189947,9.277344,30.212402,-122.98584,0,0
8500,2024 10 17,09:01:10.822,-0.2503,0.587433,0.296469,0.710196,-1.481002,0.164068,0.188482,18.127441,28.442383,-139.770508,0,0
8501,2024 10 17,09:01:10.830,-0.242556,0.581291,0.305148,0.714249,-1.735404,0.181158,0.227058,23.864746,26.489258,-162.414551,0,0
8502,2024 10 17,09:01:10.838,-0.242556,0.581291,0.305148,0.714249,-1.735404,0.181158,0.227058,23.864746,26.489258,-162.414551,0,0
8503,2024 10 17,09:01:10.847,-0.233172,0.573802,0.315066,0.719108,-1.90875,0.172857,-0.024903,22.094727,36.010742,-193.237305,0,0
8504,2024 10 17,09:01:10.855,-0.221637,0.564747,0.326203,0.724934,-2.128483,0.19776,-0.136235,18.188477,46.386719,-228.69873,0,0
8505,2024 10 17,09:01:10.863,-0.207654,0.553671,0.338395,0.731995,-2.388257,0.389172,-0.057131,12.268066,60.241699,-268.981934,0,0
8506,2024 10 17,09:01:10.872,-0.191373,0.539829,0.352234,0.740197,-2.685629,0.512711,-0.18067,13.73291,79.406738,-315.856934,0,0
8507,2024 10 17,09:01:10.880,-0.171831,0.523191,0.36792,0.749253,-2.998138,0.532731,-0.468764,11.84082,90.698242,-372.131348,0,0
8508,2024 10 17,09:01:10.888,-0.171831,0.523191,0.36792,0.749253,-2.998138,0.532731,-0.468764,11.84082,90.698242,-372.131348,0,0
8509,2024 10 17,09:01:10.897,-0.148872,0.502889,0.385251,0.75929,-3.512803,0.538591,-0.222175,6.04248,117.126465,-429.931641,0,0
8510,2024 10 17,09:01:10.905,-0.123688,0.477158,0.403603,0.770795,-3.369243,0.487808,-0.169439,9.94873,162.597656,-481.994629,0,0
8511,2024 10 17,09:01:10.913,-0.096608,0.447329,0.423598,0.781747,-3.766228,0.195807,0.254891,25.390625,177.55127,-522.888184,0,0
8512,2024 10 17,09:01:10.922,-0.06912,0.413157,0.444057,0.792046,-3.480087,-0.137211,-0.201178,32.653809,216.125488,-545.776367,0,1
8513,2024 10 17,09:01:10.930,-0.041471,0.37721,0.462759,0.801153,-3.200781,0.098148,-0.16895,16.784668,218.994141,-538.391113,0,0
8514,2024 10 17,09:01:10.938,-0.041471,0.37721,0.462759,0.801153,-3.200781,0.098148,-0.16895,16.784668,218.994141,-538.391113,0,0
8515,2024 10 17,09:01:10.947,-0.015106,0.340547,0.478351,0.809308,-3.088473,0.574236,-0.577654,-1.464844,233.398438,-518.310547,0,0
8516,2024 10 17,09:01:10.955,0.011838,0.303663,0.491566,0.816095,-2.229072,1.352092,-1.080111,-18.493652,221.801758,-519.042969,0,0
8517,2024 10 17,09:01:10.963,0.039595,0.270381,0.503613,0.819573,-1.769097,1.39555,-1.075716,-5.004883,151.489258,-494.812012,0,0
8518,2024 10 17,09:01:10.972,0.070797,0.242724,0.513874,0.81976,-1.480514,1.434614,-1.129917,-23.254395,74.09668,-498.657227,0,0
8519,2024 10 17,09:01:10.980,0.106337,0.219424,0.519165,0.819154,0.244636,0.721702,-2.353099,-84.04541,-7.568359,-489.379883,0,0
8520,2024 10 17,09:01:10.988,0.106337,0.219424,0.519165,0.819154,0.244636,0.721702,-2.353099,-84.04541,-7.568359,-489.379883,0,0
8521,2024 10 17,09:01:10.997,0.137207,0.205094,0.514428,0.821264,3.03769,1.395062,-0.995636,-180.664063,-59.814453,-275.695801,0,0
8522,2024 10 17,09:01:11.005,0.147992,0.209234,0.503289,0.825239,-0.68215,2.321848,0.0918,-120.422363,-121.337891,30.334473,0,0
8523,2024 10 17,09:01:11.013,0.139196,0.219544,0.49128,0.831306,-1.008332,2.165105,0.265633,-103.881836,-23.31543,215.026855,0,0
8524,2024 10 17,09:01:11.022,0.116371,0.231171,0.482697,0.836673,-1.179235,1.532273,0.029786,-10.437012,28.137207,327.697754,0,0
8525,2024 10 17,09:01:11.030,0.087926,0.242115,0.476493,0.840597,-0.850124,1.032746,-0.38966,19.470215,64.880371,349.060059,0,0
8526,2024 10 17,09:01:11.038,0.087926,0.242115,0.476493,0.840597,-0.850124,1.032746,-0.38966,19.470215,64.880371,349.060059,0,0
8527,2024 10 17,09:01:11.047,0.060578,0.253075,0.471572,0.842557,-0.47853,0.664083,-0.652364,30.639648,36.682129,326.721191,0,0
8528,2024 10 17,09:01:11.055,0.037378,0.265756,0.466796,0.842661,-0.146489,0.454604,-0.87698,25.146484,-11.291504,296.630859,0,0
8529,2024 10 17,09:01:11.063,0.018129,0.28166,0.461311,0.841148,-0.1919,0.438002,-0.778344,14.282227,-68.664551,283.447266,0,0
8530,2024 10 17,09:01:11.072,0.000673,0.300643,0.454289,0.838591,-0.404309,0.552263,-0.652852,0.488281,-106.628418,291.931152,0,0
8531,2024 10 17,09:01:11.080,-0.017043,0.321975,0.445486,0.835215,-0.679708,0.624043,-0.505875,-9.155273,-124.633789,314.27002,0,0
8532,2024 10 17,09:01:11.088,-0.017043,0.321975,0.445486,0.835215,-0.679708,0.624043,-0.505875,-9.155273,-124.633789,314.27002,0,0
8533,2024 10 17,09:01:11.097,-0.03626,0.344737,0.434843,0.831116,-0.843287,0.615741,-0.471206,-16.784668,-131.530762,342.712402,0,0
8534,2024 10 17,09:01:11.105,-0.056935,0.3686,0.422441,0.826097,-0.920927,0.534196,-0.393078,-23.925781,-136.291504,367.431641,0,0
8535,2024 10 17,09:01:11.113,-0.078241,0.393011,0.408216,0.820232,-0.911649,0.448744,-0.466323,-36.071777,-143.127441,381.652832,0,0
8536,2024 10 17,09:01:11.122,-0.098736,0.418571,0.392313,0.813105,-0.926298,0.388195,-0.397473,-51.574707,-164.123535,386.474609,0,0
8537,2024 10 17,09:01:11.130,-0.117655,0.445149,0.374931,0.804628,-1.065951,0.383801,-0.371593,-67.626953,-186.035156,383.300781,0,0
8538,2024 10 17,09:01:11.138,-0.134684,0.47252,0.35662,0.794611,-1.339885,0.393567,-0.225593,-79.162598,-206.726074,374.633789,0,0
8539,2024 10 17,09:01:11.147,-0.134684,0.47252,0.35662,0.794611,-1.339885,0.393567,-0.225593,-79.162598,-206.726074,374.633789,0,0
8540,2024 10 17,09:01:11.155,-0.1503,0.499718,0.337517,0.783437,-1.48442,0.429701,-0.150395,-87.646484,-212.646484,367.980957,0,0
8541,2024 10 17,09:01:11.163,-0.165437,0.526319,0.317531,0.771228,-1.583056,0.536149,-0.056642,-91.430664,-213.378906,370.422363,0,0
8542,2024 10 17,09:01:11.172,-0.180834,0.552345,0.296799,0.75771,-1.758354,0.646016,0.093753,-88.500977,-214.172363,378.173828,0,0
8543,2024 10 17,09:01:11.180,-0.196851,0.577513,0.275777,0.742748,-1.899472,0.738792,0.227546,-78.735352,-214.477539,384.765625,0,0
8544,2024 10 17,09:01:11.188,-0.2137,0.601609,0.255142,0.726156,-2.059633,0.787133,0.298349,-60.058594,-214.660645,388.61084,0,0
8545,2024 10 17,09:01:11.197,-0.2137,0.601609,0.255142,0.726156,-2.059633,0.787133,0.298349,-60.058594,-214.660645,388.61084,0,0
8546,2024 10 17,09:01:11.205,-0.231358,0.624332,0.235573,0.707946,-2.271554,0.737327,0.289071,-37.414551,-216.308594,386.901855,0,0
8547,2024 10 17,09:01:11.213,-0.249418,0.645776,0.217245,0.688163,-2.475173,0.641133,0.255379,-18.066406,-219.055176,383.056641,0,0
8548,2024 10 17,09:01:11.222,-0.267682,0.665993,0.199656,0.667036,-2.642659,0.406262,0.118168,-6.408691,-221.557617,382.446289,0,0
8549,2024 10 17,09:01:11.230,-0.285586,0.685425,0.18199,0.644603,-2.789148,0.02295,-0.024415,-8.117676,-225.769043,385.864258,0,0
8550,2024 10 17,09:01:11.238,-0.302322,0.704151,0.163762,0.621252,-2.957121,-0.36964,0.014161,-18.676758,-227.722168,384.521484,0,0
8551,2024 10 17,09:01:11.247,-0.302322,0.704151,0.163762,0.621252,-2.957121,-0.36964,0.014161,-18.676758,-227.722168,384.521484,0,0
8552,2024 10 17,09:01:11.255,-0.317217,0.721824,0.145719,0.597586,-3.259865,-0.684591,0.23487,-26.245117,-226.989746,368.164063,0,0
8553,2024 10 17,09:01:11.263,-0.330425,0.737336,0.128973,0.57491,-3.460067,-1.058626,0.49855,-22.583008,-207.946777,338.989258,0,0
8554,2024 10 17,09:01:11.272,-0.34254,0.749688,0.113956,0.554661,-3.196387,-1.529832,0.571306,-10.070801,-174.560547,305.480957,0,0
8555,2024 10 17,09:01:11.280,-0.353471,0.759696,0.101527,0.536295,-2.47029,-2.01178,0.70217,2.197266,-164.245605,265.563965,0,0
8556,2024 10 17,09:01:11.288,-0.362409,0.769557,0.093318,0.51743,-2.03473,-2.29841,1.090365,11.779785,-196.960449,217.163086,0,0
8557,2024 10 17,09:01:11.297,-0.362409,0.769557,0.093318,0.51743,-2.03473,-2.29841,1.090365,11.779785,-196.960449,217.163086,0,0
8558,2024 10 17,09:01:11.305,-0.369231,0.779582,0.090182,0.497783,-1.936583,-2.707602,1.706107,23.498535,-226.806641,162.841797,0,0
8559,2024 10 17,09:01:11.313,-0.374589,0.789093,0.091562,0.478155,-2.706137,-3.468856,2.183172,36.804199,-243.774414,119.873047,0,0
8560,2024 10 17,09:01:11.322,-0.378688,0.795956,0.095022,0.462622,-3.430769,-3.942503,2.679769,44.189453,-179.626465,78.430176,0,0
8561,2024 10 17,09:01:11.330,-0.382255,0.796829,0.097716,0.457599,-3.028413,-4.079226,2.559649,46.020508,-38.452148,32.531738,0,0
8562,2024 10 17,09:01:11.338,-0.378832,0.796494,0.100733,0.460366,-11.834834,-6.468459,0.398938,-77.087402,-30.822754,-76.782227,0,0
8563,2024 10 17,09:01:11.347,-0.378832,0.796494,0.100733,0.460366,-11.834834,-6.468459,0.398938,-77.087402,-30.822754,-76.782227,0,0
8564,2024 10 17,09:01:11.355,-0.355077,0.796255,0.122075,0.474337,-2.597247,-5.120762,2.691488,-104.309082,123.718262,-362.976074,0,0
8565,2024 10 17,09:01:11.363,-0.320874,0.783499,0.12623,0.516948,-0.335459,0.975127,-1.800836,-309.265137,423.339844,-388.61084,1,0
8566,2024 10 17,09:01:11.372,-0.298312,0.777329,0.137697,0.536478,-1.45024,2.283273,-0.396008,-156.677246,43.762207,-316.162109,0,0
8567,2024 10 17,09:01:11.380,-0.282209,0.769171,0.151469,0.552984,-2.036683,-0.252937,0.353526,-11.291504,198.608398,-290.283203,0,0
8568,2024 10 17,09:01:11.388,-0.271126,0.755632,0.167617,0.572202,-1.452681,-0.080081,0.643574,56.274414,141.235352,-289.18457,0,0
8569,2024 10 17,09:01:11.397,-0.271126,0.755632,0.167617,0.572202,-1.452681,-0.080081,0.643574,56.274414,141.235352,-289.18457,0,0
8570,2024 10 17,09:01:11.405,-0.264833,0.743835,0.183969,0.58543,-1.942442,-0.515641,0.578631,41.015625,130.493164,-222.595215,0,0
8571,2024 10 17,09:01:11.413,-0.260203,0.731986,0.191277,0.59992,-1.39848,0.17774,-0.172857,10.253906,180.847168,-143.859863,0,0
8572,2024 10 17,09:01:11.422,-0.261068,0.719904,0.197208,0.612119,-1.408734,0.086428,-0.709983,80.26123,163.574219,-94.116211,0,0
8573,2024 10 17,09:01:11.430,-0.2676,0.707402,0.20398,0.621582,-1.187536,-0.087893,-0.06885,125.427246,164.428711,-58.227539,0,0
8574,2024 10 17,09:01:11.438,-0.275667,0.694396,0.209431,0.630841,-1.040559,-0.254891,0.02002,116.943359,170.10498,-40.649414,0,0
8575,2024 10 17,09:01:11.447,-0.275667,0.694396,0.209431,0.630841,-1.040559,-0.254891,0.02002,116.943359,170.10498,-40.649414,0,0
8576,2024 10 17,09:01:11.455,-0.281607,0.6827,0.212607,0.639857,-1.016144,0.084964,-0.132817,75.98877,155.151367,-36.376953,0,0
8577,2024 10 17,09:01:11.463,-0.288023,0.672147,0.215693,0.647099,-1.17777,0.106449,-0.187506,96.862793,138.183594,-22.216797,0,0
8578,2024 10 17,09:01:11.472,-0.296099,0.661308,0.218942,0.653499,-0.860866,-0.060549,0.231941,105.773926,139.587402,-10.803223,0,0
8579,2024 10 17,09:01:11.480,-0.302529,0.651988,0.221313,0.659097,-0.753929,-0.063478,0.030763,74.34082,108.215332,-12.084961,0,0
8580,2024 10 17,09:01:11.488,-0.306464,0.646133,0.223418,0.662327,-0.977569,0.076662,0.050295,54.748535,61.401367,-10.681152,0,0
8581,2024 10 17,09:01:11.497,-0.306464,0.646133,0.223418,0.662327,-0.977569,0.076662,0.050295,54.748535,61.401367,-10.681152,0,0
8582,2024 10 17,09:01:11.505,-0.310277,0.641133,0.225461,0.664713,-0.943876,-0.00586,0.210944,54.138184,59.631348,-6.774902,0,0
8583,2024 10 17,09:01:11.513,-0.312876,0.636774,0.22683,0.667214,-0.872585,0.072268,-0.034669,32.226563,46.936035,-11.413574,0,0
8584,2024 10 17,09:01:11.522,-0.314029,0.63433,0.228438,0.668451,-1.02884,0.051759,0.115238,24.963379,21.118164,-14.343262,0,0
8585,2024 10 17,09:01:11.530,-0.314642,0.631975,0.22981,0.669922,-0.971709,0.033692,0.077151,17.700195,26.977539,-17.028809,0,0
8586,2024 10 17,09:01:11.538,-0.314603,0.630084,0.230919,0.671339,-0.96878,0.041505,-0.013672,8.361816,17.39502,-18.615723,0,0
8587,2024 10 17,09:01:11.547,-0.314603,0.630084,0.230919,0.671339,-0.96878,0.041505,-0.013672,8.361816,17.39502,-18.615723,0,0
8588,2024 10 17,09:01:11.555,-0.313862,0.62903,0.23194,0.672321,-1.02591,0.040529,0.066897,2.319336,9.277344,-19.40918,0,0
8589,2024 10 17,09:01:11.563,-0.312867,0.627964,0.232639,0.673539,-0.982452,0.063967,0.050783,-2.01416,12.573242,-19.836426,0,0
8590,2024 10 17,09:01:11.572,-0.311799,0.627093,0.233268,0.674627,-0.957549,0.058107,0.085452,-3.112793,8.178711,-18.615723,0,0
8591,2024 10 17,09:01:11.580,-0.310741,0.626436,0.23388,0.675513,-0.984405,0.060549,0.092776,-2.868652,6.286621,-17.211914,0,0
8592,2024 10 17,09:01:11.588,-0.309834,0.625721,0.234439,0.676398,-0.980499,0.055177,0.073733,-1.647949,7.751465,-15.686035,0,0
8593,2024 10 17,09:01:11.597,-0.309042,0.625036,0.235007,0.677196,-1.006867,0.056154,0.055666,-0.610352,6.774902,-14.648438,0,0
8594,2024 10 17,09:01:11.605,-0.309042,0.625036,0.235007,0.677196,-1.006867,0.056154,0.055666,-0.610352,6.774902,-14.648438,0,0
8595,2024 10 17,09:01:11.613,-0.308358,0.624255,0.235571,0.678032,-1.024934,0.055177,0.044923,-0.12207,8.972168,-14.343262,0,0
8596,2024 10 17,09:01:11.622,-0.307695,0.62338,0.236066,0.678965,-0.990753,0.060549,0.079592,0.0,10.742188,-14.343262,0,0
8597,2024 10 17,09:01:11.630,-0.307148,0.622442,0.236652,0.679869,-1.012726,0.073733,0.079592,2.197266,10.192871,-14.221191,0,0
8598,2024 10 17,09:01:11.638,-0.306756,0.621387,0.237344,0.68077,-0.960967,0.066408,0.132817,3.90625,11.413574,-14.282227,0,0
8599,2024 10 17,09:01:11.647,-0.306538,0.62027,0.238215,0.681582,-0.956572,0.031739,0.131352,7.507324,10.192871,-13.73291,0,0
8600,2024 10 17,09:01:11.655,-0.306538,0.62027,0.238215,0.681582,-0.956572,0.031739,0.131352,7.507324,10.192871,-13.73291,0,0
8601,2024 10 17,09:01:11.663,-0.306223,0.619319,0.239197,0.682243,-0.98587,0.040529,0.101566,8.056641,7.385254,-14.282227,0,0
8602,2024 10 17,09:01:11.672,-0.305959,0.618376,0.240232,0.682853,-0.969756,0.072268,0.137211,7.507324,6.958008,-14.465332,0,0
8603,2024 10 17,09:01:11.680,-0.305757,0.617434,0.241424,0.683376,-1.009308,0.035157,0.073244,9.277344,6.164551,-14.892578,0,0
8604,2024 10 17,09:01:11.688,-0.30548,0.616501,0.242654,0.683906,-1.00589,0.025391,0.100101,10.498047,6.591797,-15.319824,0,0
8605,2024 10 17,09:01:11.697,-0.30521,0.615442,0.24386,0.68455,-1.02884,0.033204,0.058596,9.82666,8.850098,-15.74707,0,0
8606,2024 10 17,09:01:11.705,-0.30521,0.615442,0.24386,0.68455,-1.02884,0.033204,0.058596,9.82666,8.850098,-15.74707,0,0
8607,2024 10 17,09:01:11.713,-0.304925,0.614343,0.245139,0.685208,-1.039582,0.02588,0.080569,10.375977,8.178711,-16.784668,0,0
8608,2024 10 17,09:01:11.722,-0.304544,0.613127,0.246442,0.685999,-1.021516,0.037599,0.092288,9.399414,10.620117,-18.798828,0,0
8609,2024 10 17,09:01:11.730,-0.304076,0.611873,0.247887,0.686805,-1.037141,0.050295,0.139653,10.620117,7.629395,-20.812988,0,0
8610,2024 10 17,09:01:11.738,-0.303387,0.610645,0.249612,0.687577,-1.108432,0.061037,0.061037,12.634277,8.239746,-24.230957,0,0
8611,2024 10 17,09:01:11.747,-0.302373,0.609424,0.251525,0.68841,-1.092807,0.0459,0.103519,9.033203,5.493164,-29.663086,0,0
8612,2024 10 17,09:01:11.755,-0.302373,0.609424,0.251525,0.68841,-1.092807,0.0459,0.103519,9.033203,5.493164,-29.663086,0,0
8613,2024 10 17,09:01:11.763,-0.300888,0.608252,0.25376,0.689276,-1.174841,0.020997,0.084475,9.70459,2.868652,-35.400391,0,0
8614,2024 10 17,09:01:11.772,-0.298404,0.607262,0.256158,0.690341,-1.205603,0.025391,0.101077,1.159668,0.0,-45.10498,0,0
8615,2024 10 17,09:01:11.780,-0.295064,0.606127,0.258593,0.691865,-1.230506,0.004395,0.070803,-7.263184,1.953125,-54.870605,0,0
8616,2024 10 17,09:01:11.788,-0.290435,0.605095,0.261088,0.693788,-1.231971,0.062014,0.1377,-16.052246,-0.915527,-66.52832,0,0
8617,2024 10 17,09:01:11.797,-0.285235,0.603706,0.264038,0.696035,-1.410688,0.094729,0.126469,-14.770508,2.441406,-76.782227,0,0
8618,2024 10 17,09:01:11.805,-0.285235,0.603706,0.264038,0.696035,-1.410688,0.094729,0.126469,-14.770508,2.441406,-76.782227,0,0
8619,2024 10 17,09:01:11.813,-0.279429,0.601572,0.267486,0.698915,-1.377972,0.080569,0.118168,-13.61084,10.131836,-90.209961,0,0
8620,2024 10 17,09:01:11.822,-0.273055,0.598734,0.271591,0.702279,-1.348186,0.122562,0.121586,-10.620117,14.709473,-102.233887,0,0
8621,2024 10 17,09:01:11.830,-0.266672,0.595123,0.276585,0.705844,-1.410688,0.13184,0.214362,-1.037598,19.836426,-111.694336,0,0
8622,2024 10 17,09:01:11.838,-0.259752,0.590779,0.282601,0.70968,-1.534715,0.136235,0.121097,3.723145,20.629883,-128.479004,0,0
8623,2024 10 17,09:01:11.847,-0.251621,0.585814,0.289779,0.713818,-1.660207,0.162603,0.164068,5.065918,22.399902,-150.45166,0,0
8624,2024 10 17,09:01:11.855,-0.251621,0.585814,0.289779,0.713818,-1.660207,0.162603,0.164068,5.065918,22.399902,-150.45166,0,0
8625,2024 10 17,09:01:11.863,-0.242172,0.579679,0.298116,0.718646,-1.843806,0.193854,0.081057,7.141113,29.541016,-176.940918,0,0
8626,2024 10 17,09:01:11.872,-0.231069,0.571937,0.30772,0.724433,-2.049379,0.291513,0.043947,7.385254,42.297363,-208.740234,0,0
8627,2024 10 17,09:01:11.880,-0.21837,0.562147,0.318985,0.731131,-2.408765,0.440931,0.089358,15.197754,55.358887,-244.873047,0,0
8628,2024 10 17,09:01:11.888,-0.203815,0.54957,0.332216,0.738962,-2.626057,0.507828,-0.000977,21.911621,78.735352,-289.672852,0,0
8629,2024 10 17,09:01:11.897,-0.18702,0.533222,0.347174,0.748443,-2.884365,0.5215,-0.312998,22.949219,108.947754,-340.881348,0,0
8630,2024 10 17,09:01:11.905,-0.18702,0.533222,0.347174,0.748443,-2.884365,0.5215,-0.312998,22.949219,108.947754,-340.881348,0,0
8631,2024 10 17,09:01:11.913,-0.166905,0.513594,0.363823,0.758945,-3.186621,0.549333,-0.49855,18.920898,124.87793,-397.033691,0,0
8632,2024 10 17,09:01:11.922,-0.142958,0.491077,0.382112,0.769673,-3.576769,0.692892,0.018555,15.991211,136.291504,-454.772949,0,0
8633,2024 10 17,09:01:11.930,-0.117368,0.463131,0.40164,0.781293,-3.702261,0.39845,0.015625,25.20752,180.480957,-499.87793,0,0
8634,2024 10 17,09:01:11.938,-0.090481,0.431127,0.422235,0.79225,-3.643666,0.066897,0.023927,34.179688,207.885742,-531.005859,0,0
8635,2024 10 17,09:01:11.947,-0.062888,0.396179,0.441663,0.802509,-3.289163,0.170904,-0.190435,22.094727,221.252441,-538.146973,0,1
8636,2024 10 17,09:01:11.955,-0.062888,0.396179,0.441663,0.802509,-3.289163,0.170904,-0.190435,22.094727,221.252441,-538.146973,0,0
8637,2024 10 17,09:01:11.963,-0.036185,0.360069,0.458449,0.811705,-3.045503,0.547868,-0.283212,10.192871,239.196777,-517.76123,0,0
8638,2024 10 17,09:01:11.972,-0.010647,0.323133,0.472836,0.819693,-2.668539,1.182653,-0.555193,-0.183105,242.370605,-508.178711,0,0
8639,2024 10 17,09:01:11.980,0.014418,0.286789,0.485717,0.825605,-1.849666,1.465865,-1.144566,2.990723,223.327637,-488.464355,0,0
8640,2024 10 17,09:01:11.988,0.040859,0.255314,0.498033,0.827713,-1.620655,1.463912,-1.023469,10.742188,148.55957,-476.379395,0,0
8641,2024 10 17,09:01:11.997,0.070968,0.227496,0.507138,0.828263,-0.393078,1.231971,-1.813532,-33.02002,84.350586,-481.506348,0,0
8642,2024 10 17,09:01:12.005,0.070968,0.227496,0.507138,0.828263,-0.393078,1.231971,-1.813532,-33.02002,84.350586,-481.506348,0,0
8643,2024 10 17,09:01:12.013,0.101836,0.206308,0.510716,0.828393,2.634358,0.386731,-1.296915,-90.209961,6.774902,-384.765625,0,0
8644,2024 10 17,09:01:12.022,0.119999,0.200866,0.505881,0.830263,0.02295,2.002991,-0.146977,-95.336914,-74.401855,-116.577148,0,0
8645,2024 10 17,09:01:12.030,0.120413,0.205693,0.498958,0.833206,-0.591327,1.962462,0.150883,-77.209473,-37.963867,86.791992,0,0
8646,2024 10 17,09:01:12.038,0.104926,0.21465,0.492571,0.836834,-0.747581,1.64214,0.003906,-2.380371,17.822266,253.417969,0,0
8647,2024 10 17,09:01:12.047,0.07889,0.225685,0.488648,0.839086,-0.846217,1.048372,-0.193365,35.522461,50.415039,331.542969,0,0
8648,2024 10 17,09:01:12.055,0.05091,0.237061,0.48528,0.840067,-0.586444,0.607929,-0.61916,44.921875,43.823242,334.472656,0,0
8649,2024 10 17,09:01:12.063,0.05091,0.237061,0.48528,0.840067,-0.586444,0.607929,-0.61916,44.921875,43.823242,334.472656,0,0
8650,2024 10 17,09:01:12.072,0.026501,0.24987,0.48169,0.839546,-0.235847,0.406751,-0.784692,38.818359,-1.159668,303.833008,0,0
8651,2024 10 17,09:01:12.080,0.006954,0.264875,0.477537,0.837706,-0.152348,0.284677,-0.839869,23.55957,-53.405762,273.986816,0,0
8652,2024 10 17,09:01:12.088,-0.008999,0.282638,0.472116,0.83495,-0.288095,0.341807,-0.733909,4.943848,-101.196289,263.916016,0,0
8653,2024 10 17,09:01:12.097,-0.023422,0.303079,0.46502,0.831475,-0.496109,0.48146,-0.539079,-9.94873,-131.774902,272.766113,0,0
8654,2024 10 17,09:01:12.105,-0.03839,0.325335,0.456321,0.827318,-0.743675,0.598651,-0.424329,-17.333984,-143.676758,294.921875,0,0
8655,2024 10 17,09:01:12.113,-0.03839,0.325335,0.456321,0.827318,-0.743675,0.598651,-0.424329,-17.333984,-143.676758,294.921875,0,0
8656,2024 10 17,09:01:12.122,-0.055355,0.348224,0.446119,0.82259,-0.943876,0.605976,-0.307627,-19.287109,-135.437012,322.631836,0,0
8657,2024 10 17,09:01:12.130,-0.074783,0.370548,0.434419,0.817546,-0.970733,0.519547,-0.298349,-22.155762,-116.455078,347.53418,0,0
8658,2024 10 17,09:01:12.138,-0.095676,0.392481,0.421153,0.812056,-0.890164,0.401868,-0.362316,-29.724121,-110.351563,364.624023,0,0
8659,2024 10 17,09:01:12.147,-0.116491,0.41498,0.406261,0.805713,-0.811548,0.313486,-0.394543,-43.212891,-121.948242,374.023438,0,0
8660,2024 10 17,09:01:12.155,-0.136122,0.43875,0.389833,0.798122,-0.898465,0.281259,-0.38966,-59.570313,-145.568848,376.89209,0,0
8661,2024 10 17,09:01:12.163,-0.136122,0.43875,0.389833,0.798122,-0.898465,0.281259,-0.38966,-59.570313,-145.568848,376.89209,0,0
8662,2024 10 17,09:01:12.172,-0.153959,0.463771,0.372154,0.789122,-1.080599,0.301279,-0.340831,-75.500488,-169.433594,372.86377,0,0
8663,2024 10 17,09:01:12.180,-0.169957,0.489508,0.353558,0.778777,-1.287637,0.360363,-0.240242,-87.341309,-187.37793,365.783691,0,0
8664,2024 10 17,09:01:12.188,-0.184696,0.515113,0.334349,0.767305,-1.469771,0.403333,-0.136723,-93.261719,-194.274902,359.680176,0,0
8665,2024 10 17,09:01:12.197,-0.198812,0.540145,0.314679,0.754781,-1.61626,0.474624,-0.035157,-94.177246,-196.166992,358.093262,0,0
8666,2024 10 17,09:01:12.205,-0.212966,0.564447,0.294768,0.741051,-1.766655,0.542009,0.06299,-88.134766,-197.20459,360.961914,0,0
8667,2024 10 17,09:01:12.213,-0.212966,0.564447,0.294768,0.741051,-1.766655,0.542009,0.06299,-88.134766,-197.20459,360.961914,0,0
8668,2024 10 17,09:01:12.222,-0.227633,0.587903,0.274777,0.725983,-1.862362,0.58742,0.113285,-77.819824,-197.265625,366.882324,0,0
8669,2024 10 17,09:01:12.230,-0.242857,0.610634,0.255194,0.709241,-2.057192,0.592303,0.141118,-62.133789,-204.101563,369.995117,0,0
8670,2024 10 17,09:01:12.238,-0.258226,0.632611,0.236357,0.690838,-2.196844,0.445814,0.086917,-49.987793,-212.280273,368.164063,0,0
8671,2024 10 17,09:01:12.247,-0.273104,0.654448,0.218194,0.67045,-2.452712,0.256844,0.014649,-44.067383,-231.018066,367.004395,0,0
8672,2024 10 17,09:01:12.255,-0.28732,0.675951,0.200249,0.648412,-2.692953,-0.076663,0.00586,-43.945313,-240.112305,366.516113,0,0
8673,2024 10 17,09:01:12.263,-0.28732,0.675951,0.200249,0.648412,-2.692953,-0.076662,0.00586,-43.945313,-240.112305,366.516113,0,0
8674,2024 10 17,09:01:12.272,-0.300438,0.696688,0.182193,0.625434,-2.871181,-0.505387,0.078616,-49.621582,-244.140625,362.487793,0,0
8675,2024 10 17,09:01:12.280,-0.312014,0.716539,0.164624,0.601762,-3.223731,-0.907743,0.250496,-53.405762,-248.474121,348.510742,0,0
8676,2024 10 17,09:01:12.288,-0.322044,0.734269,0.14832,0.57891,-3.468856,-1.40434,0.450697,-48.828125,-229.858398,320.251465,0,0
8677,2024 10 17,09:01:12.297,-0.330474,0.748933,0.134079,0.558487,-3.263772,-1.963439,0.591815,-40.710449,-200.256348,278.808594,0,0
8678,2024 10 17,09:01:12.305,-0.33686,0.761473,0.122695,0.540027,-2.555254,-2.367748,0.786157,-35.400391,-192.138672,232.36084,0,0
8679,2024 10 17,09:01:12.313,-0.33686,0.761473,0.122695,0.540027,-2.555254,-2.367748,0.786157,-35.400391,-192.138672,232.36084,0,0
8680,2024 10 17,09:01:12.322,-0.340974,0.773646,0.115268,0.521462,-1.934629,-2.533769,1.217322,-28.137207,-217.712402,183.532715,0,0
8681,2024 10 17,09:01:12.330,-0.343337,0.785952,0.112751,0.501683,-1.870663,-2.730552,1.81988,-11.59668,-253.601074,134.155273,0,0
8682,2024 10 17,09:01:12.338,-0.344941,0.797383,0.114755,0.481692,-2.49617,-3.209082,2.421949,12.695313,-263.000488,93.017578,0,0
8683,2024 10 17,09:01:12.347,-0.346972,0.805494,0.118873,0.465466,-3.324809,-3.708121,2.615314,35.400391,-202.209473,62.5,0,0
8684,2024 10 17,09:01:12.355,-0.349957,0.807092,0.122183,0.459569,-3.191015,-4.017212,2.653401,48.64502,-45.532227,26.916504,0,0
8685,2024 10 17,09:01:12.363,-0.349957,0.807092,0.122183,0.459569,-3.191015,-4.017212,2.653401,48.64502,-45.532227,26.916504,0,0
8686,2024 10 17,09:01:12.372,-0.352385,0.80262,0.123917,0.465049,-2.073794,-3.517197,1.84283,41.625977,75.256348,-18.310547,0,0
8687,2024 10 17,09:01:12.380,-0.337507,0.80519,0.130414,0.469841,-9.581836,-3.425886,8.402112,-270.202637,-134.94873,-229.492188,0,0
8688,2024 10 17,09:01:12.388,-0.324066,0.789054,0.14584,0.501103,-0.618183,-2.227119,-2.201728,-115.966797,478.69873,-309.997559,1,0
8689,2024 10 17,09:01:12.397,-0.301183,0.770513,0.147186,0.542158,1.26957,2.437086,-3.966918,-33.630371,293.395996,-297.180176,0,0
8690,2024 10 17,09:01:12.405,-0.283514,0.772869,0.165472,0.543059,-3.15244,2.431715,5.02945,-96.862793,-77.453613,-292.541504,0,0
8691,2024 10 17,09:01:12.413,-0.283514,0.772869,0.165472,0.543059,-3.15244,2.431715,5.02945,-96.862793,-77.453613,-292.541504,0,0
8692,2024 10 17,09:01:12.422,-0.275223,0.75451,0.177913,0.568607,-0.420911,-0.163091,-1.023469,15.563965,283.325195,-283.081055,0,0
8693,2024 10 17,09:01:12.430,-0.268136,0.745775,0.196934,0.577183,-2.372143,-0.343272,2.02057,76.721191,28.381348,-240.478516,0,0
8694,2024 10 17,09:01:12.438,-0.264339,0.732032,0.20609,0.593112,-1.376507,-0.298837,-0.465835,14.160156,222.229004,-158.996582,0,0
8695,2024 10 17,09:01:12.447,-0.261913,0.720679,0.211032,0.606209,-1.324747,0.241707,-0.315439,24.719238,140.258789,-113.037109,0,0
8696,2024 10 17,09:01:12.455,-0.265252,0.709518,0.217035,0.615728,-1.42436,0.098636,-0.173833,100.219727,162.04834,-71.166992,0,0
8697,2024 10 17,09:01:12.463,-0.265252,0.709518,0.217035,0.615728,-1.42436,0.098636,-0.173833,100.219727,162.04834,-71.166992,0,0
8698,2024 10 17,09:01:12.472,-0.274064,0.6962,0.22276,0.624958,-0.965361,-0.292489,-0.127445,127.685547,168.395996,-39.001465,0,0
8699,2024 10 17,09:01:12.480,-0.28044,0.685324,0.226581,0.632728,-0.96292,-0.136723,0.107425,79.528809,138.61084,-34.790039,0,0
8700,2024 10 17,09:01:12.488,-0.285194,0.675721,0.228785,0.640096,-1.076205,0.099124,-0.309091,66.162109,130.126953,-28.442383,0,0
8701,2024 10 17,09:01:12.497,-0.291263,0.666723,0.231373,0.645843,-1.05472,-0.032228,-0.04297,85.144043,116.455078,-13.916016,0,0
8702,2024 10 17,09:01:12.505,-0.297194,0.658384,0.233368,0.650957,-0.746117,-0.096683,0.278817,66.467285,105.46875,-9.643555,0,0
8703,2024 10 17,09:01:12.513,-0.300559,0.652665,0.234486,0.654759,-0.863796,0.003418,-0.032716,37.231445,63.903809,-10.803223,0,0
8704,2024 10 17,09:01:12.522,-0.300559,0.652665,0.234486,0.654759,-0.863796,0.003418,-0.032716,37.231445,63.903809,-10.803223,0,0
8705,2024 10 17,09:01:12.530,-0.302994,0.649111,0.235786,0.6567,-1.030793,0.044923,0.146977,37.597656,41.442871,-5.92041,0,0
8706,2024 10 17,09:01:12.538,-0.30566,0.645408,0.23682,0.658739,-0.903348,-0.014649,0.057131,31.860352,46.630859,-4.760742,0,0
8707,2024 10 17,09:01:12.547,-0.307028,0.642988,0.237536,0.66021,-0.940458,0.04297,0.024903,17.211914,23.620605,-6.652832,0,0
8708,2024 10 17,09:01:12.555,-0.307593,0.641643,0.238271,0.66099,-0.993683,0.047853,0.090823,10.864258,14.221191,-7.751465,0,0
8709,2024 10 17,09:01:12.563,-0.307702,0.640501,0.238818,0.661849,-1.004913,0.06006,-0.030274,5.249023,12.268066,-9.82666,0,0
8710,2024 10 17,09:01:12.572,-0.307702,0.640501,0.238818,0.661849,-1.004913,0.06006,-0.030274,5.249023,12.268066,-9.82666,0,0
8711,2024 10 17,09:01:12.580,-0.307353,0.63974,0.239386,0.662541,-1.073763,0.083987,0.008789,1.831055,7.93457,-11.84082,0,0
8712,2024 10 17,09:01:12.588,-0.307009,0.638686,0.239936,0.663518,-1.059114,0.078127,-0.020997,3.356934,14.526367,-13.305664,0,0
8713,2024 10 17,09:01:12.597,-0.306795,0.637348,0.240502,0.664698,-1.012726,0.059572,0.009278,4.150391,16.662598,-13.73291,0,0
8714,2024 10 17,09:01:12.605,-0.306589,0.635983,0.241074,0.665892,-0.991729,0.065432,0.059084,4.577637,16.906738,-13.61084,0,0
8715,2024 10 17,09:01:12.613,-0.30643,0.634573,0.241649,0.6671,-0.979034,0.053224,0.046876,4.760742,17.028809,-13.61084,0,0
8716,2024 10 17,09:01:12.622,-0.30643,0.634573,0.241649,0.6671,-0.979034,0.053224,0.046876,4.760742,17.028809,-13.61084,0,0
8717,2024 10 17,09:01:12.630,-0.306122,0.633268,0.242222,0.668274,-0.980499,0.041017,0.043947,2.807617,15.563965,-14.404297,0,0
8718,2024 10 17,09:01:12.638,-0.305628,0.632065,0.242656,0.66948,-0.958525,0.035157,0.06592,-0.244141,14.953613,-14.404297,0,0
8719,2024 10 17,09:01:12.647,-0.304969,0.63104,0.243011,0.670618,-0.977569,0.041993,0.044435,-1.647949,12.207031,-14.343262,0,0
8720,2024 10 17,09:01:12.655,-0.304241,0.630137,0.243375,0.671665,-0.995148,0.04883,0.058107,-2.380371,11.230469,-14.343262,0,0
8721,2024 10 17,09:01:12.663,-0.303571,0.629175,0.243723,0.672742,-1.001495,0.053224,0.058596,-1.342773,12.695313,-14.099121,0,0
8722,2024 10 17,09:01:12.672,-0.303571,0.629175,0.243723,0.672742,-1.001495,0.053224,0.058596,-1.342773,12.695313,-14.099121,0,0
8723,2024 10 17,09:01:12.680,-0.302992,0.628099,0.244128,0.673861,-1.026399,0.052736,0.038087,0.183105,13.671875,-14.526367,0,0
8724,2024 10 17,09:01:12.688,-0.302518,0.626881,0.244642,0.675022,-0.998077,0.047365,0.077639,1.342773,15.197754,-15.136719,0,0
8725,2024 10 17,09:01:12.697,-0.302053,0.625607,0.2452,0.676207,-0.987335,0.037111,0.057619,2.258301,15.014648,-15.380859,0,0
8726,2024 10 17,09:01:12.705,-0.301537,0.624382,0.245821,0.677344,-1.011261,0.050295,0.076174,2.685547,14.343262,-15.808105,0,0
8727,2024 10 17,09:01:12.713,-0.30119,0.623013,0.246518,0.678504,-0.986847,0.036622,0.10889,4.699707,15.869141,-15.563965,0,0
8728,2024 10 17,09:01:12.722,-0.30119,0.623013,0.246518,0.678504,-0.986847,0.036622,0.10889,4.699707,15.869141,-15.563965,0,0
8729,2024 10 17,09:01:12.730,-0.300863,0.621696,0.247277,0.67958,-0.977569,0.02002,0.072268,5.065918,13.61084,-15.319824,0,0
8730,2024 10 17,09:01:12.738,-0.300303,0.620737,0.248097,0.680406,-0.989288,0.038087,0.110843,3.356934,7.93457,-15.74707,0,0
8731,2024 10 17,09:01:12.747,-0.299831,0.619749,0.249014,0.681179,-1.015168,0.051271,0.077151,4.760742,8.911133,-15.991211,0,0
8732,2024 10 17,09:01:12.755,-0.299318,0.618725,0.250062,0.681951,-1.038118,0.027345,0.082522,5.371094,8.178711,-17.700195,0,0
8733,2024 10 17,09:01:12.763,-0.298789,0.617642,0.251269,0.682721,-1.040071,0.026368,0.08594,7.263184,8.300781,-18.737793,0,0
8734,2024 10 17,09:01:12.772,-0.298789,0.617642,0.251269,0.682721,-1.040071,0.026368,0.08594,7.263184,8.300781,-18.737793,0,0
8735,2024 10 17,09:01:12.780,-0.298151,0.616534,0.252708,0.683469,-1.084018,0.084475,0.050783,9.94873,7.93457,-21.54541,0,0
8736,2024 10 17,09:01:12.788,-0.297535,0.615284,0.254449,0.684218,-1.069369,0.046388,0.087405,11.71875,7.8125,-24.902344,0,0
8737,2024 10 17,09:01:12.797,-0.296594,0.613995,0.256453,0.685036,-1.050813,0.024903,0.124027,11.59668,6.164551,-29.35791,0,0
8738,2024 10 17,09:01:12.805,-0.295235,0.612772,0.2587,0.685873,-1.147008,0.092288,0.169927,8.300781,2.13623,-35.095215,0,0
8739,2024 10 17,09:01:12.813,-0.29333,0.611325,0.261332,0.686983,-1.262246,-0.023927,0.04297,7.568359,6.347656,-44.494629,0,0
8740,2024 10 17,09:01:12.822,-0.29333,0.611325,0.261332,0.686983,-1.262246,-0.023927,0.04297,7.568359,6.347656,-44.494629,0,0
8741,2024 10 17,09:01:12.830,-0.289841,0.609852,0.264002,0.688749,-1.346721,0.054689,0.059084,-5.554199,3.967285,-60.48584,0,0
8742,2024 10 17,09:01:12.838,-0.285153,0.608186,0.267165,0.690956,-1.405805,0.076662,0.097171,-11.59668,4.638672,-76.049805,0,0
8743,2024 10 17,09:01:12.847,-0.27941,0.605991,0.270878,0.69378,-1.503464,0.099612,0.076174,-11.047363,9.094238,-91.61377,0,0
8744,2024 10 17,09:01:12.855,-0.273319,0.602621,0.275184,0.697437,-1.426313,0.136235,0.166509,-6.835938,24.414063,-104.431152,0,0
8745,2024 10 17,09:01:12.863,-0.267258,0.598019,0.280317,0.70169,-1.39555,0.149907,0.120121,1.342773,30.883789,-115.783691,0,0
8746,2024 10 17,09:01:12.872,-0.267258,0.598019,0.280317,0.70169,-1.39555,0.149907,0.120121,1.342773,30.883789,-115.783691,0,0
8747,2024 10 17,09:01:12.880,-0.26043,0.593232,0.286771,0.705701,-1.547899,0.164556,0.241218,9.399414,22.521973,-133.239746,0,0
8748,2024 10 17,09:01:12.888,-0.252659,0.587473,0.294389,0.710193,-1.661672,0.175787,0.129398,13.183594,31.982422,-153.991699,0,0
8749,2024 10 17,09:01:12.897,-0.24392,0.580293,0.303224,0.715415,-1.918516,0.203131,0.019532,15.991211,40.527344,-179.382324,0,0
8750,2024 10 17,09:01:12.905,-0.23304,0.571803,0.31332,0.721501,-2.158269,0.263192,0.003906,12.634277,49.377441,-214.84375,0,0
8751,2024 10 17,09:01:12.913,-0.220065,0.560945,0.32466,0.729046,-2.419019,0.413587,-0.139653,10.192871,68.481445,-255.004883,0,0
8752,2024 10 17,09:01:12.922,-0.220065,0.560945,0.32466,0.729046,-2.419019,0.413587,-0.139653,10.192871,68.481445,-255.004883,0,0
8753,2024 10 17,09:01:12.930,-0.204726,0.547606,0.337897,0.737592,-2.837977,0.571795,-0.029298,15.197754,83.618164,-303.100586,0,0
8754,2024 10 17,09:01:12.938,-0.186753,0.530051,0.352846,0.748111,-3.047945,0.672384,-0.322275,14.343262,124.206543,-360.534668,0,0
8755,2024 10 17,09:01:12.947,-0.165693,0.508598,0.369686,0.759741,-3.275979,0.528336,-0.774926,13.305664,137.817383,-418.457031,0,0
8756,2024 10 17,09:01:12.955,-0.140382,0.484555,0.388188,0.771239,-3.734977,0.628925,-0.034669,8.850098,151.733398,-475.830078,0,0
8757,2024 10 17,09:01:12.963,-0.113681,0.454469,0.407398,0.78394,-3.761834,0.384777,-0.010254,15.50293,199.09668,-520.141602,0,0
8758,2024 10 17,09:01:12.972,-0.085942,0.420387,0.427537,0.795676,-3.664663,-0.009278,-0.099612,26.184082,224.731445,-547.119141,0,0
8759,2024 10 17,09:01:12.980,-0.085942,0.420387,0.427537,0.795676,-3.664663,-0.009278,-0.099612,26.184082,224.731445,-547.119141,0,0
8760,2024 10 17,09:01:12.988,-0.05734,0.383888,0.445985,0.806498,-3.229102,0.337413,-0.238289,10.498047,229.431152,-549.316406,0,1
8761,2024 10 17,09:01:12.997,-0.029877,0.347069,0.461806,0.815711,-3.251076,0.699728,-0.381848,-1.525879,243.103027,-526.123047,0,0
8762,2024 10 17,09:01:13.005,-0.003541,0.30917,0.475235,0.823743,-2.472243,1.334025,-0.948759,-12.145996,247.802734,-516.174316,0,0
8763,2024 10 17,09:01:13.013,0.022759,0.273385,0.486978,0.829213,-1.821345,1.610401,-1.136265,-8.728027,204.528809,-492.30957,0,0
8764,2024 10 17,09:01:13.022,0.05111,0.242345,0.497535,0.831334,-1.448775,1.58208,-1.195349,-14.892578,137.390137,-487.060547,0,0
8765,2024 10 17,09:01:13.030,0.05111,0.242345,0.497535,0.831334,-1.448775,1.58208,-1.195349,-14.892578,137.390137,-487.060547,0,0
8766,2024 10 17,09:01:13.038,0.082477,0.215704,0.504614,0.831886,-0.256844,0.69631,-2.16364,-49.499512,62.316895,-473.144531,0,0
8767,2024 10 17,09:01:13.047,0.11186,0.197461,0.502976,0.833973,3.112888,0.894559,-0.804224,-144.836426,-3.051758,-314.27002,0,0
8768,2024 10 17,09:01:13.055,0.123827,0.194604,0.494116,0.83824,-0.048341,1.957579,-0.499039,-127.01416,-60.241699,-31.982422,0,0
8769,2024 10 17,09:01:13.063,0.119637,0.201832,0.482839,0.843693,-0.603046,1.900937,0.219733,-118.286133,-40.466309,150.390625,0,0
8770,2024 10 17,09:01:13.072,0.102783,0.211882,0.473197,0.848897,-0.770043,1.53032,-0.06299,-42.785645,5.493164,266.601563,0,0
8771,2024 10 17,09:01:13.080,0.102783,0.211882,0.473197,0.848897,-0.770043,1.53032,-0.06299,-42.785645,5.493164,266.601563,0,0
8772,2024 10 17,09:01:13.088,0.080282,0.222639,0.466401,0.852324,-0.61916,1.005402,-0.203131,-5.371094,24.230957,295.776367,0,0
8773,2024 10 17,09:01:13.097,0.057809,0.233402,0.461371,0.854001,-0.374523,0.676778,-0.508805,13.427734,9.94873,282.348633,0,0
8774,2024 10 17,09:01:13.105,0.0383,0.245506,0.45727,0.853911,-0.198248,0.398938,-0.700705,19.897461,-26.367188,257.263184,0,0
8775,2024 10 17,09:01:13.113,0.021689,0.259783,0.452994,0.852549,-0.214362,0.292978,-0.757347,13.671875,-66.040039,245.361328,0,0
8776,2024 10 17,09:01:13.122,0.006664,0.276554,0.447726,0.850303,-0.317881,0.377453,-0.61037,4.394531,-99.060059,249.023438,0,0
8777,2024 10 17,09:01:13.130,0.006664,0.276554,0.447726,0.850303,-0.317881,0.377453,-0.61037,4.394531,-99.060059,249.023438,0,0
8778,2024 10 17,09:01:13.138,-0.008268,0.295398,0.441148,0.847384,-0.442396,0.491226,-0.507828,-3.540039,-118.896484,265.319824,0,0
8779,2024 10 17,09:01:13.147,-0.024338,0.316159,0.433202,0.843675,-0.617206,0.558611,-0.455092,-7.568359,-132.8125,291.931152,0,0
8780,2024 10 17,09:01:13.155,-0.042026,0.338389,0.42396,0.839038,-0.746117,0.566912,-0.362316,-8.911133,-139.770508,318.237305,0,0
8781,2024 10 17,09:01:13.163,-0.061011,0.361311,0.41359,0.833472,-0.792993,0.488296,-0.350597,-10.925293,-143.310547,336.05957,0,0
8782,2024 10 17,09:01:13.172,-0.080297,0.385077,0.402073,0.826804,-0.791528,0.388195,-0.318369,-17.63916,-156.12793,347.53418,0,0
8783,2024 10 17,09:01:13.180,-0.080297,0.385077,0.402073,0.826804,-0.791528,0.388195,-0.318369,-17.63916,-156.12793,347.53418,0,0
8784,2024 10 17,09:01:13.188,-0.099239,0.410051,0.389094,0.818912,-0.825709,0.3755,-0.343272,-29.602051,-174.316406,357.788086,0,0
8785,2024 10 17,09:01:13.197,-0.117495,0.436377,0.374645,0.809574,-1.027863,0.397473,-0.279794,-41.07666,-195.19043,364.379883,0,0
8786,2024 10 17,09:01:13.205,-0.134639,0.463472,0.359243,0.798756,-1.264199,0.387707,-0.159185,-49.194336,-212.280273,360.961914,0,0
8787,2024 10 17,09:01:13.213,-0.150455,0.490687,0.343271,0.78661,-1.397504,0.389172,-0.064943,-55.603027,-223.571777,354.370117,0,0
8788,2024 10 17,09:01:13.222,-0.165713,0.51782,0.326503,0.773173,-1.537645,0.497085,-0.011231,-59.265137,-230.46875,358.886719,0,0
8789,2024 10 17,09:01:13.230,-0.165713,0.51782,0.326503,0.773173,-1.537645,0.497085,-0.011231,-59.265137,-230.46875,358.886719,0,0
8790,2024 10 17,09:01:13.238,-0.181539,0.544532,0.308944,0.758341,-1.767144,0.596698,0.187994,-54.443359,-229.492188,370.117188,0,0
8791,2024 10 17,09:01:13.247,-0.198338,0.569958,0.291033,0.742367,-1.952208,0.661153,0.323252,-43.212891,-221.496582,376.464844,0,0
8792,2024 10 17,09:01:13.255,-0.215796,0.593849,0.273603,0.725201,-2.065004,0.67922,0.390149,-25.817871,-216.85791,374.816895,0,0
8793,2024 10 17,09:01:13.263,-0.233794,0.616259,0.257199,0.706692,-2.233467,0.649434,0.439955,-5.126953,-216.003418,371.948242,0,0
8794,2024 10 17,09:01:13.272,-0.252325,0.637371,0.241564,0.686831,-2.397046,0.523453,0.348155,9.765625,-217.102051,372.497559,0,0
8795,2024 10 17,09:01:13.280,-0.252325,0.637371,0.241564,0.686831,-2.397046,0.523453,0.348155,9.765625,-217.102051,372.497559,0,0
8796,2024 10 17,09:01:13.288,-0.27109,0.657795,0.225904,0.66542,-2.639241,0.182134,0.182134,13.793945,-222.167969,380.737305,0,0
8797,2024 10 17,09:01:13.297,-0.289326,0.677732,0.209235,0.642799,-2.917569,-0.339366,0.043458,3.295898,-223.999023,389.404297,0,0
8798,2024 10 17,09:01:13.305,-0.305857,0.696905,0.191395,0.619793,-3.164159,-0.945341,0.124516,-16.906738,-220.947266,385.620117,0,0
8799,2024 10 17,09:01:13.313,-0.31967,0.715092,0.173249,0.597026,-3.49913,-1.525926,0.241218,-37.353516,-217.773438,366.394043,0,0
8800,2024 10 17,09:01:13.322,-0.330791,0.731204,0.155888,0.575862,-3.59093,-2.160711,0.448744,-45.898438,-193.908691,332.580566,0,0
8801,2024 10 17,09:01:13.330,-0.330791,0.731204,0.155888,0.575862,-3.59093,-2.160711,0.448744,-45.898438,-193.908691,332.580566,0,0
8802,2024 10 17,09:01:13.338,-0.339279,0.74442,0.140586,0.557642,-3.093844,-2.637288,0.760765,-45.959473,-165.222168,280.517578,0,0
8803,2024 10 17,09:01:13.347,-0.344805,0.755813,0.129524,0.541369,-2.064516,-2.878994,1.18363,-39.367676,-171.630859,212.768555,0,0
8804,2024 10 17,09:01:13.355,-0.347275,0.767468,0.124783,0.524235,-1.434614,-2.974212,1.876522,-24.414063,-219.726563,142.028809,0,0
8805,2024 10 17,09:01:13.363,-0.347885,0.779246,0.126469,0.505725,-1.781793,-3.422468,2.236396,0.915527,-259.887695,84.16748,0,0
8806,2024 10 17,09:01:13.372,-0.347977,0.789642,0.131974,0.487813,-2.901944,-4.015259,2.438551,20.812988,-245.056152,53.039551,0,0
8807,2024 10 17,09:01:13.380,-0.348415,0.794866,0.136974,0.477529,-3.354594,-4.413709,2.337474,29.174805,-121.765137,24.353027,0,0
8808,2024 10 17,09:01:13.388,-0.348415,0.794866,0.136974,0.477529,-3.354594,-4.413709,2.337474,29.174805,-121.765137,24.353027,0,0
8809,2024 10 17,09:01:13.397,-0.348362,0.79292,0.139495,0.480066,-2.342357,-4.034303,1.859432,14.831543,47.241211,-21.66748,0,0
8810,2024 10 17,09:01:13.405,-0.335959,0.793127,0.143767,0.48725,-12.656636,-4.647114,2.442946,-206.176758,-53.710938,-178.344727,0,0
8811,2024 10 17,09:01:13.413,-0.318789,0.781055,0.162247,0.511862,-0.27247,-1.800348,-0.698263,-38.513184,389.343262,-317.810059,0,0
8812,2024 10 17,09:01:13.422,-0.292806,0.761911,0.163402,0.554127,1.210974,2.963469,-4.908841,-99.42627,335.083008,-338.134766,1,0
8813,2024 10 17,09:01:13.430,-0.273349,0.76455,0.183621,0.5541,-3.53087,1.817438,4.37611,-100.769043,-135.498047,-318.29834,0,0
8814,2024 10 17,09:01:13.438,-0.273349,0.76455,0.183621,0.5541,-3.530869,1.817438,4.37611,-100.769043,-135.498047,-318.29834,0,0
8815,2024 10 17,09:01:13.447,-0.265848,0.745436,0.197497,0.578486,-0.758324,-0.235359,-0.320322,60.72998,344.604492,-276.367188,0,0
8816,2024 10 17,09:01:13.455,-0.262791,0.731106,0.213575,0.592293,-2.059145,-0.558123,1.548875,85.449219,104.003906,-207.763672,0,0
8817,2024 10 17,09:01:13.463,-0.260145,0.715642,0.218949,0.610117,-1.529344,-0.050295,-0.460463,-4.333496,272.521973,-132.69043,0,0
8818,2024 10 17,09:01:13.472,-0.262964,0.701622,0.222843,0.623633,-1.232948,0.055177,-0.500015,79.406738,166.503906,-73.425293,0,0
8819,2024 10 17,09:01:13.480,-0.270711,0.689429,0.22857,0.63179,-1.388714,-0.041993,0.447279,134.399414,172.851563,-36.071777,0,0
8820,2024 10 17,09:01:13.488,-0.270711,0.689429,0.22857,0.63179,-1.388714,-0.041993,0.447279,134.399414,172.851563,-36.071777,0,0
8821,2024 10 17,09:01:13.497,-0.282684,0.673418,0.232443,0.642315,-0.800317,-0.223151,-0.278329,136.71875,218.505859,-15.563965,0,0
8822,2024 10 17,09:01:13.505,-0.290852,0.661474,0.235189,0.650033,-0.912625,-0.026368,-0.264657,92.407227,140.991211,-16.479492,0,0
8823,2024 10 17,09:01:13.513,-0.298171,0.652,0.238009,0.655241,-1.000519,-0.042482,0.24366,98.449707,121.948242,-5.981445,0,0
8824,2024 10 17,09:01:13.522,-0.305318,0.642564,0.239809,0.660594,-0.740257,-0.172369,-0.028809,74.035645,118.408203,-3.479004,0,0
8825,2024 10 17,09:01:13.530,-0.30878,0.636983,0.240617,0.664087,-0.809107,-0.028321,0.162114,32.653809,59.753418,-6.530762,0,0
8826,2024 10 17,09:01:13.538,-0.30878,0.636983,0.240617,0.664087,-0.809107,-0.028321,0.162114,32.653809,59.753418,-6.530762,0,0
8827,2024 10 17,09:01:13.547,-0.31073,0.633848,0.241164,0.665976,-0.844752,-0.008789,0.34669,22.888184,37.475586,-3.540039,0,0
8828,2024 10 17,09:01:13.555,-0.311835,0.631649,0.241426,0.667452,-0.93997,0.038575,-0.060549,10.925293,23.803711,-4.821777,0,0
8829,2024 10 17,09:01:13.563,-0.312166,0.630812,0.241861,0.667931,-1.030305,0.052736,0.143559,6.469727,7.69043,-4.577637,0,0
8830,2024 10 17,09:01:13.572,-0.312421,0.629771,0.242083,0.668714,-0.996124,0.063478,0.015137,4.699707,14.404297,-5.615234,0,0
8831,2024 10 17,09:01:13.580,-0.312208,0.629105,0.242413,0.66932,-1.07474,0.080569,-0.014649,0.427246,5.493164,-8.972168,0,0
8832,2024 10 17,09:01:13.588,-0.312208,0.629105,0.242413,0.66932,-1.07474,0.080569,-0.014649,0.427246,5.493164,-8.972168,0,0
8833,2024 10 17,09:01:13.597,-0.31172,0.628429,0.242854,0.670022,-1.113315,0.063967,0.02588,1.037598,10.375977,-12.084961,0,0
8834,2024 10 17,09:01:13.605,-0.311317,0.62714,0.243155,0.671307,-1.043977,0.041505,-0.019532,0.12207,18.432617,-13.73291,0,0
8835,2024 10 17,09:01:13.613,-0.310691,0.625937,0.24342,0.672622,-1.052278,0.050295,0.015625,-2.441406,16.052246,-14.831543,0,0
8836,2024 10 17,09:01:13.622,-0.310102,0.624583,0.24359,0.67409,-1.007843,0.063967,0.070803,-1.586914,20.324707,-14.648438,0,0
8837,2024 10 17,09:01:13.630,-0.309677,0.623124,0.243826,0.675548,-0.947783,0.052736,0.098636,0.427246,18.798828,-14.099121,0,0
