frame,date,time,quaternion_x,quaternion_y,quaternion_z,quaternion_w,accel_x,accel_y,accel_z,gyro_x,gyro_y,gyro_z,HS,TO
1706,2024 8 08,15:40:23.620,0.786715,-0.475195,-0.320494,-0.229243,-0.96209,-0.212446,-0.054755,0.254807,0.809868,-0.378433,0,0
1707,2024 8 08,15:40:23.629,0.786616,-0.475189,-0.320729,-0.229266,-0.959909,-0.213112,-0.054016,0.247246,0.971303,-0.413036,0,0
1708,2024 8 08,15:40:23.637,0.786517,-0.475186,-0.320966,-0.22928,-0.961678,-0.213988,-0.060308,0.159488,0.97499,-0.59416,0,0
1709,2024 8 08,15:40:23.645,0.786414,-0.475186,-0.321212,-0.229291,-0.957799,-0.214925,-0.060813,0.133541,1.103052,-0.52074,0,0
1710,2024 8 08,15:40:23.654,0.786382,-0.475186,-0.321287,-0.229295,-0.956622,-0.215209,-0.060967,0.125673,1.141888,-0.498475,0,0
1711,2024 8 08,15:40:23.662,0.786297,-0.475186,-0.321492,-0.2293,-0.959902,-0.21596,-0.054718,0.20607,1.361058,-0.408715,0,0
1712,2024 8 08,15:40:23.670,0.786195,-0.47519,-0.321731,-0.229305,-0.961929,-0.21751,-0.053387,0.067699,1.22583,-0.462142,0,0
1713,2024 8 08,15:40:23.679,0.786099,-0.475177,-0.32198,-0.229311,-0.959343,-0.215743,-0.052955,0.306604,1.060202,-0.438955,0,0
1714,2024 8 08,15:40:23.687,0.785968,-0.475163,-0.322316,-0.229319,-0.960138,-0.214445,-0.049403,0.32149,1.081849,-0.479508,0,0
1715,2024 8 08,15:40:23.695,0.785868,-0.475165,-0.322544,-0.229336,-0.964575,-0.217649,-0.055004,-0.002272,0.790266,-0.539354,0,0
1716,2024 8 08,15:40:23.704,0.785853,-0.475165,-0.32258,-0.229338,-0.965328,-0.218242,-0.056105,-0.058543,0.734875,-0.548894,0,0
1717,2024 8 08,15:40:23.712,0.785785,-0.475145,-0.322767,-0.229349,-0.961376,-0.215478,-0.052964,0.387258,0.682766,-0.549293,0,0
1718,2024 8 08,15:40:23.720,0.785715,-0.47511,-0.32297,-0.229374,-0.957401,-0.217642,-0.048765,0.579304,0.377786,-0.500248,0,0
1719,2024 8 08,15:40:23.729,0.785646,-0.475067,-0.32318,-0.229405,-0.957802,-0.214734,-0.045221,0.51103,0.359619,-0.392563,0,0
1720,2024 8 08,15:40:23.737,0.785584,-0.475018,-0.323377,-0.229442,-0.960303,-0.213576,-0.054809,0.776524,0.079532,-0.368762,0,0
1721,2024 8 08,15:40:23.745,0.785522,-0.474963,-0.323575,-0.229489,-0.956757,-0.215663,-0.057687,0.563923,0.102716,-0.272478,0,0
1722,2024 8 08,15:40:23.754,0.785508,-0.47495,-0.32362,-0.229501,-0.955737,-0.216236,-0.058056,0.497489,0.119714,-0.24759,0,0
1723,2024 8 08,15:40:23.762,0.785459,-0.474902,-0.323775,-0.229547,-0.959638,-0.213744,-0.050418,0.62669,0.030304,-0.198876,0,0
1724,2024 8 08,15:40:23.770,0.785403,-0.474843,-0.323962,-0.229597,-0.957165,-0.215547,-0.053639,0.890448,-0.040707,-0.320732,0,0
1725,2024 8 08,15:40:23.779,0.785347,-0.474784,-0.324155,-0.229639,-0.956965,-0.216551,-0.05458,0.562452,0.164716,-0.448113,0,0
1726,2024 8 08,15:40:23.787,0.785286,-0.474732,-0.324347,-0.229682,-0.958802,-0.21641,-0.052211,0.625643,0.055098,-0.393683,0,0
1727,2024 8 08,15:40:23.795,0.785226,-0.474682,-0.324529,-0.229733,-0.956602,-0.216679,-0.057336,0.576497,0.009832,-0.371113,0,0
1728,2024 8 08,15:40:23.804,0.785162,-0.474635,-0.324715,-0.229788,-0.960923,-0.217122,-0.05367,0.640073,0.001858,-0.281516,0,0
1729,2024 8 08,15:40:23.812,0.785143,-0.474621,-0.32477,-0.229804,-0.962522,-0.217258,-0.05214,0.665151,0.00037,-0.251583,0,0
1730,2024 8 08,15:40:23.820,0.785099,-0.474577,-0.324905,-0.229855,-0.958829,-0.264772,0.019391,0.586591,-0.125161,-0.203951,0,0
1731,2024 8 08,15:40:23.829,0.785045,-0.474519,-0.325076,-0.229915,-0.958107,-0.21655,-0.052899,0.681172,-0.129193,-0.2289,0,0
1732,2024 8 08,15:40:23.837,0.784991,-0.474452,-0.325256,-0.229983,-0.959357,-0.218925,-0.055278,0.679989,-0.205163,-0.118462,0,0
1733,2024 8 08,15:40:23.845,0.784938,-0.474378,-0.325444,-0.230053,-0.96145,-0.212904,-0.04786,0.713675,-0.154392,-0.034431,0,0
1734,2024 8 08,15:40:23.854,0.78488,-0.474308,-0.325632,-0.230129,-0.960599,-0.212708,-0.052038,0.688031,-0.13004,-0.048258,0,0
1735,2024 8 08,15:40:23.862,0.78486,-0.474284,-0.325697,-0.230155,-0.960146,-0.216215,-0.054398,0.675637,-0.124106,-0.057772,0,0
1736,2024 8 08,15:40:23.870,0.784819,-0.474237,-0.325831,-0.230202,-0.957856,-0.213802,-0.052699,0.672509,-0.08376,-0.176717,0,0
1737,2024 8 08,15:40:23.879,0.78476,-0.47419,-0.326002,-0.230256,-0.958765,-0.214632,-0.053244,0.518078,-0.028822,-0.264177,0,0
1738,2024 8 08,15:40:23.887,0.784701,-0.47414,-0.326176,-0.230315,-0.958688,-0.215444,-0.051455,0.528676,-0.197935,-0.331639,0,0
1739,2024 8 08,15:40:23.895,0.784638,-0.474096,-0.32635,-0.230372,-0.957971,-0.21842,-0.053032,0.430724,-0.161582,-0.35623,0,0
1740,2024 8 08,15:40:23.904,0.784581,-0.474046,-0.326524,-0.230424,-0.96005,-0.217905,-0.054151,0.645249,-0.133788,-0.363251,0,0
1741,2024 8 08,15:40:23.912,0.784559,-0.474026,-0.326592,-0.230444,-0.961028,-0.217478,-0.054526,0.748365,-0.125635,-0.36531,0,0
1742,2024 8 08,15:40:23.920,0.784522,-0.473979,-0.326718,-0.230487,-0.96045,-0.215316,-0.056091,0.706746,-0.159508,-0.293278,0,0
1743,2024 8 08,15:40:23.929,0.784474,-0.473922,-0.326879,-0.23054,-0.960424,-0.19003,-0.070482,0.682671,-0.1037,-0.331697,0,0
1744,2024 8 08,15:40:23.937,0.784417,-0.473872,-0.327046,-0.2306,-0.960176,-0.216446,-0.057315,0.497286,-0.181629,-0.283834,0,0
1745,2024 8 08,15:40:23.945,0.784356,-0.473823,-0.327218,-0.230663,-0.962304,-0.21569,-0.056717,0.480281,-0.117746,-0.292559,0,0
1746,2024 8 08,15:40:23.954,0.784318,-0.473791,-0.327327,-0.230704,-0.963884,-0.214857,-0.056159,0.488217,-0.061487,-0.305075,0,0
1747,2024 8 08,15:40:23.962,0.78426,-0.473747,-0.327492,-0.230759,-0.962942,-0.210558,-0.057108,0.547898,-0.120664,-0.543648,0,0
1748,2024 8 08,15:40:23.970,0.784258,-0.473746,-0.327496,-0.23076,-0.962921,-0.21046,-0.05713,0.549263,-0.122017,-0.549101,0,0
1749,2024 8 08,15:40:23.979,0.784187,-0.47372,-0.327662,-0.230817,-0.959681,-0.216472,-0.054354,0.144419,0.109301,-0.317937,0,0
1750,2024 8 08,15:40:23.987,0.784099,-0.473726,-0.327836,-0.230857,-0.959514,-0.213134,-0.050563,-0.047429,0.292204,-0.704972,0,0
1751,2024 8 08,15:40:23.995,0.784007,-0.47375,-0.328002,-0.230885,-0.957256,-0.217859,-0.063347,-0.340793,0.304141,-0.786402,0,0
1752,2024 8 08,15:40:24.004,0.783918,-0.473767,-0.328178,-0.230902,-0.95885,-0.214244,-0.061252,-0.197748,0.52655,-0.848169,0,0
1753,2024 8 08,15:40:24.012,0.783817,-0.473809,-0.328349,-0.230918,-0.958123,-0.221774,-0.054509,-0.512186,0.546912,-0.853824,0,0
1754,2024 8 08,15:40:24.020,0.783806,-0.473814,-0.328367,-0.23092,-0.958047,-0.222558,-0.053807,-0.544935,0.549033,-0.854413,0,0
1755,2024 8 08,15:40:24.029,0.783717,-0.473849,-0.328522,-0.230927,-0.962711,-0.209056,-0.0533,-0.283267,0.655471,-1.01377,0,0
1756,2024 8 08,15:40:24.037,0.783602,-0.473933,-0.32867,-0.230936,-0.959957,-0.209,-0.048206,-1.192522,0.66913,-1.400876,0,0
1757,2024 8 08,15:40:24.045,0.783521,-0.473973,-0.328826,-0.230906,-0.948408,-0.208579,-0.024339,-0.182738,0.360947,-1.920183,0,0
1758,2024 8 08,15:40:24.054,0.783397,-0.474084,-0.328986,-0.23087,-0.956454,-0.193418,-0.019098,0.377992,0.72237,-2.100721,0,0
1759,2024 8 08,15:40:24.062,0.783249,-0.474252,-0.329113,-0.23085,-0.961385,-0.218748,-0.067383,-1.293013,0.932029,-1.878299,0,0
1760,2024 8 08,15:40:24.070,0.783223,-0.474281,-0.329135,-0.230847,-0.962237,-0.223129,-0.075734,-1.582019,0.96829,-1.839831,0,0
1761,2024 8 08,15:40:24.079,0.783108,-0.474415,-0.329247,-0.230801,-0.97103,-0.226287,-0.087472,-2.174789,1.367497,-1.685566,0,0
1762,2024 8 08,15:40:24.087,0.782981,-0.474595,-0.32935,-0.230711,-0.970019,-0.220696,-0.070749,-2.580291,1.396326,-2.576387,0,0
1763,2024 8 08,15:40:24.095,0.782841,-0.474837,-0.329427,-0.230581,-0.968664,-0.204626,-0.044372,-2.423527,1.450053,-3.714898,0,0
1764,2024 8 08,15:40:24.104,0.782657,-0.47514,-0.329525,-0.230443,-0.973292,-0.209141,-0.055011,-2.673761,1.792449,-3.863117,0,0
1765,2024 8 08,15:40:24.112,0.782436,-0.475536,-0.329614,-0.230245,-0.973576,-0.208279,-0.058128,-4.224152,2.616033,-4.643457,0,0
1766,2024 8 08,15:40:24.120,0.782385,-0.475628,-0.329635,-0.230199,-0.973641,-0.208079,-0.058851,-4.583753,2.807056,-4.82445,0,0
1767,2024 8 08,15:40:24.129,0.782172,-0.476053,-0.329705,-0.229946,-0.973292,-0.209141,-0.055011,-4.579182,3.537248,-5.962723,0,0
1768,2024 8 08,15:40:24.137,0.781919,-0.4766,-0.329774,-0.229575,-0.974648,-0.198123,-0.035936,-4.758366,3.990121,-7.419149,0,0
1769,2024 8 08,15:40:24.145,0.781612,-0.477296,-0.329845,-0.229071,-1.013146,-0.190014,-0.056402,-5.517684,5.444051,-8.954132,0,0
1770,2024 8 08,15:40:24.154,0.781328,-0.478104,-0.329828,-0.228375,-1.007908,-0.170227,-0.028025,-7.086074,5.611677,-12.095272,0,0
1771,2024 8 08,15:40:24.162,0.781058,-0.479048,-0.329785,-0.227382,-1.035395,-0.172801,-0.06971,-4.685792,7.182508,-16.095772,0,0
1772,2024 8 08,15:40:24.170,0.780982,-0.479315,-0.329772,-0.227101,-1.043176,-0.17353,-0.08151,-4.006329,7.627174,-17.228218,0,0
1773,2024 8 08,15:40:24.179,0.78094,-0.480065,-0.329568,-0.22595,-1.040667,-0.189763,-0.077104,-3.893858,7.586117,-21.392374,0,0
1774,2024 8 08,15:40:24.187,0.780972,-0.481045,-0.329255,-0.224205,-1.071275,-0.190564,-0.078148,-2.300904,8.964641,-26.429012,0,0
1775,2024 8 08,15:40:24.195,0.781158,-0.482102,-0.328776,-0.221976,-1.077644,-0.200483,-0.063791,-1.104414,8.803013,-31.765104,0,0
1776,2024 8 08,15:40:24.204,0.781462,-0.483358,-0.328028,-0.219257,-1.130132,-0.196333,-0.06193,-1.224255,9.329828,-39.419376,0,0
1777,2024 8 08,15:40:24.212,0.781887,-0.484919,-0.326879,-0.215979,-1.153499,-0.198593,-0.030638,-2.895329,8.355967,-48.405098,0,0
1778,2024 8 08,15:40:24.220,0.782695,-0.487457,-0.324432,-0.210985,-1.195343,-0.213599,-0.050544,-4.720098,1.982553,-60.470802,0,0
1779,2024 8 08,15:40:24.229,0.78279,-0.487737,-0.324135,-0.210449,-1.200141,-0.215785,-0.05605,-4.879785,1.055181,-61.683548,0,0
1780,2024 8 08,15:40:24.237,0.783734,-0.489364,-0.32163,-0.206965,-1.142276,-0.215009,-0.045948,-3.097248,-4.981373,-67.623306,0,0
1781,2024 8 08,15:40:24.245,0.784922,-0.491402,-0.318441,-0.202511,-1.131842,-0.224506,-0.061329,-2.713158,-4.550036,-74.25827,0,0
1782,2024 8 08,15:40:24.254,0.786045,-0.493804,-0.315027,-0.197586,-1.119132,-0.247038,-0.066304,-6.152874,-2.804413,-80.770393,0,0
1783,2024 8 08,15:40:24.262,0.7872,-0.496388,-0.311337,-0.192286,-1.083286,-0.274227,-0.055923,-4.994314,-3.054341,-85.846642,0,0
1784,2024 8 08,15:40:24.270,0.788303,-0.49907,-0.307699,-0.186591,-1.043566,-0.289747,-0.049232,-5.384124,1.405394,-88.88707,0,0
1785,2024 8 08,15:40:24.279,0.788534,-0.499638,-0.306934,-0.185379,-1.035163,-0.292649,-0.047993,-5.536893,2.500458,-89.472282,0,0
1786,2024 8 08,15:40:24.287,0.789225,-0.501966,-0.30433,-0.180348,-1.037686,-0.326976,-0.038893,-5.972983,8.688004,-91.775055,0,0
1787,2024 8 08,15:40:24.295,0.789956,-0.504835,-0.3014,-0.173933,-1.010085,-0.35712,-0.032425,-4.334862,13.642389,-92.288399,0,0
1788,2024 8 08,15:40:24.304,0.79066,-0.507571,-0.298823,-0.167076,-0.990618,-0.368489,-0.002609,-0.994789,19.912079,-91.701416,0,0
1789,2024 8 08,15:40:24.312,0.791209,-0.510192,-0.296837,-0.159873,-1.018119,-0.37933,0.042816,0.800426,27.66346,-90.490944,0,0
1790,2024 8 08,15:40:24.320,0.791539,-0.512807,-0.295338,-0.152475,-1.06892,-0.405999,0.106608,1.912805,33.072182,-89.001373,0,0
1791,2024 8 08,15:40:24.329,0.79162,-0.513521,-0.294946,-0.150452,-1.083444,-0.4139,0.124672,2.198904,34.444168,-88.587006,0,0
1792,2024 8 08,15:40:24.337,0.79198,-0.515021,-0.294114,-0.144928,-1.149422,-0.340681,0.130499,10.013839,32.001919,-83.641121,0,0
1793,2024 8 08,15:40:24.345,0.79312,-0.515755,-0.292686,-0.138837,-1.125792,-0.232818,0.08324,23.398895,15.301893,-74.116188,0,0
1794,2024 8 08,15:40:24.354,0.795297,-0.514935,-0.290679,-0.133539,-0.96689,-0.11597,0.086568,39.980148,-0.001392,-63.597164,0,0
1795,2024 8 08,15:40:24.362,0.798079,-0.51283,-0.288927,-0.128758,-0.894316,-0.011847,0.101602,53.025349,-1.406741,-53.310467,0,0
1796,2024 8 08,15:40:24.370,0.801119,-0.509676,-0.288013,-0.124372,-0.934392,0.071738,0.063829,63.746151,1.165507,-40.624275,0,0
1797,2024 8 08,15:40:24.379,0.802118,-0.508606,-0.287754,-0.122962,-0.952178,0.098024,0.048933,67.14888,2.098631,-36.377464,0,0
1798,2024 8 08,15:40:24.387,0.804755,-0.505,-0.287617,-0.12086,-0.948563,0.204355,0.048403,75.539597,-5.498845,-20.582901,0,0
1799,2024 8 08,15:40:24.395,0.808242,-0.499735,-0.287654,-0.119343,-0.853721,0.298073,0.056957,79.149956,-12.395126,-4.039867,0,0
1800,2024 8 08,15:40:24.404,0.81165,-0.494068,-0.288176,-0.118536,-0.769621,0.350376,0.062534,76.001343,-10.199448,7.185667,0,0
1801,2024 8 08,15:40:24.412,0.814512,-0.4887,-0.289429,-0.118105,-0.752708,0.370708,0.065228,68.10257,-2.135884,14.506196,0,0
1802,2024 8 08,15:40:24.420,0.816666,-0.483903,-0.291454,-0.11802,-0.803278,0.367173,0.063942,57.829094,5.826238,21.316999,0,0
1803,2024 8 08,15:40:24.429,0.817429,-0.482153,-0.292243,-0.118005,-0.825288,0.364743,0.06326,53.917969,8.735058,23.841114,0,0
1804,2024 8 08,15:40:24.437,0.818354,-0.479249,-0.294213,-0.118512,-0.850306,0.349706,0.062471,45.979458,10.37379,29.483896,0,0
1805,2024 8 08,15:40:24.445,0.819079,-0.476008,-0.296954,-0.119714,-0.850087,0.315049,0.057714,36.01321,11.972032,36.422546,0,0
1806,2024 8 08,15:40:24.454,0.819322,-0.473089,-0.300196,-0.121506,-0.841692,0.266499,0.058544,26.112732,15.452254,42.619141,0,0
1807,2024 8 08,15:40:24.462,0.819044,-0.498006,-0.219964,-0.181035,-0.856622,0.217846,0.060696,17.810802,20.206654,47.49369,0,0
1808,2024 8 08,15:40:24.470,0.818327,-0.468544,-0.308011,-0.126159,-0.88704,0.1662,0.059871,11.865151,24.122908,51.503185,0,0
1809,2024 8 08,15:40:24.479,0.818009,-0.467707,-0.309719,-0.127186,-0.900274,0.144787,0.059343,9.555781,25.669497,53.107162,0,0
1810,2024 8 08,15:40:24.487,0.817213,-0.466398,-0.312937,-0.129197,-0.912994,0.108377,0.053564,7.542174,26.944103,55.732021,0,0
1811,2024 8 08,15:40:24.495,0.816655,-0.465504,-0.315162,-0.13059,-0.921297,0.083365,0.049377,6.243969,27.759451,57.530682,0,0
1812,2024 8 08,15:40:24.504,0.815347,-0.463644,-0.319943,-0.133708,-0.919515,0.040349,0.053587,6.640969,29.252268,62.474346,0,0
1813,2024 8 08,15:40:24.512,0.81388,-0.461573,-0.325209,-0.137064,-0.939545,0.000359,0.049971,7.819779,33.205936,68.277832,0,0
1814,2024 8 08,15:40:24.520,0.812282,-0.459206,-0.330943,-0.140715,-0.947307,-0.036786,0.048435,10.170773,35.676155,75.543236,0,0
1815,2024 8 08,15:40:24.529,0.810548,-0.456455,-0.337214,-0.144712,-0.993086,-0.059756,0.040187,12.061374,38.820267,83.380562,0,0
1816,2024 8 08,15:40:24.537,0.810426,-0.456261,-0.337656,-0.144994,-0.996313,-0.061375,0.039606,12.194667,39.041939,83.933121,0,0
1817,2024 8 08,15:40:24.545,0.808739,-0.453364,-0.343789,-0.14901,-1.032264,-0.068999,0.045284,14.628541,39.005424,89.37542,0,0
1818,2024 8 08,15:40:24.554,0.806942,-0.449952,-0.350437,-0.153533,-1.036602,-0.075381,0.038014,16.76362,38.350399,92.452309,0,0
1819,2024 8 08,15:40:24.562,0.805068,-0.446374,-0.357218,-0.158108,-1.043929,-0.090641,0.028226,17.692318,39.296349,93.48362,0,0
1820,2024 8 08,15:40:24.570,0.803071,-0.442796,-0.364097,-0.162562,-1.062985,-0.108967,0.009294,17.487875,41.681919,92.869087,0,0
1821,2024 8 08,15:40:24.579,0.800943,-0.439305,-0.371005,-0.166855,-1.085526,-0.138915,0.012615,16.522802,43.249443,91.27636,0,0
1822,2024 8 08,15:40:24.587,0.800635,-0.438801,-0.372002,-0.167475,-1.08878,-0.143239,0.013094,16.383486,43.475731,91.046432,0,0
1823,2024 8 08,15:40:24.595,0.79866,-0.435921,-0.377926,-0.171101,-1.110396,-0.178012,-0.010377,14.687268,43.409439,89.742073,0,0
1824,2024 8 08,15:40:24.604,0.796433,-0.432708,-0.384401,-0.175145,-1.095561,-0.198226,-0.030313,13.753796,41.94582,88.072395,0,0
1825,2024 8 08,15:40:24.612,0.794076,-0.429587,-0.39089,-0.179115,-1.095307,-0.223959,-0.047293,12.500593,43.170216,85.650368,0,0
1826,2024 8 08,15:40:24.620,0.791563,-0.426704,-0.397338,-0.182901,-1.103073,-0.261206,-0.06532,9.970761,45.01104,82.852661,0,0
1827,2024 8 08,15:40:24.629,0.788902,-0.424045,-0.403748,-0.186507,-1.130069,-0.279364,-0.071967,7.97622,46.531944,80.515877,0,0
1828,2024 8 08,15:40:24.637,0.786132,-0.421622,-0.409957,-0.190113,-1.150528,-0.311708,-0.092398,4.561902,44.894413,78.983482,0,0
1829,2024 8 08,15:40:24.645,0.785532,-0.421097,-0.411303,-0.190895,-1.154966,-0.318726,-0.09683,3.821169,44.539154,78.651031,0,0
1830,2024 8 08,15:40:24.654,0.783207,-0.419312,-0.416091,-0.193954,-1.154483,-0.340026,-0.098206,0.771113,41.948261,77.552994,0,0
1831,2024 8 08,15:40:24.662,0.78047,-0.417408,-0.421347,-0.197694,-1.155472,-0.353863,-0.091179,-2.749478,38.214214,76.789085,0,0
1832,2024 8 08,15:40:24.670,0.777675,-0.415677,-0.426279,-0.201735,-1.13392,-0.381219,-0.087282,-6.969816,32.625011,74.241409,0,0
1833,2024 8 08,15:40:24.679,0.774951,-0.414224,-0.430656,-0.205869,-1.097586,-0.413276,-0.082346,-10.820669,27.574936,70.365211,0,0
1834,2024 8 08,15:40:24.687,0.772218,-0.413128,-0.434598,-0.21002,-1.07885,-0.464258,-0.078215,-15.022709,25.011154,67.088219,0,0
1835,2024 8 08,15:40:24.695,0.771479,-0.412832,-0.435662,-0.211141,-1.073791,-0.478024,-0.077099,-16.157387,24.318855,66.203331,0,0
1836,2024 8 08,15:40:24.704,0.76935,-0.412213,-0.438369,-0.21448,-1.058503,-0.524188,-0.0813,-18.294754,20.309338,64.178825,0,0
1837,2024 8 08,15:40:24.712,0.767047,-0.411483,-0.441152,-0.218381,-1.019811,-0.564852,-0.078727,-18.091377,15.5159,60.768421,0,0
1838,2024 8 08,15:40:24.720,0.764821,-0.410794,-0.44373,-0.222226,-0.98332,-0.606336,-0.074237,-16.843658,13.258293,56.074814,0,0
1839,2024 8 08,15:40:24.729,0.762847,-0.410069,-0.446011,-0.225756,-0.929674,-0.653093,-0.072212,-13.697491,10.437065,51.008072,0,0
1840,2024 8 08,15:40:24.737,0.761137,-0.409302,-0.448091,-0.228789,-0.894826,-0.695446,-0.063614,-10.150963,10.187916,45.041138,0,0
1841,2024 8 08,15:40:24.745,0.760595,-0.409059,-0.44875,-0.229749,-0.883801,-0.708845,-0.060894,-9.028941,10.109092,43.153366,0,0
1842,2024 8 08,15:40:24.754,0.759479,-0.408399,-0.450288,-0.231596,-0.880884,-0.735619,-0.048631,-5.170081,10.368136,39.778454,0,0
1843,2024 8 08,15:40:24.762,0.757962,-0.407147,-0.452627,-0.234206,-0.879853,-0.771931,-0.024549,0.198525,8.248245,35.696156,0,0
1844,2024 8 08,15:40:24.770,0.757193,-0.405856,-0.454144,-0.235989,-0.858075,-0.786928,-0.003023,4.280288,3.042551,32.713993,0,0
1845,2024 8 08,15:40:24.779,0.75679,-0.404438,-0.45525,-0.237584,-0.824977,-0.823082,0.002785,6.844938,-1.682447,29.000023,0,0
1846,2024 8 08,15:40:24.787,0.756727,-0.40295,-0.455965,-0.238935,-0.790022,-0.849312,0.011778,9.538906,-5.90572,24.459902,0,0
1847,2024 8 08,15:40:24.795,0.756723,-0.40268,-0.456086,-0.239174,-0.783685,-0.853712,0.013545,10.034965,-6.659418,23.62023,0,0
1848,2024 8 08,15:40:24.804,0.757025,-0.401475,-0.456257,-0.239917,-0.725821,-0.874187,0.014438,11.668895,-9.717388,17.645658,0,0
1849,2024 8 08,15:40:24.812,0.757627,-0.400229,-0.456166,-0.240273,-0.664913,-0.904947,0.013099,13.337118,-9.994294,8.509773,0,0
1850,2024 8 08,15:40:24.820,0.758372,-0.399376,-0.455875,-0.239892,-0.650826,-0.930668,0.002931,13.643539,-7.454522,-1.640948,0,0
1851,2024 8 08,15:40:24.829,0.75924,-0.399025,-0.455324,-0.238774,-0.649169,-0.947814,-0.008579,12.459522,-6.011549,-12.468561,0,0
1852,2024 8 08,15:40:24.837,0.760272,-0.399126,-0.454471,-0.236937,-1.878535,-0.836025,-0.140098,12.63856,-4.023247,-22.665596,0,0
1853,2024 8 08,15:40:24.845,0.760533,-0.399165,-0.454251,-0.236461,-2.227157,-0.803742,-0.176969,12.73953,-3.504393,-25.158497,0,0
1854,2024 8 08,15:40:24.854,0.762856,-0.398963,-0.452625,-0.232378,-1.409789,0.063362,0.761467,27.12923,-34.414467,-71.22551,0,0
1855,2024 8 08,15:40:24.862,0.767862,-0.397085,-0.448372,-0.227263,-1.475295,0.071083,0.072087,78.547333,-52.225517,-84.495987,1,0
1856,2024 8 08,15:40:24.870,0.774052,-0.39401,-0.441859,-0.224331,-1.206445,-0.054346,0.471845,42.04882,-88.901733,-59.576084,0,0
1857,2024 8 08,15:40:24.879,0.779288,-0.392543,-0.434946,-0.222281,-1.102326,-0.034278,0.246307,29.888004,-87.884544,-57.822502,0,0
1858,2024 8 08,15:40:24.887,0.784096,-0.39207,-0.427395,-0.220847,-0.945803,0.007461,-0.047871,6.203428,-90.783661,-61.125702,0,0
1859,2024 8 08,15:40:24.895,0.785542,-0.39196,-0.425076,-0.220436,-0.894318,0.020132,-0.134604,-1.766054,-92.119705,-62.167236,0,0
1860,2024 8 08,15:40:24.904,0.787542,-0.394034,-0.419596,-0.220078,-0.891735,-0.185998,-0.275046,-26.920439,-70.479492,-59.320503,0,0
1861,2024 8 08,15:40:24.912,0.789284,-0.396923,-0.413769,-0.219674,-0.881626,-0.298625,-0.341705,-30.791885,-54.743793,-51.295353,0,0
1862,2024 8 08,15:40:24.920,0.790843,-0.399185,-0.408918,-0.21906,-0.861237,-0.260959,-0.293795,-21.016273,-41.116871,-42.497551,0,0
1863,2024 8 08,15:40:24.929,0.792024,-0.400978,-0.405379,-0.21811,-0.906263,-0.18165,-0.166297,-14.508913,-26.958687,-36.583221,0,0
1864,2024 8 08,15:40:24.937,0.792711,-0.402894,-0.402658,-0.217126,-0.936579,-0.130515,-0.0557,-18.270144,-18.308197,-34.027847,0,0
1865,2024 8 08,15:40:24.945,0.79293,-0.403578,-0.401735,-0.216781,-0.945927,-0.114198,-0.018203,-20.101448,-15.562657,-33.28418,0,0
1866,2024 8 08,15:40:24.954,0.792962,-0.405588,-0.400006,-0.216101,-0.955126,-0.147856,-0.017419,-26.351105,-12.502714,-34.323528,0,0
1867,2024 8 08,15:40:24.962,0.792875,-0.408337,-0.397865,-0.215188,-0.945235,-0.203218,-0.037167,-28.002087,-10.445641,-34.753941,0,0
1868,2024 8 08,15:40:24.970,0.7928,-0.410928,-0.395882,-0.214187,-0.940135,-0.239499,-0.045784,-23.724232,-8.087059,-31.667509,0,0
1869,2024 8 08,15:40:24.979,0.792726,-0.413158,-0.394201,-0.21327,-0.933579,-0.250585,-0.065547,-19.939398,-6.454573,-26.612249,0,0
1870,2024 8 08,15:40:24.987,0.792702,-0.41488,-0.392901,-0.212419,-0.934713,-0.225315,-0.078987,-13.872774,-4.580748,-22.359577,0,0
1871,2024 8 08,15:40:24.995,0.792696,-0.41553,-0.39241,-0.212086,-0.935645,-0.21338,-0.083784,-11.334101,-3.820682,-20.745237,0,0
1872,2024 8 08,15:40:25.004,0.792635,-0.416566,-0.391722,-0.211553,-0.931608,-0.212023,-0.084103,-11.996146,-2.218637,-19.313375,0,0
1873,2024 8 08,15:40:25.012,0.792455,-0.417893,-0.391023,-0.210902,-0.925679,-0.201119,-0.084595,-13.282396,-0.256183,-17.685095,0,0
1874,2024 8 08,15:40:25.020,0.792053,-0.419466,-0.390481,-0.210291,-0.924285,-0.215124,-0.094434,-15.697171,3.036071,-16.085014,0,0
1875,2024 8 08,15:40:25.029,0.791779,-0.42048,-0.390154,-0.20991,-0.923858,-0.226517,-0.101533,-17.326553,5.238977,-15.080265,0,0
1876,2024 8 08,15:40:25.037,0.791117,-0.422163,-0.390019,-0.209276,-0.935342,-0.214604,-0.081464,-15.240069,8.419386,-13.759692,0,0
1877,2024 8 08,15:40:25.045,0.790395,-0.423611,-0.390322,-0.208515,-0.967618,-0.191747,-0.037238,-11.958945,13.018036,-11.612931,0,0
1878,2024 8 08,15:40:25.054,0.789621,-0.425049,-0.390769,-0.207678,-0.974294,-0.183071,-0.000903,-12.02073,14.162022,-12.584049,0,0
1879,2024 8 08,15:40:25.062,0.789584,-0.425119,-0.390791,-0.207638,-0.974617,-0.182651,0.000858,-12.023724,14.217453,-12.631104,0,0
1880,2024 8 08,15:40:25.070,0.788814,-0.426592,-0.391239,-0.206699,-0.985908,-0.206067,0.00818,-12.305655,15.291535,-13.591967,0,0
1881,2024 8 08,15:40:25.079,0.788078,-0.428038,-0.391725,-0.205591,-0.97121,-0.201174,0.019399,-10.216363,14.872935,-14.664455,0,0
1882,2024 8 08,15:40:25.087,0.787377,-0.429586,-0.392125,-0.204281,-0.994,-0.177521,0.027404,-10.688122,15.328634,-17.826134,0,0
1883,2024 8 08,15:40:25.095,0.786697,-0.431289,-0.392352,-0.202872,-0.989831,-0.207954,0.009208,-11.653917,14.078889,-20.900591,0,0
1884,2024 8 08,15:40:25.104,0.786117,-0.432982,-0.39243,-0.201355,-0.976575,-0.229736,-0.018852,-10.858374,13.0314,-21.569752,0,0
1885,2024 8 08,15:40:25.112,0.786044,-0.433195,-0.392439,-0.201164,-0.974909,-0.232474,-0.022379,-10.758366,12.899719,-21.653873,0,0
1886,2024 8 08,15:40:25.120,0.785648,-0.434465,-0.392498,-0.199852,-0.965142,-0.246121,-0.040281,-7.738191,12.000432,-20.369553,0,0
1887,2024 8 08,15:40:25.129,0.785421,-0.435341,-0.392745,-0.198349,-0.974329,-0.230554,0.011484,-0.127643,11.917817,-17.262838,0,0
1888,2024 8 08,15:40:25.137,0.785276,-0.43594,-0.393121,-0.196858,-0.974586,-0.229681,-0.000439,2.451803,11.197796,-15.453671,0,0
1889,2024 8 08,15:40:25.145,0.785254,-0.436169,-0.393646,-0.195385,-0.975028,-0.223153,-0.002872,6.779298,11.423831,-13.051787,0,0
1890,2024 8 08,15:40:25.154,0.785318,-0.43625,-0.394193,-0.193837,-0.966447,-0.225907,-0.002131,8.547215,11.169526,-14.24061,0,0
1891,2024 8 08,15:40:25.162,0.78533,-0.436265,-0.394298,-0.19354,-0.964805,-0.226434,-0.001989,8.885529,11.120861,-14.468107,0,0
1892,2024 8 08,15:40:25.170,0.785438,-0.436329,-0.394727,-0.192077,-0.977529,-0.193906,0.009941,9.769494,11.542978,-15.665694,0,0
1893,2024 8 08,15:40:25.179,0.785517,-0.436514,-0.395189,-0.190377,-0.980215,-0.21169,-0.003848,8.48656,11.774306,-17.530279,0,0
1894,2024 8 08,15:40:25.187,0.78564,-0.436754,-0.395572,-0.188516,-0.97219,-0.215239,0.006223,7.407351,11.357014,-18.222652,0,0
1895,2024 8 08,15:40:25.195,0.785728,-0.437059,-0.395918,-0.186703,-0.972936,-0.250114,0.013352,7.344323,10.983423,-18.890863,0,0
1896,2024 8 08,15:40:25.204,0.785851,-0.437427,-0.396127,-0.184873,-0.963968,-0.234303,0.009933,5.820179,9.522248,-18.821907,0,0
1897,2024 8 08,15:40:25.212,0.785881,-0.437518,-0.396178,-0.184419,-0.961746,-0.230384,0.009086,5.442428,9.160104,-18.804817,0,0
1898,2024 8 08,15:40:25.220,0.785959,-0.437666,-0.396418,-0.183221,-0.95367,-0.24725,0.018519,6.953916,8.62044,-15.09222,0,0
1899,2024 8 08,15:40:25.229,0.786039,-0.43783,-0.396678,-0.181918,-0.951883,-0.241118,0.024199,5.764314,7.638242,-13.711015,0,0
1900,2024 8 08,15:40:25.237,0.786097,-0.437966,-0.396927,-0.180792,-0.943708,-0.245033,0.025402,5.046234,6.278074,-11.237369,0,0
1901,2024 8 08,15:40:25.245,0.786143,-0.438024,-0.397201,-0.179845,-0.947282,-0.248898,0.015375,5.232907,5.420394,-9.073168,0,0
1902,2024 8 08,15:40:25.254,0.786201,-0.438022,-0.397471,-0.178997,-0.945582,-0.247966,0.01555,5.201474,4.873359,-8.02013,0,0
1903,2024 8 08,15:40:25.262,0.786218,-0.438022,-0.397552,-0.178745,-0.945078,-0.247689,0.015602,5.19214,4.710917,-7.707429,0,0
1904,2024 8 08,15:40:25.270,0.786249,-0.437957,-0.397825,-0.178162,-0.945593,-0.255295,0.003582,5.73259,5.121159,-6.483828,0,0
1905,2024 8 08,15:40:25.279,0.786314,-0.437828,-0.39814,-0.177487,-0.947407,-0.25899,0.009425,5.818477,4.504883,-5.895421,0,0
1906,2024 8 08,15:40:25.287,0.78641,-0.437614,-0.398487,-0.176808,-0.948968,-0.262134,0.014563,6.909577,4.226361,-5.175772,0,0
1907,2024 8 08,15:40:25.295,0.78656,-0.437295,-0.398835,-0.176143,-0.953364,-0.255386,0.025956,7.994297,3.366281,-4.779031,0,0
1908,2024 8 08,15:40:25.304,0.786842,-0.436748,-0.399262,-0.175276,-0.955977,-0.26532,0.020424,9.472128,2.156676,-4.112907,0,0
1909,2024 8 08,15:40:25.312,0.786878,-0.43668,-0.399307,-0.17518,-0.956081,-0.267518,0.018612,9.638368,2.018472,-4.030879,0,0
1910,2024 8 08,15:40:25.320,0.787164,-0.436141,-0.399562,-0.174652,-0.94963,-0.266373,0.025011,11.407909,1.510185,-3.373017,0,0
1911,2024 8 08,15:40:25.329,0.787594,-0.435363,-0.399845,-0.17401,-0.949543,-0.247459,0.035428,13.247991,0.168306,-3.39202,0,0
1912,2024 8 08,15:40:25.337,0.788094,-0.434577,-0.399987,-0.173379,-0.953246,-0.247399,0.026477,13.78026,-1.520426,-4.346073,0,0
1913,2024 8 08,15:40:25.345,0.788677,-0.433724,-0.400031,-0.17276,-0.96409,-0.255331,0.041128,14.765182,-2.921486,-4.557724,0,0
1914,2024 8 08,15:40:25.354,0.789374,-0.432755,-0.399973,-0.17214,-0.969219,-0.256373,0.03129,16.17897,-4.535541,-4.480546,0,0
1915,2024 8 08,15:40:25.362,0.789531,-0.432539,-0.399958,-0.172004,-0.97013,-0.256357,0.028218,16.500204,-4.898311,-4.458352,0,0
1916,2024 8 08,15:40:25.370,0.790206,-0.431677,-0.399765,-0.171512,-0.95987,-0.214333,-0.054694,16.951786,-7.111955,-5.565907,0,0
1917,2024 8 08,15:40:25.379,0.791026,-0.430711,-0.39942,-0.170963,-0.95775,-0.243219,0.023758,15.748093,-8.082428,-5.781072,0,0
1918,2024 8 08,15:40:25.387,0.791854,-0.429768,-0.399009,-0.170464,-0.961179,-0.247916,0.028987,14.887782,-9.168823,-5.975836,0,0
1919,2024 8 08,15:40:25.395,0.792702,-0.41488,-0.392901,-0.212419,-0.96472,-0.250331,0.006075,13.798094,-10.176205,-6.609302,0,0
1920,2024 8 08,15:40:25.404,0.79355,-0.428099,-0.397799,-0.1696,-0.963905,-0.250172,0.021742,12.131648,-11.407847,-7.10436,0,0
1921,2024 8 08,15:40:25.412,0.793788,-0.427881,-0.397607,-0.169492,-0.963498,-0.250037,0.027936,11.64306,-11.762787,-7.23456,0,0
1922,2024 8 08,15:40:25.420,0.794414,-0.427389,-0.396989,-0.169246,-0.953856,-0.271203,0.000672,10.616303,-12.637607,-7.172288,0,0
1923,2024 8 08,15:40:25.429,0.795268,-0.426624,-0.396246,-0.168905,-0.944489,-0.258885,-0.002091,12.26048,-12.969795,-6.683367,0,0
1924,2024 8 08,15:40:25.437,0.796117,-0.425875,-0.395506,-0.168531,-0.957691,-0.254087,-0.007263,11.976213,-11.917398,-7.34793,0,0
1925,2024 8 08,15:40:25.445,0.796958,-0.425153,-0.394773,-0.168096,-0.961922,-0.24529,-0.008227,11.693201,-11.195436,-8.149868,0,0
1926,2024 8 08,15:40:25.454,0.797758,-0.424553,-0.394025,-0.167572,-0.975699,-0.230772,-0.014788,10.88716,-10.865436,-9.911173,0,0
1927,2024 8 08,15:40:25.462,0.79847,-0.424142,-0.393272,-0.166989,-0.985657,-0.235999,-0.042668,8.743526,-9.285583,-10.904998,0,0
1928,2024 8 08,15:40:25.470,0.798707,-0.424011,-0.393016,-0.166789,-0.988755,-0.238822,-0.053176,7.951661,-8.682755,-11.195627,0,0
1929,2024 8 08,15:40:25.479,0.799152,-0.423873,-0.392483,-0.166267,-0.988259,-0.240142,-0.051672,6.619985,-7.593552,-12.129841,0,0
1930,2024 8 08,15:40:25.487,0.79967,-0.42378,-0.391857,-0.165489,-0.992902,-0.231268,-0.031739,6.106096,-6.318537,-14.012516,0,0
1931,2024 8 08,15:40:25.495,0.800159,-0.423858,-0.391174,-0.164537,-1.010526,-0.236088,-0.02389,5.013005,-5.430501,-16.388439,0,0
1932,2024 8 08,15:40:25.504,0.800679,-0.423992,-0.390458,-0.163356,-1.026811,-0.2369,-0.037882,6.35012,-4.632246,-19.219208,0,0
1933,2024 8 08,15:40:25.512,0.801273,-0.42421,-0.389617,-0.161877,-1.048948,-0.244641,-0.04097,6.511208,-4.071153,-22.930624,0,0
1934,2024 8 08,15:40:25.520,0.801504,-0.424298,-0.389288,-0.161295,-1.0578,-0.248066,-0.041346,6.482082,-3.869658,-24.400759,0,0
1935,2024 8 08,15:40:25.529,0.802047,-0.424414,-0.388632,-0.159866,-1.051904,-0.255234,-0.016236,9.296018,-3.883607,-27.216515,0,0
1936,2024 8 08,15:40:25.537,0.802854,-0.424547,-0.387711,-0.157676,-1.067372,-0.25023,-0.024763,12.794878,-3.028918,-32.352123,0,0
1937,2024 8 08,15:40:25.545,0.803876,-0.424568,-0.38667,-0.154935,-1.076182,-0.266365,-0.01902,17.269733,-2.522006,-36.880005,0,0
1938,2024 8 08,15:40:25.554,0.805093,-0.424585,-0.385449,-0.151564,-1.103573,-0.258225,-0.025079,19.834255,-1.492832,-43.538586,0,0
1939,2024 8 08,15:40:25.562,0.806452,-0.424602,-0.384138,-0.147547,-1.117353,-0.248305,0.015298,23.33374,0.061333,-50.874527,0,0
1940,2024 8 08,15:40:25.570,0.807325,-0.424613,-0.383302,-0.144948,-1.12447,-0.242259,0.045576,25.670839,1.087671,-55.553059,0,0
1941,2024 8 08,15:40:25.579,0.807334,-0.424613,-0.383293,-0.144921,-1.124544,-0.242197,0.045892,25.695158,1.098351,-55.601742,0,0
1942,2024 8 08,15:40:25.587,0.808839,-0.424783,-0.381796,-0.139893,-1.173276,-0.223921,0.074013,28.565615,2.445689,-64.271065,0,0
1943,2024 8 08,15:40:25.595,0.810297,-0.425421,-0.380134,-0.133911,-1.195527,-0.257813,-0.082272,24.871859,5.84581,-76.675102,0,0
1944,2024 8 08,15:40:25.604,0.8117,-0.426778,-0.377996,-0.12696,-1.304067,-0.252362,-0.038841,19.726643,9.383325,-90.135315,0,0
1945,2024 8 08,15:40:25.612,0.81308,-0.428415,-0.375507,-0.119795,-1.335604,-0.336717,-0.055183,19.491234,4.299148,-88.97113,0,0
1946,2024 8 08,15:40:25.620,0.816047,-0.428247,-0.37199,-0.110834,-1.489722,-0.096514,0.070762,53.662815,-6.551108,-118.317444,0,0
1947,2024 8 08,15:40:25.629,0.816325,-0.200141,-0.509462,-0.184403,-1.504162,-0.074008,0.082562,56.86446,-7.567701,-121.066986,0,0
1948,2024 8 08,15:40:25.637,0.818456,-0.430211,-0.367242,-0.100827,-1.557686,-0.214268,-0.082896,28.041632,-4.668098,-141.069565,0,0
1949,2024 8 08,15:40:25.645,0.821283,-0.432507,-0.361328,-0.088556,-1.712781,-0.10416,0.044571,36.971287,-9.25132,-173.209915,0,0
1950,2024 8 08,15:40:25.654,0.824336,-0.435805,-0.353398,-0.07486,-1.912773,-0.165908,0.023967,34.476463,-22.809254,-198.876892,0,0
1951,2024 8 08,15:40:25.662,0.828013,-0.439164,-0.343469,-0.059011,-2.119774,-0.081018,0.401828,44.796974,-33.808159,-238.614532,0,0
1952,2024 8 08,15:40:25.670,0.830935,-0.445178,-0.331051,-0.040601,-2.148207,-0.332257,0.434432,20.524265,-41.140915,-284.698456,0,0
1953,2024 8 08,15:40:25.679,0.831415,-0.446164,-0.329014,-0.037581,-2.152871,-0.373473,0.439781,16.542343,-42.343849,-292.258514,0,0
1954,2024 8 08,15:40:25.687,0.834323,-0.451431,-0.315562,-0.020301,-2.241763,-0.331478,0.236791,32.757145,-68.787704,-312.572815,0,0
1955,2024 8 08,15:40:25.695,0.838038,-0.457475,-0.296969,-0.000571,-1.92681,-0.38599,0.17649,30.128031,-101.251045,-333.569611,0,0
1956,2024 8 08,15:40:25.704,0.840789,-0.464637,-0.276591,0.020053,-1.800313,-0.74326,0.018095,14.334184,-101.35273,-344.681549,0,1
1957,2024 8 08,15:40:25.712,0.842393,-0.471991,-0.256164,0.040816,-1.830144,-0.97208,-0.036567,8.562217,-98.364655,-340.227234,0,0
1958,2024 8 08,15:40:25.720,0.843572,-0.478336,-0.235764,0.060621,-1.767856,-0.929896,0.144946,15.673105,-103.667435,-328.418762,0,0
1959,2024 8 08,15:40:25.729,0.843837,-0.479759,-0.231189,0.065063,-1.753887,-0.920435,0.185654,17.267859,-104.856689,-325.770477,0,0
1960,2024 8 08,15:40:25.737,0.844127,-0.484634,-0.214512,0.079833,-1.628284,-0.766773,0.219479,12.988024,-109.832573,-311.564178,0,0
1961,2024 8 08,15:40:25.745,0.84444,-0.489407,-0.194688,0.096016,-1.336714,-0.42834,0.226588,20.007551,-119.59697,-300.2901,0,0
1962,2024 8 08,15:40:25.754,0.844479,-0.493473,-0.174357,0.112328,-0.952456,-0.128418,0.283808,22.44603,-111.836647,-292.328369,0,0
1963,2024 8 08,15:40:25.762,0.844041,-0.496386,-0.15532,0.129378,-0.76544,0.237377,0.215765,31.975185,-89.449463,-288.302765,0,0
1964,2024 8 08,15:40:25.770,0.842492,-0.499019,-0.137622,0.147969,-0.183002,0.13003,0.607368,24.372856,-60.88644,-297.820892,0,0
1965,2024 8 08,15:40:25.779,0.842064,-0.499747,-0.13273,0.153108,-0.022018,0.100359,0.715605,22.271606,-52.991745,-300.45166,0,0
1966,2024 8 08,15:40:25.787,0.840822,-0.499141,-0.122504,0.169344,0.500567,0.262207,1.148195,60.632137,0.165779,-268.476746,0,0
1967,2024 8 08,15:40:25.795,0.840625,-0.495499,-0.116623,0.184527,-0.373222,0.028465,0.167807,76.606209,39.09201,-169.523224,0,0
1968,2024 8 08,15:40:25.804,0.841961,-0.489904,-0.116371,0.193511,-0.889724,0.535557,0.267543,69.239365,60.610649,-61.766556,0,0
1969,2024 8 08,15:40:25.812,0.843958,-0.485007,-0.120085,0.19501,-1.101447,0.65216,0.325173,48.538143,42.463608,31.871841,0,0
1970,2024 8 08,15:40:25.820,0.847197,-0.481026,-0.123055,0.188881,-0.920038,0.682933,0.268205,38.892708,-18.589027,97.663338,0,0
1971,2024 8 08,15:40:25.829,0.848239,-0.479745,-0.124011,0.186908,-0.861632,0.692841,0.249864,35.787285,-38.245403,118.845428,0,0
1972,2024 8 08,15:40:25.837,0.85201,-0.477262,-0.125602,0.174646,-0.477981,0.719156,0.267231,16.041328,-58.262321,141.92659,0,0
1973,2024 8 08,15:40:25.845,0.854612,-0.47622,-0.12833,0.162361,-0.219037,0.629601,0.250735,-2.685387,-38.415977,141.15657,0,0
1974,2024 8 08,15:40:25.854,0.856261,-0.475662,-0.132922,0.151231,-0.16583,0.557239,0.228077,-13.803814,-10.362879,138.820267,0,0
1975,2024 8 08,15:40:25.862,0.856952,-0.475469,-0.140076,0.141114,-0.35185,0.479856,0.211094,-25.55018,21.093435,142.156662,0,0
1976,2024 8 08,15:40:25.870,0.856945,-0.475565,-0.14939,0.130872,-0.617611,0.408533,0.209398,-35.488281,38.178566,155.092117,0,0
1977,2024 8 08,15:40:25.879,0.856447,-0.476048,-0.160057,0.119187,-0.828333,0.311856,0.2048,-46.568184,39.267593,175.654037,0,0
1978,2024 8 08,15:40:25.887,0.856334,-0.476156,-0.162239,0.11679,-0.868999,0.29159,0.203727,-48.8442,39.081181,179.985855,0,0
1979,2024 8 08,15:40:25.895,0.855737,-0.476771,-0.171177,0.105071,-0.868109,0.207278,0.193035,-53.778503,27.097721,200.713516,0,0
1980,2024 8 08,15:40:25.904,0.854887,-0.477414,-0.182235,0.089069,-0.805375,0.110173,0.173515,-57.858406,19.827301,222.717255,0,0
1981,2024 8 08,15:40:25.912,0.85373,-0.477741,-0.194072,0.071528,-0.752926,0.032145,0.172734,-58.627274,21.243965,238.036774,0,0
1982,2024 8 08,15:40:25.920,0.852152,-0.477546,-0.206791,0.053621,-0.7415,-0.04362,0.166361,-56.162048,31.219036,245.909622,0,0
1983,2024 8 08,15:40:25.929,0.850123,-0.476682,-0.220457,0.036061,-0.794481,-0.104505,0.150445,-51.443863,44.518883,248.253006,0,0
1984,2024 8 08,15:40:25.937,0.84957,-0.47643,-0.224106,0.031428,-0.810813,-0.120031,0.145907,-50.122723,48.126369,248.693588,0,0
1985,2024 8 08,15:40:25.945,0.847621,-0.475064,-0.235359,0.018391,-0.904504,-0.141716,0.123196,-44.851276,55.815117,249.331375,0,0
1986,2024 8 08,15:40:25.954,0.844943,-0.472786,-0.249717,0.002292,-1.011094,-0.155286,0.06872,-39.549873,60.814171,250.475433,0,0
1987,2024 8 08,15:40:25.962,0.841944,-0.46977,-0.264626,-0.014402,-1.041955,-0.203369,0.015813,-34.243542,61.910164,253.720444,0,0
1988,2024 8 08,15:40:25.970,0.838556,-0.466054,-0.280019,-0.03117,-1.06832,-0.241655,0.013564,-29.785027,69.182144,258.232605,0,0
1989,2024 8 08,15:40:25.979,0.834597,-0.461681,-0.296237,-0.047744,-1.2002,-0.26907,0.021153,-25.499208,79.500725,263.034607,0,0
1990,2024 8 08,15:40:25.987,0.833312,-0.460261,-0.301438,-0.053013,-1.247204,-0.27739,0.023684,-24.136341,82.884804,264.570892,0,0
1991,2024 8 08,15:40:25.995,0.829883,-0.456415,-0.313908,-0.065312,-1.330764,-0.305451,0.018741,-21.487928,84.200523,267.176788,0,0
1992,2024 8 08,15:40:26.004,0.825248,-0.451054,-0.329683,-0.080938,-1.397483,-0.337404,0.016751,-18.115768,84.471619,270.406708,0,0
1993,2024 8 08,15:40:26.012,0.820018,-0.444923,-0.34615,-0.097298,-1.439923,-0.376821,0.023228,-14.842814,85.308228,272.520813,0,0
1994,2024 8 08,15:40:26.020,0.814315,-0.438201,-0.362758,-0.11366,-1.479,-0.436625,0.031848,-10.542762,87.395454,273.316132,0,0
1995,2024 8 08,15:40:26.029,0.808165,-0.430945,-0.379417,-0.129678,-1.500991,-0.510318,0.047643,-6.091539,90.905838,272.458008,0,0
1996,2024 8 08,15:40:26.037,0.8059,-0.428272,-0.385499,-0.135506,-1.508074,-0.537819,0.053796,-4.467505,92.256065,272.062988,0,0
1997,2024 8 08,15:40:26.045,0.800981,-0.422572,-0.397682,-0.146589,-1.523598,-0.58731,0.057897,-1.268262,96.059471,269.502258,0,0
1998,2024 8 08,15:40:26.054,0.794432,-0.415138,-0.413062,-0.159964,-1.534553,-0.654022,0.073456,3.343212,100.871696,263.438446,0,0
1999,2024 8 08,15:40:26.062,0.787099,-0.407203,-0.429302,-0.173135,-1.52986,-0.743693,0.080136,7.143506,108.187439,254.824463,0,0
2000,2024 8 08,15:40:26.070,0.779147,-0.399247,-0.445875,-0.185253,-1.527139,-0.857826,0.082124,10.365467,118.467178,244.311172,0,0
2001,2024 8 08,15:40:26.079,0.770586,-0.391535,-0.462638,-0.196076,-1.540753,-1.000863,0.078686,12.02247,129.696411,233.230728,0,0
2002,2024 8 08,15:40:26.087,0.767082,-0.388423,-0.469445,-0.200394,-1.547242,-1.060449,0.076986,12.601792,134.284027,228.717545,0,0
2003,2024 8 08,15:40:26.095,0.760311,-0.383243,-0.481583,-0.207121,-1.575617,-1.177349,0.078987,11.832648,140.94722,223.350677,0,0
2004,2024 8 08,15:40:26.103,0.755657,-0.379715,-0.489886,-0.211682,-1.59573,-1.257764,0.080567,11.231118,145.441925,219.791443,0,0
2005,2024 8 08,15:40:26.112,0.745702,-0.372699,-0.506462,-0.220252,-1.587588,-1.402878,0.071925,11.230479,144.306183,215.525772,0,0
2006,2024 8 08,15:40:26.120,0.735764,-0.365749,-0.522146,-0.228533,-1.513207,-1.494621,-0.013341,9.929989,137.371521,209.190414,0,0
2007,2024 8 08,15:40:26.128,0.72604,-0.35915,-0.536644,-0.236369,-1.366494,-1.531938,-0.169708,6.454295,129.121155,196.824585,0,0
2008,2024 8 08,15:40:26.137,0.716839,-0.35336,-0.549542,-0.243433,-1.169381,-1.518026,-0.4618,0.961674,118.421211,175.55481,0,0
2009,2024 8 08,15:40:26.145,0.716294,-0.353017,-0.550306,-0.243852,-1.157704,-1.517202,-0.479105,0.63628,117.787323,174.294739,0,0
2010,2024 8 08,15:40:26.153,0.708354,-0.349205,-0.560394,-0.249456,-0.913911,-1.496637,-0.829846,-10.419815,109.661911,145.730515,0,0
2011,2024 8 08,15:40:26.162,0.700164,-0.347703,-0.569445,-0.254135,-0.933409,-1.975202,-1.051566,-31.528788,111.38121,108.28688,0,0
2012,2024 8 08,15:40:26.170,0.691555,-0.349603,-0.577122,-0.257758,-1.286762,-2.540226,-1.074731,-55.438812,114.367317,77.07872,0,0
2013,2024 8 08,15:40:26.178,0.68541,-0.352772,-0.580992,-0.261151,-1.395652,-2.935018,-0.817891,-61.992863,54.922539,45.248367,0,0
2014,2024 8 08,15:40:26.187,0.684844,-0.354705,-0.579093,-0.264234,-0.916663,-2.906042,-0.591513,-36.188904,-37.44281,11.716351,0,0
2015,2024 8 08,15:40:26.195,0.684768,-0.354966,-0.578837,-0.26465,-0.852083,-2.902135,-0.560992,-32.709869,-49.896038,7.195373,0,0
2016,2024 8 08,15:40:26.203,0.689071,-0.355144,-0.573122,-0.26566,-0.371468,-2.444759,-0.406312,-5.421497,-84.088852,-24.503439,0,0
2017,2024 8 08,15:40:26.212,0.693652,-0.356734,-0.567212,-0.264281,-0.429903,-1.877366,-0.352396,-4.56956,-59.445297,-55.517799,0,0
2018,2024 8 08,15:40:26.220,0.697891,-0.359817,-0.56138,-0.261371,-0.631266,-1.409639,-0.274949,-5.775716,-51.700665,-76.429642,0,0
2019,2024 8 08,15:40:26.228,0.701913,-0.364016,-0.555064,-0.258247,-0.720567,-1.036632,-0.223202,-19.364069,-50.217152,-87.373367,0,0
2020,2024 8 08,15:40:26.237,0.705562,-0.363403,-0.55312,-0.253304,-3.698161,-0.035583,-1.605863,117.569771,10.386658,-19.423203,0,0
2021,2024 8 08,15:40:26.245,0.706289,-0.363281,-0.552733,-0.25232,-4.291201,0.163793,-1.881245,144.842529,22.456966,-5.889744,0,0
2022,2024 8 08,15:40:26.253,0.715418,-0.353403,-0.552852,-0.23988,-1.915944,2.654446,2.803272,147.927444,-61.198498,-107.064423,0,0
2023,2024 8 08,15:40:26.262,0.720189,-0.362223,-0.54342,-0.233938,-1.598596,0.156508,0.853529,-90.087708,-96.667267,-196.278564,0,0
2024,2024 8 08,15:40:26.270,0.731856,-0.371001,-0.523359,-0.229386,-1.42049,0.334115,-0.405905,-31.67379,-247.885132,-223.057724,1,0
2025,2024 8 08,15:40:26.278,0.74254,-0.386072,-0.495497,-0.231601,-0.587448,-0.848556,-0.443954,-225.572937,-231.363342,-219.409149,0,0
2026,2024 8 08,15:40:26.287,0.743455,-0.404897,-0.479657,-0.230089,-1.369392,-1.112187,-0.483763,-147.73288,-65.121292,-179.632416,0,0
2027,2024 8 08,15:40:26.295,0.747378,-0.414304,-0.466686,-0.227589,-0.776541,-0.104283,-0.029487,-90.469116,-104.092148,-134.657516,0,0
2028,2024 8 08,15:40:26.303,0.74841,-0.416779,-0.463273,-0.226931,-0.62056,0.1609,0.090034,-75.402847,-114.34549,-122.824493,0,0
2029,2024 8 08,15:40:26.312,0.748081,-0.428726,-0.452931,-0.226509,-0.971567,-0.326842,-0.338819,-160.145691,-71.420822,-148.990036,0,0
2030,2024 8 08,15:40:26.320,0.747546,-0.442647,-0.440503,-0.225876,-0.706707,-0.668226,-0.430991,-140.368286,-69.032837,-142.493805,0,0
2031,2024 8 08,15:40:26.328,0.748404,-0.451053,-0.43226,-0.222433,-0.83403,-0.412529,-0.180035,-56.201729,-27.928448,-111.383232,0,0
2032,2024 8 08,15:40:26.337,0.749417,-0.456662,-0.426855,-0.218078,-1.005109,-0.23641,0.162728,-35.289635,-15.11464,-96.7771,0,0
2033,2024 8 08,15:40:26.345,0.75017,-0.462346,-0.421204,-0.214503,-0.988888,-0.318469,0.023557,-41.439934,-25.016212,-93.107559,0,0
2034,2024 8 08,15:40:26.353,0.750403,-0.464109,-0.419451,-0.213393,-0.983855,-0.343932,-0.019627,-43.348373,-28.088669,-91.968903,0,0
2035,2024 8 08,15:40:26.362,0.751622,-0.467351,-0.414899,-0.210904,-0.902209,-0.39073,-0.118638,-26.116552,-30.45866,-82.872864,0,0
2036,2024 8 08,15:40:26.370,0.753227,-0.4696,-0.410897,-0.207999,-0.871801,-0.342947,-0.112482,-5.263725,-21.124289,-65.148796,0,0
2037,2024 8 08,15:40:26.378,0.755113,-0.471726,-0.40695,-0.204127,-0.900466,-0.345013,-0.182019,2.620848,-8.337841,-45.940186,0,0
2038,2024 8 08,15:40:26.387,0.756355,-0.47191,-0.405597,-0.201787,-0.931377,-0.306289,-7.3e-05,18.556822,-2.262195,-29.069798,0,0
2039,2024 8 08,15:40:26.395,0.757474,-0.471193,-0.405315,-0.199821,-0.954484,-0.268732,-0.006247,18.140875,-0.672863,-17.097765,0,0
2040,2024 8 08,15:40:26.403,0.757663,-0.471052,-0.40529,-0.199493,-0.9583,-0.262579,-0.012797,17.609558,-0.498592,-15.188633,0,0
2041,2024 8 08,15:40:26.412,0.758405,-0.470739,-0.404849,-0.198301,-0.937688,-0.264598,0.014343,17.187471,-1.913053,-18.029869,0,0
2042,2024 8 08,15:40:26.420,0.75924,-0.399025,-0.455324,-0.238774,-0.96675,-0.237996,0.030124,16.178402,0.625831,-13.403659,0,0
2043,2024 8 08,15:40:26.428,0.759922,-0.469675,-0.404689,-0.195321,-0.976613,-0.239274,0.040542,14.665869,3.086841,-15.789926,0,0
2044,2024 8 08,15:40:26.437,0.760574,-0.469444,-0.404569,-0.19358,-0.962094,-0.267668,0.035555,13.947625,3.458413,-18.778618,0,0
2045,2024 8 08,15:40:26.445,0.761253,-0.46933,-0.404325,-0.191686,-0.954388,-0.234067,0.028722,13.070292,3.10538,-21.295771,0,0
2046,2024 8 08,15:40:26.453,0.761416,-0.469306,-0.404263,-0.191231,-0.952895,-0.223757,0.027105,12.851036,3.005979,-21.882587,0,0
2047,2024 8 08,15:40:26.462,0.761819,-0.469388,-0.403994,-0.189985,-0.948726,-0.264298,0.024725,9.255894,2.315773,-19.657288,0,0
2048,2024 8 08,15:40:26.470,0.762289,-0.469416,-0.403768,-0.188504,-0.944311,-0.261227,0.031891,9.751365,3.137273,-17.202518,0,0
2049,2024 8 08,15:40:26.478,0.762692,-0.469316,-0.403697,-0.187272,-0.943839,-0.281602,0.047218,9.013174,2.498701,-12.461056,0,0
2050,2024 8 08,15:40:26.487,0.763109,-0.469012,-0.403714,-0.186298,-0.9463,-0.288546,0.039951,10.377522,1.252836,-8.878268,0,0
2051,2024 8 08,15:40:26.495,0.763595,-0.468535,-0.403733,-0.185462,-0.937854,-0.266459,0.040966,11.171526,0.194554,-7.614305,0,0
2052,2024 8 08,15:40:26.503,0.763742,-0.468388,-0.403738,-0.185219,-0.934854,-0.258753,0.041789,11.365504,-0.108104,-7.332915,0,0
2053,2024 8 08,15:40:26.512,0.76417,-0.467925,-0.403725,-0.184653,-0.939279,-0.272949,0.049303,12.531441,-1.420676,-6.651121,0,0
2054,2024 8 08,15:40:26.520,0.764751,-0.467292,-0.403685,-0.183933,-0.937333,-0.27863,0.037463,13.110852,-2.21469,-6.950285,0,0
2055,2024 8 08,15:40:26.528,0.76537,-0.466651,-0.403562,-0.183255,-0.92494,-0.27371,0.034948,12.527618,-3.00753,-6.567772,0,0
2056,2024 8 08,15:40:26.537,0.766033,-0.465949,-0.403429,-0.182566,-0.927798,-0.274545,0.034413,13.24952,-3.837898,-6.560916,0,0
2057,2024 8 08,15:40:26.545,0.766713,-0.465219,-0.403288,-0.18188,-0.979912,-0.335358,0.005586,14.005666,-3.602192,-7.220891,0,0
2058,2024 8 08,15:40:26.553,0.766949,-0.464966,-0.403239,-0.181643,-1.000359,-0.359446,-0.005852,14.257202,-3.464931,-7.479784,0,0
2059,2024 8 08,15:40:26.562,0.767539,-0.464449,-0.40296,-0.18109,-0.956376,-0.317934,0.016455,12.998936,-5.296198,-7.350656,0,0
2060,2024 8 08,15:40:26.570,0.768231,-0.463743,-0.402715,-0.18051,-0.944085,-0.293309,0.036613,14.46505,-5.446856,-6.249444,0,0
2061,2024 8 08,15:40:26.578,0.769041,-0.46287,-0.402426,-0.179944,-0.932708,-0.292984,0.046385,15.244157,-6.912012,-5.67897,0,0
2062,2024 8 08,15:40:26.587,0.769932,-0.461838,-0.402166,-0.179362,-0.938665,-0.283804,0.035389,17.387699,-7.365086,-5.277882,0,0
2063,2024 8 08,15:40:26.595,0.770875,-0.46073,-0.401881,-0.178802,-0.942287,-0.296251,0.02264,18.034956,-7.576656,-4.90578,0,0
2064,2024 8 08,15:40:26.603,0.771243,-0.460297,-0.401768,-0.178585,-0.943393,-0.30247,0.017757,18.18432,-7.65586,-4.762321,0,0
2065,2024 8 08,15:40:26.612,0.772003,-0.459385,-0.401565,-0.178104,-0.938783,-0.290964,0.012218,19.465014,-7.970442,-5.191716,0,0
2066,2024 8 08,15:40:26.620,0.77298,-0.458223,-0.401289,-0.177478,-0.945803,0.007461,-0.047871,20.194508,-8.112325,-5.648781,0,0
2067,2024 8 08,15:40:26.628,0.774043,-0.456957,-0.400992,-0.17678,-0.944034,-0.284832,0.006714,20.482399,-8.014764,-5.90302,0,0
2068,2024 8 08,15:40:26.637,0.775111,-0.455728,-0.400641,-0.176063,-0.940936,-0.279245,0.010474,19.524651,-8.348519,-6.488887,0,0
2069,2024 8 08,15:40:26.645,0.775786,-0.454957,-0.400414,-0.175609,-0.939007,-0.270901,-0.002447,18.804016,-8.604116,-6.894055,0,0
2070,2024 8 08,15:40:26.653,0.776779,-0.453815,-0.400143,-0.174792,-0.956656,-0.269194,0.000783,19.753624,-6.278882,-7.79192,0,0
2071,2024 8 08,15:40:26.662,0.7768,-0.45379,-0.400137,-0.174774,-0.957045,-0.269056,0.000499,19.77458,-6.227569,-7.811734,0,0
2072,2024 8 08,15:40:26.670,0.77766,-0.453009,-0.399692,-0.173994,-0.982994,-0.348708,0.033833,13.639196,-6.978235,-9.954325,0,0
2073,2024 8 08,15:40:26.678,0.778507,-0.452445,-0.399087,-0.173061,-0.945069,-0.252365,0.055605,13.042319,-7.871937,-12.230608,0,0
2074,2024 8 08,15:40:26.687,0.779041,-0.452287,-0.398575,-0.172249,-0.94532,-0.300561,0.02688,6.989112,-4.444479,-12.096471,0,0
2075,2024 8 08,15:40:26.695,0.779416,-0.452272,-0.398172,-0.171525,-0.962184,-0.308305,0.023755,4.689075,-3.013891,-10.53455,0,0
2076,2024 8 08,15:40:26.703,0.779804,-0.452265,-0.39773,-0.170799,-0.968525,-0.304201,0.013419,6.009713,-4.031125,-12.19541,0,0
2077,2024 8 08,15:40:26.712,0.7803,-0.452174,-0.397204,-0.169997,-0.989868,-0.283089,0.000713,7.816412,-4.244138,-12.475027,0,0
2078,2024 8 08,15:40:26.720,0.780358,-0.452164,-0.397143,-0.169905,-0.992339,-0.280645,-0.000758,8.025545,-4.268795,-12.507395,0,0
2079,2024 8 08,15:40:26.728,0.780855,-0.452079,-0.396589,-0.169134,-0.963719,-0.282011,-0.007655,6.689398,-5.372708,-13.66471,0,0
2080,2024 8 08,15:40:26.737,0.781386,-0.451997,-0.39598,-0.168327,-0.950215,-0.306613,0.012072,6.917009,-5.733374,-12.894995,0,0
2081,2024 8 08,15:40:26.745,0.782015,-0.451644,-0.395449,-0.167604,-0.922457,-0.360543,-0.04988,10.268844,-7.11472,-8.849033,0,0
2082,2024 8 08,15:40:26.753,0.782944,-0.450958,-0.394863,-0.166486,-0.995351,-0.286237,-0.023622,13.077625,-6.128965,-14.844772,0,0
2083,2024 8 08,15:40:26.762,0.783829,-0.450701,-0.393943,-0.165193,-1.020251,-0.301278,-0.019096,12.716384,-7.699643,-19.807161,0,0
2084,2024 8 08,15:40:26.770,0.783991,-0.450654,-0.393775,-0.164956,-1.024804,-0.304028,-0.018268,12.65033,-7.986847,-20.714554,0,0
2085,2024 8 08,15:40:26.778,0.784988,-0.450204,-0.392903,-0.163514,-1.023743,-0.30068,-0.001815,16.613712,-8.187763,-23.07176,0,0
2086,2024 8 08,15:40:26.787,0.786297,-0.475186,-0.321492,-0.2293,-0.976401,-0.261686,0.086966,26.374012,-10.814684,-22.113564,0,0
2087,2024 8 08,15:40:26.795,0.787695,-0.448732,-0.390842,-0.159422,-1.032185,-0.282155,-0.031535,18.752171,-6.358869,-31.32398,0,0
2088,2024 8 08,15:40:26.803,0.789062,-0.448469,-0.389541,-0.156556,-1.163486,-0.290817,-0.022717,22.199793,-4.80792,-37.623734,0,0
2089,2024 8 08,15:40:26.812,0.790749,-0.447569,-0.388361,-0.153515,-1.098553,-0.269175,0.010359,36.159721,-5.834416,-38.389103,0,0
2090,2024 8 08,15:40:26.820,0.791155,-0.447353,-0.388078,-0.152783,-1.082937,-0.263971,0.018313,39.516918,-6.081276,-38.573162,0,0
2091,2024 8 08,15:40:26.828,0.792722,-0.446811,-0.386853,-0.149296,-1.086984,-0.276748,-0.028062,29.663036,-3.075398,-50.031673,0,0
2092,2024 8 08,15:40:26.837,0.794275,-0.446823,-0.385343,-0.144833,-1.176855,-0.344256,-0.063212,26.987608,1.579346,-55.662682,0,0
2093,2024 8 08,15:40:26.845,0.796512,-0.445812,-0.383763,-0.139749,-1.117206,-0.229274,0.130927,49.507652,-1.545206,-62.452732,0,0
2094,2024 8 08,15:40:26.853,0.798592,-0.445714,-0.381733,-0.13359,-1.139187,-0.314874,-0.031626,33.983864,1.345525,-76.827538,0,0
2095,2024 8 08,15:40:26.862,0.800328,-0.446395,-0.379528,-0.127028,-1.18161,-0.372175,-0.161372,26.880381,5.223108,-79.769844,0,0
2096,2024 8 08,15:40:26.870,0.800833,-0.446593,-0.378887,-0.125121,-1.193935,-0.388822,-0.199067,24.81662,6.349655,-80.624664,0,0
2097,2024 8 08,15:40:26.878,0.803064,-0.446237,-0.376521,-0.11903,-1.180068,-0.24096,0.034956,46.846138,0.022854,-95.006371,0,0
2098,2024 8 08,15:40:26.887,0.805178,-0.447211,-0.373311,-0.110832,-1.256259,-0.263164,-0.043336,32.223419,4.220587,-113.545776,0,0
2099,2024 8 08,15:40:26.895,0.807078,-0.448952,-0.369701,-0.101598,-1.404272,-0.319646,-0.122335,29.996807,5.163669,-120.011841,0,0
2100,2024 8 08,15:40:26.903,0.809893,-0.450243,-0.364686,-0.090905,-1.515729,-0.182876,-0.003888,39.452301,-5.928204,-144.912292,0,0
2101,2024 8 08,15:40:26.912,0.813726,-0.453501,-0.355902,-0.074099,-1.731639,-0.141097,0.087407,39.114895,-9.188887,-190.107101,0,0
2102,2024 8 08,15:40:26.920,0.814112,-0.453912,-0.35491,-0.072284,-1.75692,-0.144954,0.092681,38.344048,-8.856128,-195.2798,0,0
2103,2024 8 08,15:40:26.928,0.816275,-0.45769,-0.347402,-0.058968,-1.888067,-0.167078,0.023337,28.272764,-12.781505,-223.297379,0,0
2104,2024 8 08,15:40:26.937,0.81952,-0.461637,-0.336771,-0.042312,-2.105947,-0.101182,0.126681,49.431824,-31.215588,-251.232895,0,0
2105,2024 8 08,15:40:26.945,0.822795,-0.466719,-0.323314,-0.023173,-2.246183,-0.113098,0.168031,33.600204,-41.984604,-296.712982,0,0
2106,2024 8 08,15:40:26.953,0.825104,-0.474094,-0.307031,-0.001156,-2.427919,-0.233414,0.114804,17.153116,-51.944908,-346.791046,0,0
2107,2024 8 08,15:40:26.962,0.827023,-0.482604,-0.287103,0.021746,-2.364015,-0.428764,0.077586,9.895596,-85.08316,-375.587891,0,0
2108,2024 8 08,15:40:26.970,0.827419,-0.48442,-0.28281,0.02658,-2.34279,-0.471744,0.070611,8.62658,-92.764236,-380.984924,0,0
2109,2024 8 08,15:40:26.978,0.828247,-0.492088,-0.263909,0.044566,-2.085776,-0.775094,0.069541,-3.85143,-111.448875,-390.646149,0,1
2110,2024 8 08,15:40:26.987,0.827884,-0.50201,-0.240574,0.066379,-2.073785,-1.077432,0.030971,-17.121086,-109.799408,-390.643738,0,0
2111,2024 8 08,15:40:26.995,0.826514,-0.511723,-0.216663,0.08792,-2.101343,-1.142667,0.15937,-20.486912,-114.781654,-381.838409,0,0
2112,2024 8 08,15:40:27.003,0.824881,-0.520163,-0.192418,0.107858,-1.932903,-0.820695,0.241019,-6.825821,-127.640343,-364.389069,0,0
2113,2024 8 08,15:40:27.012,0.823538,-0.526928,-0.167039,0.126008,-1.543181,-0.308665,0.275589,6.496861,-147.440781,-350.561279,0,0
2114,2024 8 08,15:40:27.020,0.823185,-0.528708,-0.160089,0.130884,-1.429343,-0.163756,0.283524,10.014791,-153.071564,-346.990723,0,0
2115,2024 8 08,15:40:27.028,0.821888,-0.532627,-0.140836,0.144017,-1.139624,0.195121,0.315954,11.214272,-140.984726,-337.406158,0,0
2116,2024 8 08,15:40:27.037,0.819648,-0.536736,-0.117946,0.160786,-0.941117,0.573818,0.235183,12.333044,-124.352669,-332.933533,0,0
2117,2024 8 08,15:40:27.045,0.815917,-0.540736,-0.095389,0.179992,-0.220459,0.588979,0.72299,8.334985,-87.406425,-346.437622,0,0
2118,2024 8 08,15:40:27.053,0.811369,-0.542547,-0.077568,0.202287,0.747024,0.059474,1.025146,18.007277,-8.165108,-327.275452,0,0
2119,2024 8 08,15:40:27.062,0.808654,-0.540582,-0.068292,0.22122,0.068124,-0.259985,0.09365,61.055267,53.864101,-203.977661,0,0
2120,2024 8 08,15:40:27.070,0.807866,-0.539775,-0.065662,0.227187,-0.234183,-0.349894,-0.267307,76.567261,72.885956,-159.08551,0,0
2121,2024 8 08,15:40:27.078,0.80894,-0.535121,-0.067965,0.233651,-0.78785,0.234346,0.041386,56.344604,101.405678,-55.346146,0,0
2122,2024 8 08,15:40:27.087,0.810889,-0.530198,-0.076532,0.235434,-1.211108,0.508528,0.293745,34.475639,103.998718,58.268318,0,0
2123,2024 8 08,15:40:27.095,0.8141,-0.526655,-0.086442,0.228708,-1.328324,0.418812,0.33985,17.773867,38.544609,147.131256,0,0
2124,2024 8 08,15:40:27.103,0.818652,-0.524729,-0.093009,0.213654,-1.017295,0.343965,0.382209,12.042908,-52.933952,200.275162,0,0
2125,2024 8 08,15:40:27.112,0.823682,-0.523826,-0.096344,0.193959,-0.506272,0.317962,0.360677,10.104231,-100.0811,219.813416,0,0
2126,2024 8 08,15:40:27.120,0.828228,-0.523026,-0.099545,0.174059,-0.144053,0.26244,0.318037,5.539969,-88.36718,218.17482,0,0
2127,2024 8 08,15:40:27.128,0.829913,-0.522724,-0.100769,0.166565,-0.017056,0.239442,0.301317,3.646944,-80.979317,216.592804,0,0
2128,2024 8 08,15:40:27.137,0.8323,-0.521747,-0.105294,0.154394,-0.015976,0.189904,0.279334,2.398635,-43.967018,208.627563,0,0
2129,2024 8 08,15:40:27.145,0.834709,-0.520149,-0.113007,0.14055,-0.190927,0.133775,0.248221,0.200885,-9.325909,204.084839,0,0
2130,2024 8 08,15:40:27.153,0.836936,-0.51793,-0.122689,0.126539,-0.423751,0.164054,0.238858,1.584363,11.472939,206.529114,0,0
2131,2024 8 08,15:40:27.162,0.838737,-0.515608,-0.133594,0.112076,-0.613272,0.12232,0.19781,-2.89102,18.699123,213.849167,0,0
2132,2024 8 08,15:40:27.170,0.840222,-0.513217,-0.144868,0.096694,-0.648339,0.075206,0.162325,-7.290644,15.693745,223.369156,0,0
2133,2024 8 08,15:40:27.178,0.840824,-0.512216,-0.149579,0.090232,-0.653607,0.056064,0.148238,-9.056274,13.904753,227.436371,0,0
2134,2024 8 08,15:40:27.187,0.841125,-0.511717,-0.151928,0.087009,-0.656235,0.046515,0.141211,-9.936998,13.012375,229.465164,0,0
2135,2024 8 08,15:40:27.195,0.841913,-0.509416,-0.163418,0.070426,-0.544758,0.027411,0.091771,-14.456161,14.958141,236.371689,0,0
2136,2024 8 08,15:40:27.203,0.841883,-0.507234,-0.17615,0.053835,-0.504269,-0.026401,0.065158,-21.066418,31.778814,240.594666,0,0
2137,2024 8 08,15:40:27.212,0.84084,-0.505189,-0.190546,0.037886,-0.622276,-0.069652,0.062193,-29.403009,54.647141,243.132629,0,0
2138,2024 8 08,15:40:27.220,0.838797,-0.503285,-0.206362,0.022329,-0.799507,-0.115186,0.056582,-35.42944,70.28083,246.451218,0,0
2139,2024 8 08,15:40:27.228,0.836024,-0.501346,-0.222758,0.006601,-0.958554,-0.158164,0.044563,-39.539207,73.160576,251.32225,0,0
2140,2024 8 08,15:40:27.237,0.835793,-0.501186,-0.224118,0.005296,-0.971753,-0.16173,0.043566,-39.88028,73.399567,251.726501,0,0
2141,2024 8 08,15:40:27.245,0.832717,-0.499292,-0.239041,-0.009647,-1.062126,-0.228142,0.028257,-44.259556,69.401871,257.035492,0,0
2142,2024 8 08,15:40:27.253,0.828999,-0.496926,-0.255018,-0.026569,-1.107065,-0.300493,0.034743,-43.930099,63.664234,264.093964,0,0
2143,2024 8 08,15:40:27.262,0.824898,-0.493959,-0.271067,-0.044338,-1.12178,-0.349377,0.031719,-41.03635,61.123329,272.87204,0,0
2144,2024 8 08,15:40:27.270,0.820378,-0.49026,-0.287366,-0.062627,-1.187551,-0.399644,0.036742,-37.890045,61.621578,281.593781,0,0
2145,2024 8 08,15:40:27.278,0.815491,-0.485757,-0.303769,-0.08122,-1.261632,-0.443917,0.04405,-32.807045,60.97287,286.963715,0,0
2146,2024 8 08,15:40:27.287,0.814734,-0.48506,-0.306311,-0.084101,-1.273111,-0.450777,0.045183,-32.019424,60.872353,287.795807,0,0
2147,2024 8 08,15:40:27.295,0.810323,-0.480367,-0.320156,-0.100062,-1.293862,-0.472767,0.050584,-25.974184,57.898376,287.733337,0,0
2148,2024 8 08,15:40:27.303,0.805097,-0.474433,-0.335677,-0.117844,-1.305442,-0.490108,0.038868,-19.760807,59.600311,286.3862,0,0
2149,2024 8 08,15:40:27.312,0.799374,-0.467854,-0.351514,-0.135496,-1.317379,-0.510158,0.02847,-15.668062,63.289818,284.619751,0,0
2150,2024 8 08,15:40:27.320,0.793132,-0.460716,-0.367648,-0.152663,-1.364512,-0.509474,0.030669,-11.242826,70.193138,284.368347,0,0
2151,2024 8 08,15:40:27.328,0.786229,-0.453235,-0.384091,-0.169313,-1.437939,-0.534118,0.022353,-8.707067,78.245979,283.792053,0,0
2152,2024 8 08,15:40:27.337,0.784735,-0.451616,-0.38765,-0.172917,-1.453832,-0.539452,0.020553,-8.158223,79.988945,283.667328,0,0
2153,2024 8 08,15:40:27.345,0.778457,-0.44519,-0.401312,-0.186032,-1.521807,-0.580479,0.050293,-6.266508,84.29026,280.89447,0,0
2154,2024 8 08,15:40:27.353,0.770779,-0.437576,-0.417062,-0.200647,-1.56757,-0.650434,0.069786,-3.385581,88.426979,274.634583,0,0
2155,2024 8 08,15:40:27.362,0.76249,-0.429712,-0.433155,-0.214651,-1.572555,-0.762727,0.102164,-0.093188,95.205925,264.293762,0,0
2156,2024 8 08,15:40:27.370,0.753708,-0.42199,-0.449366,-0.227264,-1.59537,-0.894928,0.138009,3.702577,106.07975,251.487045,0,0
2157,2024 8 08,15:40:27.378,0.744458,-0.414548,-0.465679,-0.238336,-1.621929,-1.025355,0.158028,7.535299,117.399391,239.04097,0,0
2158,2024 8 08,15:40:27.387,0.741964,-0.412542,-0.470076,-0.241321,-1.629089,-1.060517,0.163424,8.56856,120.451042,235.685638,0,0
2159,2024 8 08,15:40:27.395,0.734051,-0.406971,-0.483176,-0.248852,-1.67066,-1.154308,0.159715,8.638552,129.197479,228.330475,0,0
2160,2024 8 08,15:40:27.403,0.724266,-0.400803,-0.498408,-0.257206,-1.690436,-1.262831,0.111613,4.452358,132.726761,221.335892,0,0
2161,2024 8 08,15:40:27.412,0.713818,-0.394904,-0.513544,-0.265561,-1.609978,-1.36397,0.025154,-2.719637,131.215698,211.768814,0,0
2162,2024 8 08,15:40:27.420,0.703106,-0.389916,-0.52776,-0.273517,-1.434233,-1.482113,-0.075802,-12.606273,129.33287,196.331741,0,0
2163,2024 8 08,15:40:27.428,0.692457,-0.386266,-0.54069,-0.280554,-1.178915,-1.572089,-0.281448,-21.681618,127.256165,172.831131,0,0
2164,2024 8 08,15:40:27.437,0.689092,-0.385113,-0.544776,-0.282777,-1.098238,-1.60052,-0.346429,-24.549294,126.59996,165.405289,0,0
2165,2024 8 08,15:40:27.445,0.681324,-0.383999,-0.553297,-0.286527,-0.852856,-1.826741,-0.521011,-27.509594,127.24202,134.331711,0,0
2166,2024 8 08,15:40:27.453,0.668539,-0.385512,-0.566183,-0.289559,-0.846603,-2.684757,-0.634894,-41.121246,154.828079,81.066559,0,0
2167,2024 8 08,15:40:27.462,0.657992,-0.389947,-0.57604,-0.288328,-1.08821,-3.181873,-0.463989,-39.65107,169.407501,46.763882,0,0
2168,2024 8 08,15:40:27.470,0.650385,-0.394246,-0.583056,-0.285649,-1.060099,-3.414058,-0.27535,-17.514574,117.054413,17.843611,0,0
2169,2024 8 08,15:40:27.478,0.648854,-0.3954,-0.5862,-0.281088,-0.753728,-2.975927,-0.111544,37.894157,43.167839,-14.266638,0,0
2170,2024 8 08,15:40:27.487,0.648725,-0.395528,-0.586676,-0.280221,-0.692389,-2.880441,-0.082633,48.669113,29.537685,-20.148842,0,0
2171,2024 8 08,15:40:27.495,0.651542,-0.392574,-0.589024,-0.272781,-2.980879,-3.369807,-1.037051,142.354645,46.26696,-21.99176,0,0
2172,2024 8 08,15:40:27.503,0.661001,-0.392103,-0.584592,-0.259835,-2.34909,-1.782893,0.466628,90.955353,-73.748932,-162.401031,0,0
2173,2024 8 08,15:40:27.512,0.676253,-0.395333,-0.56882,-0.25037,-1.460437,-0.798157,0.235295,72.171967,-215.883484,-204.920471,1,0
2174,2024 8 08,15:40:27.520,0.69721,-0.391414,-0.548304,-0.244556,-1.578052,0.50901,0.314869,82.855263,-312.594482,-164.161255,0,0
2175,2024 8 08,15:40:27.528,0.713126,-0.391596,-0.525589,-0.248251,-0.949772,0.044926,-0.496239,-24.310188,-284.278656,-119.010124,0,0
2176,2024 8 08,15:40:27.537,0.723417,-0.395891,-0.506958,-0.250556,-0.695127,-0.044079,-0.898948,-71.660141,-191.849945,-124.057861,0,0
2177,2024 8 08,15:40:27.545,0.725875,-0.39712,-0.502344,-0.251043,-0.649012,-0.042314,-0.9812,-80.851738,-166.366974,-127.231728,0,0
2178,2024 8 08,15:40:27.553,0.729869,-0.404628,-0.490338,-0.251103,-0.690346,-0.354914,-0.86351,-104.59819,-124.984589,-143.276337,0,0
2179,2024 8 08,15:40:27.562,0.732849,-0.414429,-0.478458,-0.249333,-0.877904,-0.721397,-0.483101,-88.974182,-75.085152,-134.708832,0,0
2180,2024 8 08,15:40:27.570,0.735825,-0.421242,-0.469621,-0.24599,-1.008998,-0.35874,0.144154,-43.374599,-51.77581,-112.096771,0,0
2181,2024 8 08,15:40:27.578,0.73766,-0.428226,-0.461719,-0.243397,-1.105257,-0.08862,0.434979,-67.861916,-48.87772,-106.616264,0,0
2182,2024 8 08,15:40:27.587,0.738436,-0.43824,-0.451467,-0.242376,-1.046556,-0.176824,0.227534,-114.102692,-67.50782,-123.01889,0,0
2183,2024 8 08,15:40:27.595,0.738636,-0.441497,-0.44816,-0.242124,-1.021187,-0.219644,0.142191,-129.007385,-74.203369,-129.021042,0,0
2184,2024 8 08,15:40:27.603,0.739493,-0.449589,-0.438666,-0.241896,-0.965744,-0.363497,-0.161145,-119.479607,-83.316498,-124.867058,0,0
2185,2024 8 08,15:40:27.612,0.742167,-0.455999,-0.428154,-0.240529,-0.963421,-0.275864,-0.01311,-56.92448,-79.873154,-113.571938,0,0
2186,2024 8 08,15:40:27.620,0.745682,-0.460492,-0.418473,-0.238143,-0.995311,-0.207311,0.060754,-34.56192,-78.163925,-109.117676,0,0
2187,2024 8 08,15:40:27.628,0.749704,-0.465568,-0.407426,-0.234731,-0.952703,-0.272481,-0.037294,-36.686069,-85.22226,-133.183105,0,0
2188,2024 8 08,15:40:27.637,0.753577,-0.47139,-0.395904,-0.230344,-0.738702,-0.593554,-0.626259,-40.182247,-77.2267,-139.74263,0,0
2189,2024 8 08,15:40:27.645,0.754956,-0.473513,-0.391755,-0.228724,-0.653233,-0.721656,-0.86307,-41.369637,-73.472084,-140.921234,0,0
2190,2024 8 08,15:40:27.653,0.757715,-0.475313,-0.386171,-0.225338,-0.662097,-0.343289,-0.400992,-3.48484,-48.436081,-102.196159,0,0
2191,2024 8 08,15:40:27.662,0.75938,-0.476521,-0.382857,-0.222868,-0.855636,-0.372092,-0.158229,-4.1724,-21.709957,-51.869602,0,0
2192,2024 8 08,15:40:27.670,0.760656,-0.477418,-0.380649,-0.220381,-0.913337,-0.277489,-0.083245,6.370914,-8.591778,-44.515026,0,0
2193,2024 8 08,15:40:27.678,0.761668,-0.4783,-0.379057,-0.217708,-0.928487,-0.278853,-0.081017,5.467673,-1.058354,-40.81966,0,0
2194,2024 8 08,15:40:27.687,0.762466,-0.478905,-0.378161,-0.215135,-0.926093,-0.274092,-0.081655,8.599162,4.572808,-32.007851,0,0
2195,2024 8 08,15:40:27.695,0.762774,-0.479129,-0.37784,-0.214112,-0.924232,-0.27065,-0.08158,10.229274,6.743401,-28.19772,0,0
2196,2024 8 08,15:40:27.703,0.763078,-0.47921,-0.377852,-0.212829,-0.924219,-0.316643,-0.07471,9.635275,7.781066,-19.085606,0,0
2197,2024 8 08,15:40:27.712,0.763463,-0.479001,-0.378158,-0.211368,-0.949992,-0.313,-0.032206,12.449297,8.169305,-14.195028,0,0
2198,2024 8 08,15:40:27.720,0.763714,-0.478842,-0.378375,-0.210437,-0.96871,-0.305214,-0.002065,14.579477,8.361103,-11.60631,0,0
2199,2024 8 08,15:40:27.728,0.764089,-0.478606,-0.378548,-0.209297,-0.936686,-0.340631,-0.047459,8.420516,3.212878,-10.100083,0,0
2200,2024 8 08,15:40:27.737,0.764558,-0.478251,-0.378611,-0.208279,-0.964387,-0.311578,-0.10303,10.368517,1.936953,-10.071795,0,0
2201,2024 8 08,15:40:27.745,0.764994,-0.477909,-0.378553,-0.20757,-0.98483,-0.247413,-0.011029,7.297379,-0.428935,-6.644133,0,0
2202,2024 8 08,15:40:27.753,0.765015,-0.477892,-0.378551,-0.207536,-0.985805,-0.244352,-0.00664,7.150871,-0.541799,-6.480617,0,0
2203,2024 8 08,15:40:27.762,0.765482,-0.477521,-0.378379,-0.20698,-0.960149,-0.298302,-0.038853,9.510349,-3.988701,-7.936766,0,0
2204,2024 8 08,15:40:27.770,0.766114,-0.477032,-0.378012,-0.20644,-0.978682,-0.26855,-0.015031,9.798417,-5.13649,-7.823596,0,0
2205,2024 8 08,15:40:27.778,0.766844,-0.476468,-0.377574,-0.205831,-0.94787,-0.313719,-0.062914,11.029392,-6.936353,-9.512457,0,0
2206,2024 8 08,15:40:27.787,0.767659,-0.475983,-0.376967,-0.205026,-0.904129,-0.272875,-0.011103,11.747797,-6.739373,-12.384465,0,0
2207,2024 8 08,15:40:27.795,0.768375,-0.475625,-0.376412,-0.204189,-0.942248,-0.301515,-0.024433,9.857065,-5.171511,-12.869083,0,0
2208,2024 8 08,15:40:27.803,0.768465,-0.47558,-0.376343,-0.204085,-0.947016,-0.305097,-0.0261,9.620577,-4.975406,-12.929699,0,0
2209,2024 8 08,15:40:27.812,0.768935,-0.475534,-0.375869,-0.203295,-0.951818,-0.337956,-0.027158,7.253988,-3.288678,-14.18292,0,0
2210,2024 8 08,15:40:27.820,0.769455,-0.475536,-0.375307,-0.202357,-0.921406,-0.280577,-0.035095,6.237936,-2.987604,-14.573335,0,0
2211,2024 8 08,15:40:27.828,0.769851,-0.475672,-0.374769,-0.201526,-0.986084,-0.295288,-0.041614,3.853175,-3.040708,-14.231324,0,0
2212,2024 8 08,15:40:27.837,0.77025,-0.47579,-0.374243,-0.200702,-0.947605,-0.310158,-0.025964,4.195782,-2.850245,-13.574694,0,0
2213,2024 8 08,15:40:27.845,0.770661,-0.475902,-0.373671,-0.199921,-1.000142,-0.313631,-0.051108,4.109921,-3.603704,-13.456133,0,0
2214,2024 8 08,15:40:27.853,0.77074,-0.475924,-0.373561,-0.199772,-1.010167,-0.314294,-0.055906,4.093537,-3.747481,-13.433509,0,0
2215,2024 8 08,15:40:27.862,0.771114,-0.475938,-0.37307,-0.19921,-0.947252,-0.336326,-0.055717,3.850135,-5.072962,-12.084336,0,0
2216,2024 8 08,15:40:27.870,0.771582,-0.475916,-0.372487,-0.198539,-0.91351,-0.333755,-0.012794,4.320668,-5.494409,-12.511744,0,0
2217,2024 8 08,15:40:27.878,0.772071,-0.475863,-0.371918,-0.197832,-0.930077,-0.324566,-0.043087,6.767402,-4.4156,-12.090331,0,0
2218,2024 8 08,15:40:27.887,0.772613,-0.475704,-0.371383,-0.197103,-0.964625,-0.314678,-0.071523,7.236135,-4.214399,-12.086257,0,0
2219,2024 8 08,15:40:27.895,0.773283,-0.222964,-0.56327,-0.187205,-0.977624,-0.30207,-0.046456,8.766444,-5.676443,-15.288382,0,0
2220,2024 8 08,15:40:27.903,0.773449,-0.21601,-0.56169,-0.199048,-0.980839,-0.298951,-0.040255,9.145008,-6.038118,-16.080513,0,0
2221,2024 8 08,15:40:27.912,0.774004,-0.475415,-0.369885,-0.195148,-0.979875,-0.333917,-0.06406,7.945498,-5.773085,-17.713884,0,0
2222,2024 8 08,15:40:27.920,0.774796,-0.475254,-0.369061,-0.193953,-0.950272,-0.340338,-0.065407,9.793812,-5.879764,-18.941456,0,0
2223,2024 8 08,15:40:27.928,0.775632,-0.475111,-0.368204,-0.192583,-0.954084,-0.318666,-0.072417,9.904727,-5.165992,-20.062897,0,0
2224,2024 8 08,15:40:27.937,0.776596,-0.474858,-0.367335,-0.190975,-0.953771,-0.328481,-0.065743,13.652119,-4.879081,-23.402735,0,0
2225,2024 8 08,15:40:27.945,0.777624,-0.474619,-0.366404,-0.189163,-0.941373,-0.347727,-0.05561,14.349734,-4.197911,-25.05106,0,0
2226,2024 8 08,15:40:27.953,0.778716,-0.474304,-0.365515,-0.187168,-0.988084,-0.357154,-0.050914,16.501078,-3.319578,-25.9203,0,0
2227,2024 8 08,15:40:27.962,0.779049,-0.474208,-0.365245,-0.186561,-1.00229,-0.360021,-0.049486,17.155342,-3.05246,-26.18465,0,0
2228,2024 8 08,15:40:27.970,0.780029,-0.473891,-0.364437,-0.184838,-0.964683,-0.356612,-0.027859,17.938353,-4.706794,-28.294147,0,0
2229,2024 8 08,15:40:27.978,0.7812,-0.473414,-0.363529,-0.182885,-0.928132,-0.384998,-0.052075,19.29319,-5.520723,-24.996035,0,0
2230,2024 8 08,15:40:27.987,0.782693,-0.472573,-0.362634,-0.180435,-0.974553,-0.353741,-0.070661,23.94746,-4.084688,-29.632668,0,0
2231,2024 8 08,15:40:27.995,0.784831,-0.47161,-0.361127,-0.176662,-1.004397,-0.360187,-0.04998,25.543827,-4.043705,-36.42231,0,0
2232,2024 8 08,15:40:28.003,0.786552,-0.470821,-0.359943,-0.173498,-1.033714,-0.325151,-0.071301,29.808681,-2.917796,-37.771103,0,0
2233,2024 8 08,15:40:28.012,0.78683,-0.470692,-0.359754,-0.172988,-1.038857,-0.318201,-0.07596,30.603043,-2.695778,-37.89703,0,0
2234,2024 8 08,15:40:28.020,0.788452,-0.469713,-0.358869,-0.170067,-1.069305,-0.35051,-0.122692,32.228245,-3.133534,-38.747566,0,0
2235,2024 8 08,15:40:28.028,0.790779,-0.467795,-0.357967,-0.166407,-1.073357,-0.295861,-0.025555,51.6217,-1.562084,-42.061592,0,0
2236,2024 8 08,15:40:28.037,0.793185,-0.466257,-0.35665,-0.162039,-1.10959,-0.389497,-0.079817,40.918152,-2.690688,-50.070084,0,0
2237,2024 8 08,15:40:28.045,0.795617,-0.464703,-0.355259,-0.157573,-1.071397,-0.380353,-0.100535,49.031651,-2.635511,-50.391689,0,0
2238,2024 8 08,15:40:28.053,0.798264,-0.463154,-0.353611,-0.152356,-1.114542,-0.349145,-0.222959,42.412601,-1.91443,-58.079758,0,0
2239,2024 8 08,15:40:28.062,0.798879,-0.462798,-0.353224,-0.151132,-1.127596,-0.341854,-0.254813,40.277771,-1.734279,-60.136086,0,0
2240,2024 8 08,15:40:28.070,0.800899,-0.461911,-0.351593,-0.146876,-1.107632,-0.330742,-0.018348,45.770981,-2.945073,-66.183945,0,0
2241,2024 8 08,15:40:28.078,0.803322,-0.461236,-0.349243,-0.141245,-1.126512,-0.314351,0.040139,42.120274,-5.908978,-73.64949,0,0
2242,2024 8 08,15:40:28.087,0.805782,-0.460971,-0.346404,-0.134931,-1.205973,-0.326279,0.008643,36.245461,-7.229831,-80.330559,0,0
2243,2024 8 08,15:40:28.095,0.808601,-0.460559,-0.343031,-0.127887,-1.29453,-0.302237,0.034305,44.017281,-8.827122,-94.337379,0,0
2244,2024 8 08,15:40:28.103,0.811482,-0.460696,-0.338837,-0.120055,-1.282946,-0.338526,0.029322,41.349701,-12.240959,-108.910637,0,0
2245,2024 8 08,15:40:28.112,0.812313,-0.460761,-0.337595,-0.117765,-1.275277,-0.351861,0.026139,40.041061,-13.300985,-113.092987,0,0
2246,2024 8 08,15:40:28.120,0.814683,-0.46106,-0.333727,-0.110954,-1.315374,-0.331063,-0.102446,42.750164,-14.935135,-122.615707,0,0
2247,2024 8 08,15:40:28.128,0.817855,-0.46165,-0.328032,-0.10165,-1.365737,-0.313013,-0.009906,42.116497,-19.106718,-138.688004,0,0
2248,2024 8 08,15:40:28.137,0.821051,-0.463172,-0.320988,-0.090728,-1.544158,-0.260233,-0.00269,36.422211,-22.427073,-163.319397,0,0
2249,2024 8 08,15:40:28.145,0.824038,-0.465815,-0.312613,-0.078333,-1.554307,-0.28407,0.032789,29.117481,-26.166269,-188.737274,0,0
2250,2024 8 08,15:40:28.153,0.826884,-0.46959,-0.302492,-0.063878,-1.725474,-0.244292,0.066153,20.221207,-30.408655,-222.53624,0,0
2251,2024 8 08,15:40:28.162,0.827843,-0.470921,-0.298979,-0.058881,-1.7932,-0.226916,0.077,17.130341,-31.868324,-234.428955,0,0
2252,2024 8 08,15:40:28.170,0.829648,-0.474517,-0.290128,-0.046979,-1.847453,-0.260659,0.046055,18.572039,-36.935497,-248.996246,0,0
2253,2024 8 08,15:40:28.178,0.831864,-0.479378,-0.277499,-0.030742,-2.00173,-0.27291,-0.030918,13.884371,-45.038578,-272.878998,0,0
2254,2024 8 08,15:40:28.187,0.833766,-0.485509,-0.261915,-0.012011,-2.121877,-0.395142,-0.024758,4.459074,-58.342972,-310.090424,0,0
2255,2024 8 08,15:40:28.195,0.835095,-0.492716,-0.243466,0.008419,-2.072749,-0.612575,-0.03236,-3.018789,-76.225189,-340.837524,0,0
2256,2024 8 08,15:40:28.203,0.835943,-0.500278,-0.222382,0.029242,-1.98175,-1.010753,-0.079673,-7.261995,-98.279343,-355.375,0,0
2257,2024 8 08,15:40:28.212,0.836244,-0.503186,-0.214178,0.037226,-1.945901,-1.173032,-0.099857,-8.720768,-106.932259,-360.07196,0,1
2258,2024 8 08,15:40:28.220,0.836174,-0.5086,-0.197648,0.051865,-1.922737,-1.24953,-0.044174,-10.727064,-110.871651,-357.529327,0,0
2259,2024 8 08,15:40:28.228,0.83546,-0.515167,-0.176607,0.069679,-1.902183,-1.255297,0.04689,-12.084472,-116.158295,-348.027924,0,0
2260,2024 8 08,15:40:28.237,0.834742,-0.520853,-0.153774,0.087248,-1.764524,-0.913147,0.111485,0.948891,-130.884735,-333.925629,0,0
2261,2024 8 08,15:40:28.245,0.834009,-0.52547,-0.129781,0.103717,-1.442076,-0.520584,0.2187,8.518036,-141.669952,-323.134064,0,0
2262,2024 8 08,15:40:28.253,0.832735,-0.529207,-0.106327,0.120261,-1.120238,-0.199384,0.30978,11.493584,-128.09845,-318.37146,0,0
2263,2024 8 08,15:40:28.262,0.831877,-0.531501,-0.091545,0.130757,-0.919,-0.00291,0.365189,13.046245,-117.233383,-315.881439,0,0
2264,2024 8 08,15:40:28.270,0.831868,-0.531523,-0.091403,0.130857,-0.91707,-0.001025,0.36572,13.061143,-117.129128,-315.857544,0,0
2265,2024 8 08,15:40:28.278,0.829464,-0.53368,-0.070963,0.148691,-0.642225,0.305707,0.283669,20.212589,-84.5364,-315.212189,0,0
2266,2024 8 08,15:40:28.287,0.827134,-0.533772,-0.051993,0.167899,0.01803,0.344018,0.669438,34.985542,-56.297199,-311.087189,0,0
2267,2024 8 08,15:40:28.295,0.823893,-0.532696,-0.037836,0.189611,1.017669,0.483522,1.060919,37.420574,26.395977,-289.986633,0,0
2268,2024 8 08,15:40:28.303,0.821522,-0.52928,-0.032162,0.209491,-0.083745,-0.520587,-0.475015,38.368324,91.249023,-200.313782,0,0
2269,2024 8 08,15:40:28.312,0.821718,-0.523868,-0.035545,0.221485,-0.879539,0.267969,0.163037,48.725807,127.620125,-58.530899,0,0
2270,2024 8 08,15:40:28.320,0.821736,-0.523364,-0.03586,0.222601,-0.953558,0.341315,0.222384,49.689194,131.003128,-45.343208,0,0
2271,2024 8 08,15:40:28.328,0.822649,-0.520599,-0.045238,0.223976,-1.260643,0.429896,0.321097,0.773815,104.003143,63.542603,0,0
2272,2024 8 08,15:40:28.337,0.824487,-0.51994,-0.055137,0.216374,-1.351099,0.256263,0.222453,-13.840691,28.725456,149.048096,0,0
2273,2024 8 08,15:40:28.345,0.826976,-0.521235,-0.061954,0.201335,-0.887941,0.189398,0.227654,-26.038559,-49.703827,192.508194,0,0
2274,2024 8 08,15:40:28.353,0.829465,-0.523353,-0.066573,0.183259,-0.319273,0.220413,0.19082,-29.464231,-75.178116,203.961411,0,0
2275,2024 8 08,15:40:28.362,0.831275,-0.525359,-0.07238,0.166325,-0.079767,0.153435,0.157498,-34.366344,-42.80302,197.967133,0,0
2276,2024 8 08,15:40:28.370,0.832369,-0.526658,-0.081064,0.152144,-0.140348,0.048785,0.15567,-33.056465,4.211346,188.99472,0,0
2277,2024 8 08,15:40:28.378,0.83256,-0.526884,-0.082576,0.149674,-0.150899,0.030559,0.155351,-32.828335,12.399525,187.432053,0,0
2278,2024 8 08,15:40:28.387,0.83325,-0.526995,-0.091886,0.139565,-0.328071,-0.010046,0.138437,-24.848442,32.824425,183.517715,0,0
2279,2024 8 08,15:40:28.395,0.834191,-0.526174,-0.103369,0.128467,-0.529422,-0.00092,0.104173,-15.649073,45.36681,184.787689,0,0
2280,2024 8 08,15:40:28.403,0.835221,-0.524722,-0.115495,0.116783,-0.642512,-0.029641,0.049749,-10.325274,44.875034,191.595154,0,0
2281,2024 8 08,15:40:28.412,0.836361,-0.522691,-0.127819,0.104123,-0.649755,-0.041084,-0.006862,-6.965289,41.700905,202.732498,0,0
2282,2024 8 08,15:40:28.420,0.837347,-0.52034,-0.140667,0.090389,-0.615925,-0.074617,-0.054607,-7.286232,42.016796,217.352158,0,0
2283,2024 8 08,15:40:28.428,0.837577,-0.519793,-0.14366,0.087189,-0.608043,-0.08243,-0.065731,-7.361008,42.090393,220.758331,0,0
2284,2024 8 08,15:40:28.437,0.838025,-0.517559,-0.155221,0.075143,-0.628365,-0.098897,-0.099033,-9.929875,50.443764,233.744293,0,0
2285,2024 8 08,15:40:28.445,0.83801,-0.51478,-0.170019,0.060399,-0.742956,-0.121396,-0.09802,-14.130768,61.362759,248.841461,0,0
2286,2024 8 08,15:40:28.453,0.837413,-0.511723,-0.186164,0.044454,-0.857773,-0.171382,-0.115203,-17.534595,64.417267,259.343872,0,0
2287,2024 8 08,15:40:28.462,0.836285,-0.508407,-0.202703,0.02783,-0.929702,-0.228416,-0.130717,-19.986023,64.619118,265.412018,0,0
2288,2024 8 08,15:40:28.470,0.83471,-0.504789,-0.219128,0.010796,-0.953729,-0.286968,-0.142656,-19.444307,61.58577,268.000275,0,0
2289,2024 8 08,15:40:28.478,0.834263,-0.503761,-0.223793,0.005959,-0.960552,-0.303596,-0.146046,-19.290468,60.724342,268.735291,0,0
2290,2024 8 08,15:40:28.487,0.832618,-0.500546,-0.236538,-0.007715,-0.96016,-0.348621,-0.159292,-18.990248,59.281437,269.460449,0,0
2291,2024 8 08,15:40:28.495,0.830246,-0.49645,-0.251728,-0.023883,-0.981595,-0.385679,-0.151809,-19.026608,62.258778,271.108795,0,0
2292,2024 8 08,15:40:28.503,0.82728,-0.491832,-0.267727,-0.040878,-1.042811,-1.07449,0.219758,-18.288227,63.3811,274.03006,0,0
2293,2024 8 08,15:40:28.512,0.823877,-0.486736,-0.283767,-0.058199,-1.077218,-0.421765,-0.122173,-16.119728,61.96236,274.660065,0,0
2294,2024 8 08,15:40:28.520,0.820006,-0.481242,-0.299761,-0.075544,-1.099697,-0.433262,-0.113953,-14.729353,63.177563,274.740356,0,0
2295,2024 8 08,15:40:28.528,0.81809,-0.478524,-0.307673,-0.084125,-1.110818,-0.43895,-0.109887,-14.041553,63.778709,274.78006,0,0
2296,2024 8 08,15:40:28.537,0.814138,-0.473327,-0.321405,-0.098788,-1.13983,-0.4336,-0.110281,-11.762964,66.263702,272.763641,0,0
2297,2024 8 08,15:40:28.545,0.80907,-0.467101,-0.337413,-0.115246,-1.185204,-0.465665,-0.11076,-11.366985,73.366791,270.681244,0,0
2298,2024 8 08,15:40:28.553,0.803403,-0.460528,-0.353745,-0.131214,-1.246767,-0.510386,-0.090372,-8.493921,80.208717,269.640106,0,0
2299,2024 8 08,15:40:28.562,0.79722,-0.453523,-0.370323,-0.14664,-1.297997,-0.594427,-0.073173,-3.71184,86.986015,268.838501,0,0
2300,2024 8 08,15:40:28.570,0.790638,-0.445936,-0.387139,-0.16134,-1.352175,-0.690108,-0.050211,3.762149,93.580605,266.93573,0,0
2301,2024 8 08,15:40:28.578,0.789305,-0.444395,-0.390525,-0.164276,-1.363204,-0.709519,-0.045401,5.336709,94.900581,266.520721,0,0
2302,2024 8 08,15:40:28.587,0.783719,-0.437601,-0.404296,-0.175284,-1.399026,-0.777898,-0.03134,13.760628,99.846359,264.259003,0,0
2303,2024 8 08,15:40:28.595,0.776817,-0.428679,-0.421164,-0.187779,-1.417006,-0.840691,-0.01399,26.164024,105.901833,259.531586,0,0
2304,2024 8 08,15:40:28.603,0.769599,-0.419039,-0.438485,-0.199223,-1.444747,-0.889133,6.4e-05,36.62064,114.101501,251.630234,0,0
2305,2024 8 08,15:40:28.612,0.762041,-0.409186,-0.455955,-0.209267,-1.507219,-0.936129,0.002643,43.267326,123.309059,241.05954,0,0
2306,2024 8 08,15:40:28.620,0.7541,-0.399487,-0.473342,-0.217982,-1.537965,-0.988961,-0.018264,45.992359,131.009354,229.23526,0,0
2307,2024 8 08,15:40:28.628,0.751989,-0.396931,-0.477931,-0.220238,-1.544651,-1.003143,-0.024644,46.578388,132.980103,226.075806,0,0
2308,2024 8 08,15:40:28.637,0.745485,-0.389892,-0.491032,-0.225845,-1.51744,-1.068263,-0.063025,45.275658,137.572754,216.841187,0,0
2309,2024 8 08,15:40:28.645,0.737063,-0.381707,-0.506983,-0.23204,-1.484986,-1.171816,-0.134292,40.916862,141.90448,203.058533,0,0
2310,2024 8 08,15:40:28.653,0.728179,-0.374166,-0.522705,-0.237413,-1.408779,-1.279263,-0.248204,36.415581,143.476303,185.142365,0,0
2311,2024 8 08,15:40:28.662,0.719369,-0.367622,-0.537384,-0.241708,-1.290451,-1.368031,-0.413604,31.250904,140.97377,164.297104,0,0
2312,2024 8 08,15:40:28.670,0.710826,-0.362231,-0.550795,-0.244952,-1.166865,-1.42253,-0.660435,24.972675,137.20697,143.004776,0,0
2313,2024 8 08,15:40:28.678,0.70812,-0.360565,-0.555007,-0.24594,-1.127564,-1.438357,-0.742501,22.927811,135.974945,136.228882,0,0
2314,2024 8 08,15:40:28.687,0.702254,-0.35753,-0.563595,-0.247603,-1.018798,-1.504041,-0.963388,18.832367,128.212936,121.533676,0,0
2315,2024 8 08,15:40:28.695,0.695205,-0.354902,-0.573083,-0.249464,-1.124236,-1.855205,-1.145411,4.405636,119.548576,102.550774,0,0
2316,2024 8 08,15:40:28.703,0.688441,-0.353657,-0.581062,-0.251547,-1.370311,-2.271142,-1.180986,-12.230192,97.378983,84.528282,0,0
2317,2024 8 08,15:40:28.712,0.684629,-0.352577,-0.584953,-0.254499,-1.28571,-2.560691,-1.052722,-15.038984,29.480568,64.661057,0,0
2318,2024 8 08,15:40:28.720,0.685149,-0.350984,-0.583821,-0.257907,-0.793646,-2.578631,-0.798623,-11.349625,-40.55014,37.638901,0,0
2319,2024 8 08,15:40:28.728,0.685553,-0.350375,-0.583164,-0.259168,-0.594653,-2.571257,-0.700235,-9.762201,-65.833694,27.409569,0,0
2320,2024 8 08,15:40:28.737,0.688338,-0.349857,-0.579579,-0.260506,-0.352966,-2.276863,-0.541336,-6.194483,-71.615524,0.487177,0,0
2321,2024 8 08,15:40:28.745,0.691773,-0.35048,-0.575253,-0.260148,-3.578225,-1.150269,-0.947512,3.396081,-49.248989,-28.407511,0,0
2322,2024 8 08,15:40:28.753,0.697546,-0.352853,-0.569236,-0.254614,-2.094285,-0.363438,0.883157,4.729469,-90.120239,-131.319839,0,0
2323,2024 8 08,15:40:28.762,0.704965,-0.356019,-0.562977,-0.243267,-2.170596,0.074382,-0.257607,68.73217,-46.463696,-180.086441,1,0
2324,2024 8 08,15:40:28.770,0.713938,-0.359554,-0.552786,-0.235045,-1.575709,0.180003,0.472633,12.441113,-107.597,-157.66423,0,0
2325,2024 8 08,15:40:28.778,0.721583,-0.365224,-0.541085,-0.230112,-1.172513,0.100261,0.037478,-23.712627,-115.80529,-153.738647,0,0
2326,2024 8 08,15:40:28.787,0.724633,-0.367688,-0.536214,-0.228251,-1.028472,0.0586,-0.237283,-36.08392,-114.72747,-153.86731,0,0
2327,2024 8 08,15:40:28.795,0.726134,-0.368901,-0.533817,-0.227335,-0.957566,0.038092,-0.372537,-42.173832,-114.196907,-153.930649,0,0
2328,2024 8 08,15:40:28.803,0.730018,-0.38195,-0.519903,-0.225574,-0.923905,-0.350258,-0.560494,-148.870789,-86.561676,-165.465317,0,0
2329,2024 8 08,15:40:28.812,0.729012,-0.399009,-0.507831,-0.226776,-1.026564,-1.051072,-0.423778,-188.147751,-50.164345,-132.868637,0,0
2330,2024 8 08,15:40:28.820,0.729359,-0.40979,-0.498859,-0.226356,-0.938761,-0.62845,0.060541,-81.822258,-43.585762,-100.998032,0,0
2331,2024 8 08,15:40:28.828,0.729906,-0.417266,-0.492302,-0.225294,-0.953677,-0.215065,0.066979,-74.555382,-38.929188,-80.975769,0,0
2332,2024 8 08,15:40:28.837,0.72988,-0.425677,-0.485181,-0.225085,-0.967676,-0.297241,-0.100111,-92.234085,-38.430435,-87.894447,0,0
2333,2024 8 08,15:40:28.845,0.729878,-0.426283,-0.484668,-0.22507,-0.968684,-0.30316,-0.112147,-93.507507,-38.394512,-88.392815,0,0
2334,2024 8 08,15:40:28.853,0.730365,-0.433211,-0.478188,-0.224102,-0.879492,-0.388105,-0.135161,-65.250137,-36.632328,-86.456245,0,0
2335,2024 8 08,15:40:28.862,0.731442,-0.438241,-0.47299,-0.22183,-0.931468,-0.288445,-0.023798,-35.054768,-23.342113,-73.799416,0,0
2336,2024 8 08,15:40:28.870,0.732252,-0.442592,-0.46861,-0.219808,-1.035143,-0.248364,0.080872,-32.951847,-22.57032,-65.8806,0,0
2337,2024 8 08,15:40:28.878,0.733474,-0.446013,-0.464374,-0.217802,-0.936463,-0.299143,-0.022749,-18.614746,-25.903437,-61.11422,0,0
2338,2024 8 08,15:40:28.887,0.735009,-0.448573,-0.46051,-0.215565,-0.939452,-0.271828,-0.073699,-11.279916,-22.292734,-56.832722,0,0
2339,2024 8 08,15:40:28.895,0.735233,-0.448945,-0.459947,-0.21524,-0.939888,-0.26785,-0.08112,-10.211564,-21.766819,-56.209103,0,0
2340,2024 8 08,15:40:28.903,0.736439,-0.450806,-0.457103,-0.21327,-0.930633,-0.224663,-0.023102,-7.206631,-17.377569,-52.412548,0,0
2341,2024 8 08,15:40:28.912,0.737608,-0.452605,-0.454452,-0.211076,-0.948688,-0.237429,0.055449,-3.051685,-13.640718,-46.874489,0,0
2342,2024 8 08,15:40:28.920,0.738574,-0.4543,-0.452145,-0.208999,-0.957042,-0.295011,-0.001262,-5.224429,-10.703172,-41.8876,0,0
2343,2024 8 08,15:40:28.928,0.739693,-0.455383,-0.450142,-0.207001,-0.92819,-0.314061,0.006378,5.287885,-9.759159,-35.583714,0,0
2344,2024 8 08,15:40:28.937,0.740924,-0.455745,-0.448767,-0.204775,-0.964066,-0.239255,0.021764,12.672991,-6.056377,-32.020123,0,0
2345,2024 8 08,15:40:28.945,0.741181,-0.45582,-0.448481,-0.204311,-0.971545,-0.223661,0.024971,14.212446,-5.284517,-31.277277,0,0
2346,2024 8 08,15:40:28.953,0.742082,-0.456325,-0.447257,-0.202587,-0.957386,-0.257102,0.062511,8.956442,-6.713842,-34.0756,0,0
2347,2024 8 08,15:40:28.962,0.743108,-0.456872,-0.445936,-0.200493,-0.951196,-0.29442,0.016447,9.525526,-5.599617,-32.297703,0,0
2348,2024 8 08,15:40:28.970,0.744237,-0.457277,-0.444659,-0.198203,-0.944593,-0.259935,0.016197,12.779841,-4.602036,-33.115913,0,0
2349,2024 8 08,15:40:28.978,0.74528,-0.457601,-0.443503,-0.196115,-0.95458,-0.264531,0.021939,10.495267,-4.810622,-28.827829,0,0
2350,2024 8 08,15:40:28.987,0.746205,-0.457796,-0.442487,-0.19443,-0.948513,-0.285061,0.024116,9.690566,-4.908452,-22.718321,0,0
2351,2024 8 08,15:40:28.995,0.746448,-0.457848,-0.442221,-0.193987,-0.94692,-0.290454,0.024687,9.479209,-4.934147,-21.113636,0,0
2352,2024 8 08,15:40:29.003,0.747187,-0.457736,-0.441571,-0.192882,-0.923006,-0.291915,0.061291,12.532274,-5.773454,-18.225586,0,0
2353,2024 8 08,15:40:29.012,0.747994,-0.457502,-0.440962,-0.191697,-0.934353,-0.242764,0.056606,11.088511,-5.66116,-15.426846,0,0
2354,2024 8 08,15:40:29.020,0.74867,-0.457252,-0.440436,-0.190864,-0.930413,-0.320509,0.042922,10.374177,-5.457561,-11.281851,0,0
2355,2024 8 08,15:40:29.028,0.749501,-0.456693,-0.44007,-0.189782,-0.94315,-0.253936,0.033124,15.502588,-4.168708,-11.373299,0,0
2356,2024 8 08,15:40:29.037,0.750247,-0.456125,-0.439744,-0.188953,-0.939625,-0.279406,0.025466,12.904045,-4.701034,-8.718349,0,0
2357,2024 8 08,15:40:29.045,0.750479,-0.455949,-0.439644,-0.188696,-0.938532,-0.2873,0.023093,12.098741,-4.866004,-7.895563,0,0
2358,2024 8 08,15:40:29.053,0.751005,-0.455426,-0.439548,-0.188083,-0.939171,-0.276346,0.018401,13.197283,-2.702722,-6.64986,0,0
2359,2024 8 08,15:40:29.062,0.751556,-0.45482,-0.439521,-0.187409,-0.929958,-0.280588,0.020453,12.457363,-1.838681,-5.839821,0,0
2360,2024 8 08,15:40:29.070,0.752263,-0.453965,-0.439588,-0.186487,-0.937483,-0.284788,0.029826,12.872069,-0.625611,-4.601431,0,0
2361,2024 8 08,15:40:29.078,0.752718,-0.453344,-0.439697,-0.185909,-0.944775,-0.303249,0.037382,10.684093,-1.005883,-3.122966,0,0
2362,2024 8 08,15:40:29.087,0.753263,-0.452648,-0.439772,-0.185217,-0.944977,-0.291525,0.026376,12.549641,-1.347971,-4.549692,0,0
2363,2024 8 08,15:40:29.095,0.753358,-0.452527,-0.439784,-0.185096,-0.94486,-0.288745,0.024062,12.975643,-1.400732,-4.864455,0,0
2364,2024 8 08,15:40:29.103,0.753844,-0.451979,-0.439748,-0.184542,-0.93699,-0.292133,0.029833,13.047919,-2.288183,-5.274696,0,0
2365,2024 8 08,15:40:29.112,0.754443,-0.451276,-0.439718,-0.183886,-0.929819,-0.294071,0.022997,13.351011,-2.533228,-4.539763,0,0
2366,2024 8 08,15:40:29.120,0.755043,-0.450572,-0.43968,-0.183235,-0.928783,-0.294025,0.02157,12.370002,-2.942558,-5.069368,0,0
2367,2024 8 08,15:40:29.128,0.755616,-0.449928,-0.439608,-0.182628,-0.934393,-0.285676,0.025637,12.351157,-2.898723,-5.135449,0,0
2368,2024 8 08,15:40:29.137,0.756161,-0.449342,-0.439502,-0.182071,-0.936234,-0.289451,0.025595,10.853397,-3.150828,-5.081551,0,0
2369,2024 8 08,15:40:29.145,0.75629,-0.449205,-0.439476,-0.18194,-0.93651,-0.290816,0.025418,10.439202,-3.223734,-5.067988,0,0
2370,2024 8 08,15:40:29.153,0.756711,-0.448751,-0.439381,-0.181536,-0.943774,-0.297139,0.029732,11.153084,-3.413965,-4.704806,0,0
2371,2024 8 08,15:40:29.162,0.757353,-0.448214,-0.439113,-0.18083,-0.919176,-0.229088,0.036721,12.754947,-4.939916,-9.411665,0,0
2372,2024 8 08,15:40:29.170,0.758115,-0.447466,-0.438831,-0.180173,-0.951045,-0.274027,0.001367,12.466081,-5.22506,-6.697429,0,0
2373,2024 8 08,15:40:29.178,0.75886,-0.244763,-0.578991,-0.170263,-0.949915,-0.291626,0.015505,12.303177,-6.590901,-5.389153,0,0
2374,2024 8 08,15:40:29.187,0.759635,-0.445971,-0.438137,-0.179166,-0.952245,-0.290934,0.022291,12.917696,-7.20925,-5.340972,0,0
2375,2024 8 08,15:40:29.195,0.760483,-0.445298,-0.437627,-0.178486,-0.948963,-0.244507,0.006332,13.46956,-8.408609,-10.232912,0,0
2376,2024 8 08,15:40:29.203,0.760744,-0.445098,-0.437464,-0.178272,-0.947642,-0.228368,0.000544,13.629786,-8.806587,-11.941347,0,0
2377,2024 8 08,15:40:29.212,0.761409,-0.44457,-0.437025,-0.177825,-0.955628,-0.285498,-0.011546,11.515758,-8.310339,-8.28751,0,0
2378,2024 8 08,15:40:29.220,0.762169,-0.443972,-0.436498,-0.177359,-0.937086,-0.300925,-0.003431,10.647781,-8.766877,-7.046019,0,0
2379,2024 8 08,15:40:29.228,0.762976,-0.443296,-0.435974,-0.176869,-0.944747,-0.283444,0.005787,11.931243,-8.889609,-6.429771,0,0
2380,2024 8 08,15:40:29.237,0.763714,-0.478842,-0.378375,-0.210437,-0.944738,-0.28296,0.020575,10.271584,-9.065121,-6.588058,0,0
2381,2024 8 08,15:40:29.245,0.764437,-0.442108,-0.434885,-0.17621,-0.967393,-0.297413,0.00143,10.041903,-9.722612,-4.674909,0,0
2382,2024 8 08,15:40:29.253,0.764692,-0.441897,-0.434688,-0.176122,-0.976691,-0.30314,-0.00718,10.063198,-9.979197,-3.883587,0,0
2383,2024 8 08,15:40:29.262,0.765324,-0.441342,-0.434214,-0.175937,-0.979724,-0.303707,0.002885,10.837748,-11.58395,-4.639049,0,0
2384,2024 8 08,15:40:29.270,0.76617,-0.440662,-0.433478,-0.17577,-1.02382,-0.383399,-0.124808,9.757991,-13.583036,-4.724343,0,0
2385,2024 8 08,15:40:29.278,0.767498,-0.439283,-0.43272,-0.175296,-1.010218,-0.28334,-0.049169,20.105223,-14.003468,-5.796897,0,0
2386,2024 8 08,15:40:29.287,0.76868,-0.43844,-0.431633,-0.174905,-0.984372,-0.295039,0.029558,13.132196,-17.490789,-9.616364,0,0
2387,2024 8 08,15:40:29.295,0.769883,-0.437744,-0.430434,-0.174312,-0.992722,-0.294358,-0.005246,14.446431,-16.98073,-12.795058,0,0
2388,2024 8 08,15:40:29.303,0.770361,-0.437472,-0.429957,-0.174065,-0.998094,-0.292061,-0.025519,15.636977,-16.509205,-13.987964,0,0
2389,2024 8 08,15:40:29.312,0.771295,-0.437066,-0.428943,-0.173443,-0.977871,-0.269767,-0.035498,13.916499,-16.508055,-16.333771,0,0
2390,2024 8 08,15:40:29.320,0.77242,-0.436673,-0.427677,-0.172549,-0.986913,-0.274783,-0.03267,13.443323,-15.034883,-18.019533,0,0
2391,2024 8 08,15:40:29.328,0.773626,-0.436338,-0.426295,-0.171407,-1.089954,-0.334574,-0.003693,13.034447,-14.328956,-20.352505,0,0
2392,2024 8 08,15:40:29.337,0.774395,-0.436132,-0.425412,-0.170665,-1.163629,-0.377182,0.016959,12.758105,-13.979275,-21.901768,0,0
2393,2024 8 08,15:40:29.345,0.775911,-0.435119,-0.42423,-0.169301,-0.9792,-0.177749,0.083494,30.193623,-14.633981,-20.955944,0,0
2394,2024 8 08,15:40:29.353,0.777337,-0.434716,-0.422834,-0.167275,-1.060438,-0.318893,-0.104235,15.449912,-12.177808,-29.581181,0,0
2395,2024 8 08,15:40:29.362,0.777388,-0.434701,-0.422784,-0.167202,-1.063353,-0.323958,-0.110971,14.920893,-12.089678,-29.890663,0,0
2396,2024 8 08,15:40:29.370,0.779059,-0.434088,-0.421313,-0.164714,-1.044775,-0.353438,-0.021343,26.653427,-11.628606,-33.844852,0,0
2397,2024 8 08,15:40:29.378,0.781077,-0.432567,-0.420118,-0.162187,-0.992733,-0.35712,-0.011123,41.522331,-13.905655,-25.377609,0,0
2398,2024 8 08,15:40:29.387,0.783535,-0.430741,-0.418898,-0.158295,-1.16883,-0.29086,-0.153626,38.899345,-7.870797,-41.026905,0,0
2399,2024 8 08,15:40:29.395,0.785718,-0.429499,-0.417454,-0.154619,-1.155406,-0.296693,-0.050134,43.145828,-8.037263,-43.039635,0,0
2400,2024 8 08,15:40:29.403,0.788173,-0.428142,-0.415917,-0.149953,-1.197157,-0.234753,-0.069253,42.396385,-5.736162,-52.842922,0,0
2401,2024 8 08,15:40:29.412,0.788455,-0.427986,-0.415741,-0.149416,-1.201963,-0.227624,-0.071454,42.310116,-5.471289,-53.971352,0,0
2402,2024 8 08,15:40:29.420,0.790533,-0.427149,-0.414198,-0.145036,-1.116544,-0.290085,0.031082,46.128387,-6.014641,-59.3078,0,0
2403,2024 8 08,15:40:29.428,0.792828,-0.426524,-0.412285,-0.139699,-1.056252,-0.350506,0.001827,41.016579,-6.297028,-61.911179,0,0
2404,2024 8 08,15:40:29.437,0.795256,-0.426044,-0.410132,-0.13355,-1.165704,-0.319119,-0.186847,39.789978,-3.172738,-70.320557,0,0
2405,2024 8 08,15:40:29.445,0.797968,-0.425525,-0.407483,-0.126962,-1.28416,-0.226142,-0.068415,44.633606,-6.450414,-80.900406,0,0
2406,2024 8 08,15:40:29.453,0.80067,-0.425568,-0.404318,-0.119702,-1.325216,-0.28223,0.071375,43.176613,-8.207962,-95.508034,0,0
2407,2024 8 08,15:40:29.462,0.801162,-0.425576,-0.403741,-0.118379,-1.332701,-0.292455,0.096859,42.911003,-8.528365,-98.171021,0,0
2408,2024 8 08,15:40:29.470,0.803175,-0.426613,-0.400551,-0.111593,-1.321332,-0.2886,-0.053509,35.678635,-8.395962,-106.641281,0,0
2409,2024 8 08,15:40:29.478,0.805743,-0.428253,-0.396,-0.102602,-1.394175,-0.235678,-0.091625,31.91387,-10.765298,-127.81311,0,0
2410,2024 8 08,15:40:29.487,0.808503,-0.430704,-0.390189,-0.092286,-1.436522,-0.208163,-0.024348,29.931479,-16.049297,-150.720734,0,0
2411,2024 8 08,15:40:29.495,0.811288,-0.434257,-0.382976,-0.080542,-1.64384,-0.214784,-0.014671,23.178251,-21.38315,-175.675934,0,0
2412,2024 8 08,15:40:29.503,0.814126,-0.196358,-0.511582,-0.19216,-1.736458,-0.166033,0.139143,21.803339,-29.546837,-205.053894,0,0
2413,2024 8 08,15:40:29.512,0.814808,-0.43985,-0.372113,-0.064187,-1.758687,-0.154332,0.17606,21.473345,-31.50621,-212.104919,0,0
2414,2024 8 08,15:40:29.520,0.816937,-0.445169,-0.362877,-0.051491,-1.931773,-0.216781,0.15708,12.138102,-38.493549,-245.590988,0,0
2415,2024 8 08,15:40:29.528,0.819631,-0.451879,-0.350125,-0.034813,-2.060225,-0.285691,0.220015,16.650337,-52.027298,-279.288513,0,0
2416,2024 8 08,15:40:29.537,0.822538,-0.45931,-0.334503,-0.016227,-2.094029,-0.431413,0.23181,15.776968,-68.815475,-306.599609,0,0
2417,2024 8 08,15:40:29.545,0.825509,-0.466892,-0.316455,0.003068,-1.919755,-0.647578,0.281453,17.500242,-90.602844,-323.726379,0,0
2418,2024 8 08,15:40:29.553,0.828189,-0.47474,-0.296212,0.022617,-1.725644,-0.968417,0.229211,14.234159,-105.938789,-334.857178,0,0
2419,2024 8 08,15:40:29.562,0.828966,-0.477016,-0.29034,0.028289,-1.669331,-1.061496,0.214055,13.28663,-110.387924,-338.086365,0,1
2420,2024 8 08,15:40:29.570,0.830029,-0.483478,-0.274026,0.043731,-1.667749,-1.264412,0.134603,6.422173,-101.248894,-335.461609,0,0
2421,2024 8 08,15:40:29.578,0.830684,-0.490387,-0.255367,0.061974,-1.743069,-1.251243,0.182135,8.207788,-92.447449,-325.393707,0,0
2422,2024 8 08,15:40:29.587,0.831545,-0.495968,-0.235968,0.079873,-1.626545,-0.894607,0.193368,26.771477,-101.753212,-309.484253,0,0
2423,2024 8 08,15:40:29.595,0.832838,-0.499911,-0.215755,0.096968,-1.258758,-0.522558,0.324781,39.249672,-108.326859,-297.569366,0,0
2424,2024 8 08,15:40:29.603,0.834105,-0.503759,-0.189395,0.120596,-0.793296,-0.041082,0.474304,51.88269,-81.844284,-286.057251,0,0
2425,2024 8 08,15:40:29.612,0.83434,-0.504551,-0.172694,0.139266,-0.662912,0.257507,0.292482,63.277065,-51.233414,-285.53476,0,0
2426,2024 8 08,15:40:29.620,0.834365,-0.50464,-0.170238,0.142087,-0.647501,0.301298,0.2594,65.065491,-46.718811,-285.58194,0,0
2427,2024 8 08,15:40:29.628,0.833962,-0.504065,-0.157297,0.159938,0.075748,0.235836,0.882473,74.432861,-15.925629,-298.014984,0,0
2428,2024 8 08,15:40:29.637,0.833511,-0.500592,-0.146776,0.181689,0.426479,-0.005167,0.753241,99.205109,50.106491,-252.449371,0,0
2429,2024 8 08,15:40:29.645,0.83418,-0.49364,-0.144248,0.198956,-0.582589,-0.001072,0.166923,110.66304,97.334457,-142.398102,0,0
2430,2024 8 08,15:40:29.653,0.835802,-0.485296,-0.148651,0.209237,-1.084366,0.505322,0.275942,90.869476,116.82682,-35.575401,0,0
2431,2024 8 08,15:40:29.662,0.838163,-0.478143,-0.15556,0.211271,-1.218536,0.609406,0.332214,63.938972,77.009041,49.927467,0,0
2432,2024 8 08,15:40:29.670,0.838704,-0.476606,-0.157139,0.211484,-1.23955,0.617192,0.339424,57.898064,66.412659,68.172546,0,0
2433,2024 8 08,15:40:29.678,0.841308,-0.472969,-0.161008,0.206294,-1.020973,0.61104,0.228291,36.814926,11.297569,100.72789,0,0
2434,2024 8 08,15:40:29.687,0.844173,-0.470371,-0.164252,0.197773,-0.516424,0.59535,0.17107,12.980799,-17.9909,111.413048,0,0
2435,2024 8 08,15:40:29.695,0.845992,-0.469102,-0.168391,0.189357,-0.12022,0.517028,0.129446,-8.939726,-0.406622,109.564339,0,0
2436,2024 8 08,15:40:29.703,0.846582,-0.468366,-0.175216,0.182204,-0.134552,0.435578,0.105967,-22.146938,37.806709,110.512497,0,0
2437,2024 8 08,15:40:29.712,0.846191,-0.467789,-0.18493,0.175743,-0.382825,0.368877,0.113599,-32.702908,68.376694,118.026382,0,0
2438,2024 8 08,15:40:29.720,0.846047,-0.467632,-0.187765,0.173948,-0.459967,0.350716,0.116939,-35.610432,76.556168,120.387344,0,0
2439,2024 8 08,15:40:29.728,0.845219,-0.467241,-0.196947,0.168685,-0.66114,0.299003,0.104911,-41.12212,82.244392,130.365417,0,0
2440,2024 8 08,15:40:29.737,0.84411,-0.466849,-0.20865,0.16098,-0.759514,0.208262,0.064962,-44.705853,76.265602,142.786972,0,0
2441,2024 8 08,15:40:29.745,0.843154,-0.466198,-0.220546,0.151688,-0.683135,0.104602,0.00555,-43.447487,66.685944,156.439102,0,0
2442,2024 8 08,15:40:29.753,0.842356,-0.464895,-0.232826,0.141346,-0.591418,0.014905,-0.047836,-38.892494,68.829376,170.873108,0,0
2443,2024 8 08,15:40:29.762,0.841512,-0.462545,-0.246464,0.130429,-0.626359,-0.04431,-0.078064,-32.252769,83.22271,187.277756,0,0
2444,2024 8 08,15:40:29.770,0.841228,-0.461716,-0.251065,0.126777,-0.644264,-0.062587,-0.087017,-29.960222,88.53228,192.826752,0,0
2445,2024 8 08,15:40:29.778,0.840528,-0.458792,-0.262551,0.118193,-0.764887,-0.077387,-0.102777,-23.272751,96.292328,204.646805,0,0
2446,2024 8 08,15:40:29.787,0.839709,-0.454118,-0.277574,0.106848,-0.872108,-0.098944,-0.139476,-14.761996,99.794693,216.81839,0,0
2447,2024 8 08,15:40:29.795,0.838934,-0.44813,-0.293615,0.094342,-0.927225,-0.106957,-0.163179,-4.7476,100.081154,227.257767,0,0
2448,2024 8 08,15:40:29.803,0.838123,-0.441084,-0.31,0.081192,-0.951963,-0.130505,-0.205818,2.253208,100.278534,236.471024,0,0
2449,2024 8 08,15:40:29.812,0.837162,-0.433083,-0.326613,0.067703,-0.991614,-0.153236,-0.226735,8.827318,102.562866,243.270279,0,0
2450,2024 8 08,15:40:29.820,0.836792,-0.430018,-0.33289,0.062601,-1.007623,-0.161609,-0.233196,11.31033,103.541389,245.705109,0,0
2451,2024 8 08,15:40:29.828,0.835805,-0.423498,-0.345105,0.052639,-1.061089,-0.178528,-0.235055,14.208567,105.673622,248.88559,0,0
2452,2024 8 08,15:40:29.837,0.83428,-0.414784,-0.360581,0.039842,-1.103481,-0.183721,-0.210123,17.599304,106.187172,252.076035,0,0
2453,2024 8 08,15:40:29.845,0.832223,-0.405224,-0.376981,0.026043,-1.135789,-0.228727,-0.218327,17.590555,106.606476,255.75824,0,0
2454,2024 8 08,15:40:29.853,0.829749,-0.395001,-0.393565,0.011891,-1.162135,-0.240871,-0.198698,20.312935,107.252869,258.638489,0,0
2455,2024 8 08,15:40:29.862,0.826737,-0.384366,-0.410208,-0.002345,-1.199863,-0.260417,-0.186855,21.632633,109.905548,260.154419,0,0
2456,2024 8 08,15:40:29.870,0.825452,-0.379919,-0.417137,-0.008273,-1.216335,-0.269401,-0.182744,22.061445,111.134979,260.707336,0,0
2457,2024 8 08,15:40:29.878,0.824812,-0.377702,-0.420591,-0.011227,-1.224544,-0.273878,-0.180695,22.275166,111.747726,260.98288,0,0
2458,2024 8 08,15:40:29.887,0.820918,-0.366558,-0.437123,-0.025193,-1.280208,-0.303377,-0.164524,24.592842,115.37619,261.283051,0,0
2459,2024 8 08,15:40:29.895,0.816394,-0.355013,-0.453777,-0.039053,-1.342519,-0.331771,-0.150054,26.058666,118.806839,260.706482,0,0
2460,2024 8 08,15:40:29.903,0.811297,-0.343204,-0.47033,-0.052519,-1.404547,-0.381333,-0.147611,28.135414,122.347427,258.03299,0,0
2461,2024 8 08,15:40:29.912,0.805637,-0.331151,-0.486771,-0.065519,-1.463384,-0.432668,-0.140665,30.918209,126.062775,255.103577,0,0
2462,2024 8 08,15:40:29.920,0.799408,-0.318906,-0.503099,-0.077958,-1.512201,-0.493498,-0.135709,33.907417,130.570831,251.041382,0,0
2463,2024 8 08,15:40:29.928,0.798895,-0.317899,-0.504443,-0.078981,-1.516219,-0.498504,-0.135302,34.153416,130.941818,250.707092,0,0
2464,2024 8 08,15:40:29.937,0.792674,-0.306604,-0.519199,-0.089622,-1.548356,-0.57032,-0.133958,37.384834,134.783234,245.07486,0,0
2465,2024 8 08,15:40:29.945,0.785467,-0.294264,-0.535061,-0.100365,-1.58399,-0.642399,-0.110648,41.593468,139.540131,238.248413,0,0
2466,2024 8 08,15:40:29.953,0.777707,-0.28177,-0.550936,-0.110225,-1.621264,-0.720007,-0.110817,46.805019,144.658691,229.867096,0,0
2467,2024 8 08,15:40:29.962,0.769468,-0.269226,-0.566725,-0.11896,-1.6245,-0.803695,-0.106247,53.178722,151.385422,220.728027,0,0
2468,2024 8 08,15:40:29.970,0.760673,-0.256793,-0.582511,-0.126484,-1.610958,-0.907534,-0.104769,58.158707,159.04187,210.563736,0,0
2469,2024 8 08,15:40:29.978,0.759315,-0.254874,-0.584948,-0.127646,-1.608868,-0.923562,-0.104541,58.927422,160.223724,208.994766,0,0
2470,2024 8 08,15:40:29.987,0.751312,-0.2444,-0.598379,-0.132871,-1.568395,-1.032149,-0.126975,62.866516,164.732681,198.352646,0,0
2471,2024 8 08,15:40:29.995,0.741966,-0.232955,-0.6133,-0.137689,-1.477684,-1.129693,-0.216493,65.58979,168.348526,184.348297,0,0
2472,2024 8 08,15:40:30.003,0.732222,-0.221995,-0.628008,-0.141561,-1.362208,-1.193634,-0.366952,64.581421,169.951187,169.368698,0,0
2473,2024 8 08,15:40:30.012,0.722271,-0.212184,-0.642084,-0.144555,-1.263037,-1.268775,-0.590046,57.285172,169.879715,151.071014,0,0
2474,2024 8 08,15:40:30.020,0.712601,-0.204022,-0.654919,-0.146742,-1.160542,-1.447204,-0.881034,47.719704,161.709335,127.980209,0,0
2475,2024 8 08,15:40:30.028,0.703504,-0.198068,-0.666141,-0.148348,-1.168941,-1.791424,-1.151933,30.24761,150.804779,102.49913,0,0
2476,2024 8 08,15:40:30.037,0.701454,-0.196727,-0.66867,-0.148709,-1.170834,-1.868988,-1.212976,26.310553,148.34761,96.757378,0,0
2477,2024 8 08,15:40:30.045,0.694988,-0.194264,-0.675833,-0.14988,-1.313325,-2.250026,-1.315243,9.287773,127.945999,77.563431,0,0
2478,2024 8 08,15:40:30.053,0.690085,-0.192681,-0.68097,-0.151353,-1.350928,-2.579562,-1.26886,-1.994063,71.563507,54.751659,0,0
2479,2024 8 08,15:40:30.062,0.689382,-0.191894,-0.681695,-0.152357,-1.012434,-0.178462,-0.088703,-1.469653,-0.622528,24.508894,0,0
2480,2024 8 08,15:40:30.070,0.692241,-0.191939,-0.678894,-0.151844,-0.625295,-2.405876,-0.816112,7.328954,-45.4776,-9.896578,0,0
2481,2024 8 08,15:40:30.078,0.696288,-0.193196,-0.674952,-0.149265,-0.542881,-2.028498,-0.629424,13.078711,-50.874813,-40.76403,0,0
2482,2024 8 08,15:40:30.087,0.69741,-0.193545,-0.673859,-0.148549,-0.520025,-1.923843,-0.577651,14.673246,-52.371582,-49.324265,0,0
2483,2024 8 08,15:40:30.095,0.700675,-0.195554,-0.670606,-0.145204,-0.705564,-1.59782,-0.50241,14.011604,-49.620651,-61.042912,0,0
2484,2024 8 08,15:40:30.103,0.703988,-0.196369,-0.667903,-0.140435,-6.356401,0.72695,-1.147756,54.636959,-20.610285,-41.583572,0,0
2485,2024 8 08,15:40:30.112,0.710467,-0.190401,-0.664637,-0.130977,-2.914158,1.499484,3.205097,77.612595,-132.302811,-87.746536,0,0
2486,2024 8 08,15:40:30.120,0.719014,-0.192215,-0.655836,-0.125853,-2.068169,0.424762,0.790903,21.971672,-165.94458,-113.823639,0,0
2487,2024 8 08,15:40:30.128,0.729129,-0.218857,-0.633489,-0.138271,-0.942438,0.458359,-0.330958,-34.246986,-153.325623,-117.899788,0,0
2488,2024 8 08,15:40:30.137,0.732394,-0.199179,-0.63957,-0.121666,-0.579085,0.469204,-0.693063,-52.392776,-149.252579,-119.215454,0,0
2489,2024 8 08,15:40:30.145,0.73727,-0.213866,-0.628942,-0.122796,-0.990561,-0.309467,-0.898233,-157.510834,-95.375977,-128.929794,0,0
2490,2024 8 08,15:40:30.153,0.741206,-0.229294,-0.618431,-0.124609,-0.852853,-0.364634,-0.306652,-147.206268,-98.850647,-129.77887,0,0
2491,2024 8 08,15:40:30.162,0.744961,-0.244362,-0.607852,-0.125616,-0.865653,-0.352446,-0.39523,-144.815933,-96.945915,-132.039276,1,0
2492,2024 8 08,15:40:30.170,0.747975,-0.258752,-0.598075,-0.125829,-0.893692,-0.358824,-0.334697,-128.696487,-77.724312,-130.181229,0,0
2493,2024 8 08,15:40:30.178,0.750349,-0.270942,-0.589953,-0.124416,-0.852395,-0.379983,-0.196466,-87.887047,-58.891441,-122.33593,0,0
2494,2024 8 08,15:40:30.187,0.750789,-0.273217,-0.588441,-0.124103,-0.842662,-0.384397,-0.168888,-79.462273,-55.358543,-120.686729,0,0
2495,2024 8 08,15:40:30.195,0.752288,-0.280639,-0.583567,-0.121364,-0.890948,-0.265571,-0.071699,-60.745552,-41.527142,-113.468887,0,0
2496,2024 8 08,15:40:30.203,0.753728,-0.289365,-0.578064,-0.118213,-0.987542,-0.27867,0.115783,-60.031727,-36.475319,-107.325668,0,0
2497,2024 8 08,15:40:30.212,0.755206,-0.29736,-0.572635,-0.115331,-0.994603,-0.284692,0.14638,-48.339222,-39.087971,-97.302231,0,0
2498,2024 8 08,15:40:30.220,0.757047,-0.303648,-0.567476,-0.112364,-0.9687,-0.300904,0.014729,-31.825813,-40.92609,-86.527733,0,0
2499,2024 8 08,15:40:30.228,0.759158,-0.308181,-0.562806,-0.109251,-0.905092,-0.384443,-0.091159,-12.892342,-37.375252,-74.221527,0,0
2500,2024 8 08,15:40:30.237,0.759707,-0.309283,-0.561627,-0.108449,-0.887484,-0.408301,-0.116518,-7.969228,-36.271179,-71.013893,0,0
2501,2024 8 08,15:40:30.245,0.761202,-0.31146,-0.558866,-0.105946,-0.927889,-0.360369,-0.059281,-1.093263,-29.927647,-61.88205,0,0
2502,2024 8 08,15:40:30.253,0.76281,-0.313652,-0.555983,-0.103043,-0.949441,-0.300754,0.017247,2.360485,-23.809803,-53.23288,0,0
2503,2024 8 08,15:40:30.262,0.764265,-0.315867,-0.553226,-0.100293,-0.942416,-0.315324,-0.025268,0.291713,-22.157616,-50.838364,0,0
2504,2024 8 08,15:40:30.270,0.765622,-0.317789,-0.550693,-0.097784,-0.901577,-0.350045,-0.010777,3.840158,-18.975225,-44.499626,0,0
2505,2024 8 08,15:40:30.278,0.766771,-0.318725,-0.54902,-0.09512,-0.950234,-0.223461,0.015785,11.195505,-10.704452,-35.530449,0,0
2506,2024 8 08,15:40:30.287,0.767119,-0.318972,-0.548539,-0.094283,-0.969759,-0.180945,-0.007828,13.616594,-7.909525,-32.651787,0,0
2507,2024 8 08,15:40:30.295,0.76771,-0.319652,-0.547576,-0.092755,-0.938256,-0.268567,0.047448,9.265709,-7.927597,-31.547831,0,0
2508,2024 8 08,15:40:30.303,0.768346,-0.319901,-0.546886,-0.090671,-0.940607,-0.24696,0.037233,13.323681,-2.854688,-23.34766,0,0
2509,2024 8 08,15:40:30.312,0.7688,-0.319821,-0.546555,-0.089091,-0.931312,-0.268787,0.046662,13.360123,-0.440974,-14.960301,0,0
2510,2024 8 08,15:40:30.320,0.769134,-0.319449,-0.546535,-0.087651,-0.936984,-0.266312,0.059725,14.038202,1.904543,-11.061407,0,0
2511,2024 8 08,15:40:30.328,0.769372,-0.319162,-0.546616,-0.086087,-0.939912,-0.23588,0.06399,13.846821,3.882998,-14.720211,0,0
2512,2024 8 08,15:40:30.337,0.769453,-0.319066,-0.546649,-0.085519,-0.940668,-0.223731,0.065043,13.719053,4.568611,-16.406237,0,0
2513,2024 8 08,15:40:30.345,0.769614,-0.318839,-0.546738,-0.084335,-0.950016,-0.262567,0.068068,11.245902,3.95108,-12.587353,0,0
2514,2024 8 08,15:40:30.353,0.769796,-0.318429,-0.5469,-0.083159,-0.946764,-0.277937,0.072639,13.354459,3.619942,-8.051634,0,0
2515,2024 8 08,15:40:30.362,0.770036,-0.317775,-0.547109,-0.082066,-0.950092,-0.27664,0.081004,14.514912,2.178907,-5.772547,0,0
2516,2024 8 08,15:40:30.370,0.77037,-0.31699,-0.547247,-0.081037,-0.951889,-0.276907,0.084746,15.711538,0.63106,-4.618016,0,0
2517,2024 8 08,15:40:30.378,0.770764,-0.316214,-0.547312,-0.079872,-0.881554,-0.231716,0.080366,16.9289,-0.046331,-7.418814,0,0
2518,2024 8 08,15:40:30.387,0.770924,-0.315905,-0.547334,-0.079398,-0.849069,-0.210851,0.078169,17.41419,-0.264891,-8.772073,0,0
2519,2024 8 08,15:40:30.395,0.771315,-0.315059,-0.547411,-0.07843,-0.923384,-0.263972,0.048364,17.245142,-0.119299,-5.877848,0,0
2520,2024 8 08,15:40:30.403,0.771876,-0.314037,-0.547367,-0.077308,-0.939097,-0.281759,0.062267,19.259596,-1.69886,-5.389843,0,0
2521,2024 8 08,15:40:30.412,0.772242,-0.313384,-0.547326,-0.076595,-0.941915,-0.288563,0.075647,20.747667,-2.865293,-5.371148,0,0
2522,2024 8 08,15:40:30.420,0.772986,-0.222567,-0.563336,-0.188699,-0.95199,-0.267011,0.080479,25.605442,-3.048353,-5.790539,0,0
2523,2024 8 08,15:40:30.428,0.773781,-0.310599,-0.547131,-0.073747,-0.944618,-0.282202,0.077733,24.866665,-3.700753,-6.15214,0,0
2524,2024 8 08,15:40:30.437,0.774604,-0.309181,-0.546966,-0.072276,-0.940657,-0.285489,0.073458,25.249401,-4.01271,-6.047707,0,0
2525,2024 8 08,15:40:30.445,0.775406,-0.307961,-0.546731,-0.070647,-1.017901,-0.382316,-0.132001,23.262959,-3.511936,-11.36882,0,0
2526,2024 8 08,15:40:30.453,0.775455,-0.307886,-0.546716,-0.070548,-1.022598,-0.388204,-0.144494,23.142166,-3.481485,-11.692385,0,0
2527,2024 8 08,15:40:30.462,0.776541,-0.306152,-0.546411,-0.068477,-0.965537,-0.231988,0.010786,31.81115,-2.589177,-8.990646,0,0
2528,2024 8 08,15:40:30.470,0.777405,-0.304975,-0.546,-0.067193,-0.933789,-0.288106,0.103323,22.64188,-7.995456,-7.548147,0,0
2529,2024 8 08,15:40:30.478,0.778333,-0.303653,-0.545578,-0.065849,-0.940131,-0.29372,0.072346,24.536535,-7.617041,-6.376334,0,0
2530,2024 8 08,15:40:30.487,0.7793,-0.302337,-0.545078,-0.064593,-0.936577,-0.293925,0.073131,23.309471,-8.854549,-6.084597,0,0
2531,2024 8 08,15:40:30.495,0.78032,-0.30103,-0.544489,-0.063352,-0.939502,-0.296055,0.066915,23.36722,-10.060802,-6.153518,0,0
2532,2024 8 08,15:40:30.503,0.780458,-0.300852,-0.544409,-0.063183,-0.9399,-0.296345,0.066069,23.375082,-10.225033,-6.162901,0,0
2533,2024 8 08,15:40:30.512,0.781399,-0.299645,-0.543853,-0.062067,-0.943237,-0.295978,0.060207,24.144608,-10.65906,-6.21551,0,0
2534,2024 8 08,15:40:30.520,0.782471,-0.298307,-0.543189,-0.060802,-0.954687,-0.372364,0.117925,23.91279,-11.284047,-7.285559,0,0
2535,2024 8 08,15:40:30.528,0.78374,-0.297069,-0.54223,-0.059049,-0.902726,-0.245564,0.152061,30.261648,-14.58403,-13.00661,0,0
2536,2024 8 08,15:40:30.537,0.784848,-0.295675,-0.541553,-0.057518,-0.937524,-0.277928,0.04231,26.96981,-10.299917,-8.468462,0,0
2537,2024 8 08,15:40:30.545,0.785893,-0.294379,-0.540896,-0.056068,-0.959716,-0.273966,0.038165,23.667332,-9.82533,-8.918667,0,0
2538,2024 8 08,15:40:30.553,0.786102,-0.294119,-0.540764,-0.055778,-0.964161,-0.273172,0.037335,23.005838,-9.730268,-9.008843,0,0
2539,2024 8 08,15:40:30.562,0.786833,-0.293279,-0.540267,-0.054702,-0.97231,-0.285917,0.05197,20.351135,-8.760963,-8.932855,0,0
2540,2024 8 08,15:40:30.570,0.78763,-0.292463,-0.539668,-0.053498,-0.970723,-0.27446,0.063813,17.939266,-8.970125,-9.80714,0,0
2541,2024 8 08,15:40:30.578,0.788381,-0.291911,-0.538975,-0.05242,-0.964058,-0.299267,0.057999,13.912075,-9.01801,-9.914626,0,0
2542,2024 8 08,15:40:30.587,0.789076,-0.291528,-0.538248,-0.051562,-1.078958,-0.461586,-0.038626,9.931531,-9.945155,-8.108716,0,0
2543,2024 8 08,15:40:30.595,0.790098,-0.2904,-0.537479,-0.050274,-0.953461,-0.230134,0.085954,26.326111,-10.12882,-9.699238,0,0
2544,2024 8 08,15:40:30.603,0.790359,-0.290112,-0.537283,-0.049945,-0.921386,-0.170978,0.117794,30.516317,-10.175763,-10.105751,0,0
2545,2024 8 08,15:40:30.612,0.79096,-0.289948,-0.536567,-0.049068,-0.927068,-0.284846,0.034923,15.702606,-11.382174,-13.131799,0,0
2546,2024 8 08,15:40:30.620,0.7917,-0.289552,-0.535804,-0.047793,-0.960447,-0.214927,-0.059244,16.390331,-8.999809,-13.562427,0,0
2547,2024 8 08,15:40:30.628,0.792489,-0.28913,-0.534995,-0.046294,-1.015124,-0.360091,0.070683,16.280542,-9.109941,-16.147751,0,0
2548,2024 8 08,15:40:30.637,0.793304,-0.288481,-0.534274,-0.044682,-1.004207,-0.265861,0.060504,24.972239,-7.089147,-15.353893,0,0
2549,2024 8 08,15:40:30.645,0.794106,-0.287963,-0.533521,-0.042724,-1.015525,-0.279576,-0.001388,19.340769,-7.040566,-19.813629,0,0
2550,2024 8 08,15:40:30.653,0.79435,-0.287806,-0.533292,-0.042129,-1.018962,-0.283742,-0.020186,17.630388,-7.025812,-21.168133,0,0
2551,2024 8 08,15:40:30.662,0.794893,-0.287687,-0.532671,-0.040507,-1.047187,-0.301596,-0.078358,16.14616,-6.02777,-21.548182,0,0
2552,2024 8 08,15:40:30.670,0.795672,-0.287047,-0.532021,-0.038216,-1.050931,-0.250922,0.015837,26.363386,-4.604141,-24.863852,0,0
2553,2024 8 08,15:40:30.678,0.796385,-0.286888,-0.531217,-0.035638,-1.067389,-0.319055,0.029964,20.124352,-4.951307,-27.726484,0,0
2554,2024 8 08,15:40:30.687,0.797606,-0.286228,-0.530032,-0.031018,-1.140997,-0.269336,0.070335,34.2439,-4.187411,-37.53738,0,0
2555,2024 8 08,15:40:30.695,0.798564,-0.285563,-0.529171,-0.026917,-1.168459,-0.291463,-0.01546,38.77837,-1.366899,-40.85643,0,0
2556,2024 8 08,15:40:30.703,0.798716,-0.285457,-0.529035,-0.026258,-1.171761,-0.297584,-0.031969,39.166988,-0.876671,-41.24231,0,0
2557,2024 8 08,15:40:30.712,0.799569,-0.284976,-0.528182,-0.022295,-1.102649,-0.308591,-0.033469,37.044327,-1.900508,-46.333221,0,0
2558,2024 8 08,15:40:30.720,0.800576,-0.284622,-0.527042,-0.016966,-1.113166,-0.31087,-0.004262,38.114269,0.331717,-54.511658,0,0
2559,2024 8 08,15:40:30.728,0.801557,-0.284532,-0.525755,-0.011026,-1.18426,-0.280492,0.113649,42.288986,-0.390116,-62.945656,0,0
2560,2024 8 08,15:40:30.737,0.802506,-0.284832,-0.524237,-0.00448,-1.215298,0.169344,-0.028334,41.661037,-0.977368,-71.979324,0,0
2561,2024 8 08,15:40:30.745,0.803416,-0.285708,-0.522371,0.002692,-1.259276,-0.264341,-0.050516,37.225288,-2.071554,-81.862244,0,0
2562,2024 8 08,15:40:30.753,0.803623,-0.285927,-0.521933,0.004354,-1.270023,-0.256477,-0.070032,36.10593,-2.34255,-84.152954,0,0
2563,2024 8 08,15:40:30.762,0.804425,-0.28688,-0.520066,0.010771,-1.363796,-0.244561,-0.010984,40.128288,-2.192536,-94.52668,0,0
2564,2024 8 08,15:40:30.770,0.805449,-0.288843,-0.517124,0.019417,-1.403839,-0.198738,0.073031,38.553482,-8.590093,-113.010506,0,0
2565,2024 8 08,15:40:30.778,0.806402,-0.292279,-0.513209,0.029371,-1.54368,-0.229693,0.007896,32.742981,-12.997154,-135.953079,0,0
2566,2024 8 08,15:40:30.787,0.807414,-0.296369,-0.508443,0.040896,-1.617373,-0.186173,0.04889,36.838779,-17.270262,-157.155533,0,0
2567,2024 8 08,15:40:30.795,0.808417,-0.301532,-0.502516,0.054122,-1.780088,-0.124328,0.017839,36.290585,-22.894556,-185.983673,0,0
2568,2024 8 08,15:40:30.803,0.808705,-0.303062,-0.500763,0.057997,-1.831333,-0.106276,0.004964,35.865925,-24.571224,-194.632416,0,0
2569,2024 8 08,15:40:30.812,0.809271,-0.308265,-0.495043,0.069968,-1.952439,-0.104249,0.018099,35.870918,-28.010742,-221.341248,0,0
2570,2024 8 08,15:40:30.820,0.8096,-0.316327,-0.486566,0.086932,-2.152735,-0.146441,0.124877,30.12837,-33.551899,-261.519714,0,0
2571,2024 8 08,15:40:30.828,0.809086,-0.327334,-0.475953,0.106845,-2.175952,-0.235232,0.273467,14.494358,-42.462822,-308.544006,0,0
2572,2024 8 08,15:40:30.837,0.808044,-0.3407,-0.462884,0.127852,-2.024248,-0.495727,0.201643,3.313791,-65.066833,-334.678131,0,0
2573,2024 8 08,15:40:30.845,0.806634,-0.355116,-0.447739,0.149345,-1.827767,-0.804739,0.167011,-2.909658,-76.419579,-349.962463,0,0
2574,2024 8 08,15:40:30.853,0.80398,-0.369845,-0.432458,0.171186,-1.722869,-1.060976,0.142381,-6.835515,-66.036499,-354.632202,0,0
2575,2024 8 08,15:40:30.862,0.802998,-0.374958,-0.427171,0.178767,-1.691503,-1.146791,0.133811,-8.107458,-61.406773,-355.754242,0,1
2576,2024 8 08,15:40:30.870,0.79993,-0.385031,-0.416626,0.194907,-1.636672,-1.182474,0.183819,-4.158952,-50.142326,-349.011566,0,0
2577,2024 8 08,15:40:30.878,0.795808,-0.396099,-0.403842,0.215146,-1.484294,-0.907819,0.224611,12.961061,-38.536934,-334.726044,0,0
2578,2024 8 08,15:40:30.887,0.791469,-0.405959,-0.390474,0.236288,-1.13367,-0.614321,0.293902,28.123384,-34.725178,-322.766815,0,0
2579,2024 8 08,15:40:30.895,0.78711,-0.413397,-0.377653,0.257796,-0.993872,-0.214192,0.08668,50.295742,-14.895464,-307.431885,0,0
2580,2024 8 08,15:40:30.903,0.781819,-0.419152,-0.365992,0.280388,-0.628032,-0.027684,0.439907,57.066151,15.542252,-311.730042,0,0
2581,2024 8 08,15:40:30.912,0.779704,-0.421313,-0.361515,0.289245,-0.470104,0.031286,0.613088,58.722385,27.864044,-314.599426,0,0
2582,2024 8 08,15:40:30.920,0.774069,-0.422691,-0.356535,0.307769,-0.027233,0.015953,1.195895,80.56723,87.120255,-299.309875,0,0
2583,2024 8 08,15:40:30.928,0.767552,-0.420275,-0.355132,0.328257,-0.718832,-0.147621,0.456688,93.956673,129.637848,-203.632645,0,0
2584,2024 8 08,15:40:30.937,0.765419,-0.412988,-0.355021,0.342454,-1.296299,0.232006,0.255385,117.326843,92.376083,-92.038773,0,0
2585,2024 8 08,15:40:30.945,0.767423,-0.404124,-0.354946,0.348716,-1.295305,0.519136,0.327857,113.629807,43.451214,-1.849976,0,0
2586,2024 8 08,15:40:30.953,0.769025,-0.398425,-0.354891,0.352006,-1.243183,0.683599,0.389109,108.505592,12.485731,53.094349,0,0
2587,2024 8 08,15:40:30.962,0.775468,-0.390368,-0.353627,0.348148,-0.864371,0.497773,0.188081,87.851891,-41.392685,88.480682,0,0
2588,2024 8 08,15:40:30.970,0.775621,-0.390176,-0.353596,0.348057,-0.855371,0.493358,0.183304,87.361153,-42.672836,89.321465,0,0
2589,2024 8 08,15:40:30.978,0.783359,-0.119676,-0.580616,-0.186838,-0.212386,0.59259,0.179423,92.716797,-71.558853,91.376297,0,0
2590,2024 8 08,15:40:30.987,0.789572,-0.376487,-0.347428,0.337813,0.188932,0.5864,0.104965,74.719025,-22.621746,81.120514,0,0
2591,2024 8 08,15:40:30.995,0.793046,-0.368883,-0.349964,0.335442,0.010728,0.554115,0.048861,62.025116,43.24139,77.187782,0,0
2592,2024 8 08,15:40:31.003,0.794957,-0.360622,-0.35598,0.333559,-0.375178,0.571909,0.051488,48.349098,77.126312,85.726616,0,0
2593,2024 8 08,15:40:31.012,0.796531,-0.352504,-0.363479,0.33037,-0.622004,0.572243,0.010277,34.596195,78.400551,101.95047,0,0
2594,2024 8 08,15:40:31.020,0.796696,-0.351652,-0.364266,0.330035,-0.647898,0.572278,0.005954,33.153419,78.534233,103.652466,0,0
2595,2024 8 08,15:40:31.028,0.798325,-0.344999,-0.37135,0.325168,-0.605941,0.498432,-0.046757,18.978786,69.318909,119.97953,0,0
2596,2024 8 08,15:40:31.037,0.80015,-0.338125,-0.379743,0.318114,-0.510506,0.390089,-0.055652,4.693625,67.606407,138.205994,0,0
2597,2024 8 08,15:40:31.045,0.801741,-0.331181,-0.389343,0.309675,-0.526005,0.286442,-0.058556,-5.112899,76.505936,154.040634,0,0
2598,2024 8 08,15:40:31.053,0.802996,-0.323813,-0.400104,0.300333,-0.629472,0.17774,-0.05655,-9.201635,86.21566,166.740402,0,0
2599,2024 8 08,15:40:31.062,0.804092,-0.315828,-0.411558,0.290233,-0.724398,0.069084,-0.059443,-8.35859,91.21785,178.265915,0,0
2600,2024 8 08,15:40:31.070,0.804282,-0.314441,-0.413547,0.28848,-0.740876,0.050221,-0.059945,-8.212238,92.08622,180.266739,0,0
2601,2024 8 08,15:40:31.078,0.805284,-0.306814,-0.42345,0.279306,-0.770583,-0.011698,-0.094949,-2.497626,92.785385,189.460663,0,0
2602,2024 8 08,15:40:31.087,0.806542,-0.297102,-0.434849,0.268371,-0.796109,-0.052002,-0.129639,5.972091,95.293755,200.397644,0,0
2603,2024 8 08,15:40:31.095,0.807827,-0.285921,-0.446805,0.256699,-0.865597,-0.078594,-0.165798,14.300758,101.0186,212.768936,0,0
2604,2024 8 08,15:40:31.103,0.809073,-0.27338,-0.459073,0.24444,-0.922407,-0.089571,-0.188647,23.593063,104.935486,225.240494,0,0
2605,2024 8 08,15:40:31.112,0.810271,-0.259568,-0.471403,0.231668,-0.954881,-0.091275,-0.212419,32.295479,107.583626,236.192993,0,0
2606,2024 8 08,15:40:31.120,0.810549,-0.256357,-0.47427,0.228699,-0.962431,-0.091672,-0.217946,34.318783,108.199318,238.739441,0,0
2607,2024 8 08,15:40:31.128,0.811236,-0.244066,-0.484424,0.217995,-0.993426,-0.097966,-0.26012,38.453674,112.814667,244.231277,0,0
2608,2024 8 08,15:40:31.137,0.81165,-0.494068,-0.288176,-0.118536,-1.046595,-0.100623,-0.296626,43.137669,117.303574,248.399002,0,0
2609,2024 8 08,15:40:31.145,0.811579,-0.212975,-0.508739,0.19206,-1.121639,-0.098461,-0.326028,45.107452,121.805733,252.417206,0,0
2610,2024 8 08,15:40:31.153,0.81101,-0.196386,-0.521138,0.178311,-1.207919,-0.122539,-0.341285,45.854137,123.009216,256.441162,0,0
2611,2024 8 08,15:40:31.162,0.809969,-0.179469,-0.53332,0.164207,-1.284282,-0.173753,-0.346533,45.580997,123.166679,259.900696,0,0
2612,2024 8 08,15:40:31.170,0.809674,-0.174672,-0.536775,0.160208,-1.305936,-0.188275,-0.348022,45.503548,123.211327,260.881714,0,0
2613,2024 8 08,15:40:31.178,0.808414,-0.161011,-0.546054,0.148845,-1.34052,-0.224187,-0.349477,47.482189,122.798553,262.10434,0,0
2614,2024 8 08,15:40:31.187,0.806487,-0.144605,-0.556806,0.135323,-1.413873,-0.254472,-0.348902,49.126938,123.643784,263.228119,0,0
2615,2024 8 08,15:40:31.195,0.803976,-0.12727,-0.567767,0.121126,-1.492365,-0.279091,-0.369059,50.089581,124.111275,263.656036,0,0
2616,2024 8 08,15:40:31.203,0.800943,-0.439305,-0.371005,-0.166855,-1.54933,-0.338598,-0.401111,49.855942,123.887062,263.007172,0,0
2617,2024 8 08,15:40:31.212,0.797359,-0.092039,-0.588865,0.09232,-1.598954,-0.430809,-0.428702,50.025639,124.467674,261.289551,0,0
2618,2024 8 08,15:40:31.220,0.795588,-0.083325,-0.593998,0.085204,-1.623482,-0.476386,-0.442339,50.109512,124.754654,260.440582,0,0
2619,2024 8 08,15:40:31.228,0.791774,-0.068121,-0.602527,0.073013,-1.6861,-0.587946,-0.461026,51.765903,125.73912,258.056519,0,0
2620,2024 8 08,15:40:31.237,0.786975,-0.05058,-0.611967,0.059277,-1.758908,-0.718146,-0.449168,54.957821,124.635315,254.484207,0,0
2621,2024 8 08,15:40:31.245,0.781846,-0.033054,-0.620814,0.045947,-1.804258,-0.830413,-0.438008,57.622017,120.887383,250.211548,0,0
2622,2024 8 08,15:40:31.253,0.77652,-0.015837,-0.628942,0.033052,-1.787041,-0.930132,-0.401348,57.679363,115.66436,244.198105,0,0
2623,2024 8 08,15:40:31.262,0.770983,0.000679,-0.636439,0.020547,-1.737736,-1.038773,-0.375772,53.381031,111.771187,235.559509,0,0
2624,2024 8 08,15:40:31.270,0.765251,0.015898,-0.643399,0.008482,-1.656439,-1.162328,-0.396065,43.418373,107.959396,221.458527,0,0
2625,2024 8 08,15:40:31.278,0.764033,0.019083,-0.644858,0.00594,-1.638347,-1.188896,-0.401711,41.152428,107.148323,218.315598,0,0
