frame,date,time,quaternion_x,quaternion_y,quaternion_z,quaternion_w,accel_x,accel_y,accel_z,gyro_x,gyro_y,gyro_z,HS,TO
1706,2024 8 08,15:40:23.620,0.825599,-0.222124,-0.494861,-0.155435,-1.047444,-0.097146,0.000856,-0.183617,0.099321,0.16726,0,0
1707,2024 8 08,15:40:23.629,0.825502,-0.222085,-0.495022,-0.155494,-1.047082,-0.099885,-0.000781,-0.114271,0.239399,0.178493,0,0
1708,2024 8 08,15:40:23.637,0.8254,-0.222053,-0.495186,-0.15556,-1.045322,-0.098593,0.002829,-0.199534,0.248509,0.193298,0,0
1709,2024 8 08,15:40:23.645,0.825303,-0.222017,-0.495344,-0.155622,-1.047711,-0.0953,0.005031,-0.182419,0.287804,0.270878,0,0
1710,2024 8 08,15:40:23.654,0.825217,-0.221983,-0.495486,-0.155672,-1.050174,-0.092564,-9.5e-05,-0.141022,0.29972,0.294405,0,0
1711,2024 8 08,15:40:23.662,0.825182,-0.221969,-0.495544,-0.155694,-1.050446,-0.092207,-0.001195,-0.156164,0.320224,0.296114,0,0
1712,2024 8 08,15:40:23.670,0.825108,-0.221944,-0.495662,-0.155744,-1.047503,-0.095345,0.001309,-0.34373,0.455236,0.261215,0,0
1713,2024 8 08,15:40:23.679,0.825026,-0.221921,-0.495789,-0.155809,-1.047414,-0.09712,0.00079,-0.428811,0.628448,0.24987,0,0
1714,2024 8 08,15:40:23.687,0.824904,-0.221895,-0.495973,-0.155904,-1.050288,-0.09717,0.003867,-0.367005,0.610581,0.244213,0,0
1715,2024 8 08,15:40:23.695,0.824809,-0.22188,-0.496114,-0.155982,-1.050799,-0.092898,0.006279,-0.662935,0.432337,0.184802,0,0
1716,2024 8 08,15:40:23.704,0.82472,-0.221839,-0.496254,-0.156067,-1.048942,-0.090911,0.000734,-0.203452,0.66125,-0.109058,0,0
1717,2024 8 08,15:40:23.712,0.824716,-0.221838,-0.49626,-0.156071,-1.048865,-0.090828,0.000502,-0.184257,0.670813,-0.121334,0,0
1718,2024 8 08,15:40:23.720,0.824633,-0.221766,-0.496404,-0.15615,-1.045229,-0.096271,0.005936,0.100507,0.671346,-0.235496,0,0
1719,2024 8 08,15:40:23.729,0.824541,-0.221691,-0.496561,-0.156243,-1.048108,-0.094859,0.003182,-0.047501,0.503619,-0.243416,0,0
1720,2024 8 08,15:40:23.737,0.824445,-0.221622,-0.496725,-0.15633,-1.054521,-0.096947,0.000308,0.05053,0.379511,-0.244071,0,0
1721,2024 8 08,15:40:23.745,0.82435,-0.22154,-0.496891,-0.15642,-1.047305,-0.096712,0.005687,0.00553,0.422022,-0.298489,0,0
1722,2024 8 08,15:40:23.754,0.824254,-0.22146,-0.497057,-0.156508,-1.046098,-0.099259,-0.000594,0.054278,0.480215,-0.304362,0,0
1723,2024 8 08,15:40:23.762,0.824243,-0.22145,-0.497077,-0.156518,-1.045953,-0.099565,-0.001348,0.060132,0.487203,-0.305067,0,0
1724,2024 8 08,15:40:23.770,0.824154,-0.221397,-0.497227,-0.156586,-1.047603,-0.097102,-0.000613,0.008739,0.383795,-0.148666,0,0
1725,2024 8 08,15:40:23.779,0.82405,-0.221345,-0.497401,-0.15665,-1.045781,-0.094689,0.003198,0.001369,0.1116,0.079656,0,0
1726,2024 8 08,15:40:23.787,0.823942,-0.221291,-0.497583,-0.156721,-1.046312,-0.097161,0.007852,-0.10137,0.018715,0.013358,0,0
1727,2024 8 08,15:40:23.795,0.823822,-0.221238,-0.497784,-0.156787,-1.045196,-0.09396,0.007017,-0.118376,-0.247378,-0.097903,0,0
1728,2024 8 08,15:40:23.804,0.823699,-0.221183,-0.497993,-0.156845,-1.046584,-0.096168,-0.000258,-0.071868,-0.294256,-0.018496,0,0
1729,2024 8 08,15:40:23.812,0.823676,-0.221172,-0.498032,-0.156856,-1.046843,-0.09658,-0.001616,-0.063192,-0.303001,-0.003683,0,0
1730,2024 8 08,15:40:23.820,0.823568,-0.22113,-0.498215,-0.156905,-1.048052,-0.097434,0.003138,-0.061486,-0.304721,-0.097316,0,0
1731,2024 8 08,15:40:23.829,0.823444,-0.221078,-0.498427,-0.156957,-1.046013,-0.097991,-0.000458,-0.061134,-0.352757,-0.021293,0,0
1732,2024 8 08,15:40:23.837,0.823311,-0.221027,-0.498653,-0.157007,-1.04821,-0.099242,0.001026,-0.061058,-0.504445,-0.004861,0,0
1733,2024 8 08,15:40:23.845,0.823176,-0.220981,-0.498879,-0.157062,-1.046472,-0.096174,0.003594,-0.154115,-0.538658,-0.001155,0,0
1734,2024 8 08,15:40:23.854,0.823043,-0.220942,-0.499102,-0.157107,-1.048639,-0.097293,0.004197,-0.175957,-1.09139,-0.297324,0,0
1735,2024 8 08,15:40:23.862,0.822911,-0.220906,-0.499321,-0.157149,-1.048804,-0.09902,0.001436,-0.090384,-0.469494,0.262398,0,0
1736,2024 8 08,15:40:23.870,0.822878,-0.220897,-0.499377,-0.15716,-1.048845,-0.099456,0.000738,-0.068783,-0.438399,0.293883,0,0
1737,2024 8 08,15:40:23.879,0.822766,-0.220875,-0.499558,-0.157199,-1.048146,-0.099925,0.001978,-0.151962,-0.607917,0.213283,0,0
1738,2024 8 08,15:40:23.887,0.82264,-0.220852,-0.49976,-0.15725,-1.044444,-0.097944,0.006175,-0.349989,-0.521856,0.147669,0,0
1739,2024 8 08,15:40:23.895,0.822505,-0.220836,-0.499973,-0.157299,-1.043417,-0.093921,0.00734,-0.361528,-0.584804,0.21629,0,0
1740,2024 8 08,15:40:23.904,0.822366,-0.220821,-0.500196,-0.15734,-1.044498,-0.09552,0.00252,-0.364822,-0.73158,0.235881,0,0
1741,2024 8 08,15:40:23.912,0.822226,-0.220798,-0.500429,-0.157363,-1.045834,-0.093611,-0.001272,-0.153462,-0.774631,0.369023,0,0
1742,2024 8 08,15:40:23.920,0.822184,-0.220791,-0.500499,-0.15737,-1.046237,-0.093037,-0.002413,-0.089852,-0.787587,0.409094,0,0
1743,2024 8 08,15:40:23.929,0.822081,-0.500739,-0.203489,-0.178983,-1.05168,-0.094189,-0.001767,0.054437,-0.625359,0.463009,0,0
1744,2024 8 08,15:40:23.937,0.821963,-0.22072,-0.500882,-0.157405,-1.050767,-0.096856,-0.002879,0.141114,-0.491901,0.192221,0,0
1745,2024 8 08,15:40:23.945,0.821853,-0.220652,-0.501084,-0.157433,-1.051449,-0.098693,0.000667,0.331846,-0.164006,0.145459,0,0
1746,2024 8 08,15:40:23.954,0.821785,-0.220605,-0.50121,-0.157454,-1.051984,-0.099867,0.002886,0.434672,0.006879,0.089509,0,0
1747,2024 8 08,15:40:23.962,0.821685,-0.220512,-0.501398,-0.157504,-1.052967,-0.101526,0.004823,0.478976,0.075901,-0.084915,0,0
1748,2024 8 08,15:40:23.970,0.821602,-0.220437,-0.501555,-0.157544,-1.051365,-0.101564,-0.001226,0.429211,0.179034,0.114209,0,0
1749,2024 8 08,15:40:23.979,0.821586,-0.220422,-0.501585,-0.157553,-1.050491,-0.100627,-0.001014,0.427349,0.16725,0.082554,0,0
1750,2024 8 08,15:40:23.987,0.821488,-0.220333,-0.501768,-0.157607,-1.045074,-0.094849,0.002496,0.411841,0.044951,-0.165512,0,0
1751,2024 8 08,15:40:23.995,0.821379,-0.22024,-0.501971,-0.157658,-1.043652,-0.095152,0.006113,0.298491,-0.131537,-0.181703,0,0
1752,2024 8 08,15:40:24.004,0.821263,-0.220151,-0.502183,-0.157712,-1.047383,-0.092171,-0.001108,0.186334,-0.289052,-0.220407,0,0
1753,2024 8 08,15:40:24.012,0.821138,-0.220064,-0.502403,-0.157782,-1.052162,-0.092689,0.001512,0.195288,-0.266567,-0.504277,0,0
1754,2024 8 08,15:40:24.020,0.821036,-0.219956,-0.502595,-0.157853,-1.049681,-0.09535,0.00104,0.6152,-0.031459,-0.813162,0,0
1755,2024 8 08,15:40:24.029,0.821009,-0.219927,-0.502646,-0.157871,-1.048702,-0.095487,0.001904,0.678437,-0.047167,-0.849116,0,0
1756,2024 8 08,15:40:24.037,0.8209,-0.219797,-0.50286,-0.157936,-1.044851,-0.094701,0.007756,0.812558,-0.363461,-0.839565,0,0
1757,2024 8 08,15:40:24.045,0.82078,-0.219637,-0.503111,-0.157986,-1.048078,-0.096099,0.006988,1.124677,-0.668895,-0.797757,0,0
1758,2024 8 08,15:40:24.054,0.820659,-0.219434,-0.503381,-0.158036,-1.046845,-0.09394,0.000157,1.668118,-0.643392,-1.120873,0,0
1759,2024 8 08,15:40:24.062,0.820548,-0.219183,-0.503659,-0.15807,-1.04301,-0.09003,0.00523,2.090948,-0.485535,-1.297091,0,0
1760,2024 8 08,15:40:24.070,0.820456,-0.21894,-0.50391,-0.15809,-1.045786,-0.091073,0.003357,2.078121,-0.587166,-1.28459,0,0
1761,2024 8 08,15:40:24.079,0.820426,-0.218866,-0.503989,-0.158097,-1.046507,-0.093016,0.001899,2.122213,-0.645615,-1.282297,0,0
1762,2024 8 08,15:40:24.087,0.820322,-0.218636,-0.50425,-0.15812,-1.047725,-0.104194,-0.003746,2.41098,-0.947673,-1.30151,0,0
1763,2024 8 08,15:40:24.095,0.820189,-0.218385,-0.504563,-0.158161,-1.044972,-0.103985,0.006011,2.354622,-1.289841,-1.429586,0,0
1764,2024 8 08,15:40:24.104,0.820036,-0.218133,-0.504908,-0.158199,-1.036392,-0.098349,0.009594,2.176537,-1.643936,-1.431326,0,0
1765,2024 8 08,15:40:24.112,0.819864,-0.217878,-0.505296,-0.158201,-1.037915,-0.094276,0.007029,2.385548,-2.289608,-1.282774,0,0
1766,2024 8 08,15:40:24.120,0.819689,-0.21764,-0.505688,-0.15818,-1.039545,-0.089819,0.00356,2.473939,-2.958229,-1.328144,0,0
1767,2024 8 08,15:40:24.129,0.819626,-0.217552,-0.505832,-0.158171,-1.040678,-0.088794,0.001984,2.526074,-3.119344,-1.351411,0,0
1768,2024 8 08,15:40:24.137,0.819453,-0.217305,-0.506229,-0.158137,-1.046566,-0.089533,-0.0046,2.819362,-3.171777,-1.483958,0,0
1769,2024 8 08,15:40:24.145,0.819252,-0.21699,-0.506698,-0.158108,-1.052595,-0.09539,-0.015039,3.464807,-3.226249,-1.892793,0,0
1770,2024 8 08,15:40:24.154,0.819042,-0.216621,-0.507196,-0.158105,-1.04648,-0.105392,-0.012166,3.672632,-3.04792,-2.397153,0,0
1771,2024 8 08,15:40:24.162,0.818813,-0.216296,-0.507692,-0.158147,-1.048366,-0.107069,-0.008079,2.809188,-3.254366,-2.420517,0,0
1772,2024 8 08,15:40:24.170,0.818594,-0.216007,-0.508152,-0.1582,-1.039065,-0.104563,-0.005134,2.93732,-3.499082,-2.650663,0,0
1773,2024 8 08,15:40:24.179,0.818502,-0.215898,-0.50834,-0.15822,-1.037603,-0.103742,-0.003724,2.865139,-3.656697,-2.677295,0,0
1774,2024 8 08,15:40:24.187,0.818267,-0.215684,-0.508795,-0.158262,-1.044309,-0.10378,0.000424,2.202387,-4.324545,-2.424424,0,0
1775,2024 8 08,15:40:24.195,0.817968,-0.21545,-0.509363,-0.158297,-1.043597,-0.108776,0.001062,2.256318,-5.020288,-2.282761,0,0
1776,2024 8 08,15:40:24.204,0.817634,-0.215253,-0.509973,-0.15833,-1.054003,-0.106623,-0.01026,1.772656,-5.336502,-2.071137,0,0
1777,2024 8 08,15:40:24.212,0.817295,-0.21508,-0.510574,-0.158375,-1.050917,-0.124981,-0.036027,1.13658,-5.100367,-2.029701,0,0
1778,2024 8 08,15:40:24.220,0.816848,-0.214883,-0.511352,-0.158439,-1.052761,-0.112766,-0.01267,0.612051,-4.457649,-1.588344,0,0
1779,2024 8 08,15:40:24.229,0.816847,-0.214882,-0.511355,-0.158439,-1.052766,-0.112796,-0.012695,0.610383,-4.455605,-1.586941,0,0
1780,2024 8 08,15:40:24.237,0.816543,-0.214826,-0.511831,-0.158543,-1.044744,-0.109493,-0.016471,-0.274487,-3.865674,-1.468936,0,0
1781,2024 8 08,15:40:24.245,0.816244,-0.214797,-0.512288,-0.158646,-1.046803,-0.107989,-0.000325,-0.478023,-3.671877,-1.232614,0,0
1782,2024 8 08,15:40:24.254,0.815972,-0.214761,-0.512706,-0.158746,-1.043694,-0.10059,-0.01147,-0.430395,-3.204718,-1.164192,0,0
1783,2024 8 08,15:40:24.262,0.815716,-0.2147,-0.51311,-0.158839,-1.051629,-0.093819,-0.01486,-0.03256,-2.442734,-1.385681,0,0
1784,2024 8 08,15:40:24.270,0.815484,-0.214599,-0.513488,-0.158947,-1.050441,-0.097763,-0.014223,-0.002894,-2.163476,-1.735855,0,0
1785,2024 8 08,15:40:24.279,0.815463,-0.21459,-0.513521,-0.158957,-1.050337,-0.098108,-0.014167,-0.000295,-2.139003,-1.766543,0,0
1786,2024 8 08,15:40:24.287,0.815268,-0.214485,-0.513837,-0.159078,-1.055949,-0.099008,-0.014594,0.054027,-1.704059,-1.769622,0,0
1787,2024 8 08,15:40:24.295,0.81508,-0.214331,-0.514153,-0.159225,-1.053169,-0.103802,-0.012509,0.220105,-1.335132,-1.983244,0,0
1788,2024 8 08,15:40:24.304,0.814918,-0.214164,-0.514433,-0.159379,-1.047352,-0.114498,-0.010145,0.556395,-0.605369,-1.7995,0,0
1789,2024 8 08,15:40:24.312,0.814759,-0.214053,-0.51468,-0.159542,-1.046143,-0.103918,-0.001935,-0.072343,-0.713392,-1.411182,0,0
1790,2024 8 08,15:40:24.320,0.814621,-0.213944,-0.514897,-0.159692,-1.03859,-0.104812,-0.008095,-0.3189,-0.268479,-1.302578,0,0
1791,2024 8 08,15:40:24.329,0.814481,-0.213853,-0.515119,-0.159811,-1.042242,-0.108998,-0.01514,-0.105366,-0.248325,-0.880984,0,0
1792,2024 8 08,15:40:24.337,0.814458,-0.213837,-0.515157,-0.159831,-1.042862,-0.109708,-0.016335,-0.069128,-0.244904,-0.809436,0,0
1793,2024 8 08,15:40:24.345,0.814335,-0.213814,-0.515324,-0.159947,-1.047309,-0.107077,-0.020097,-0.850751,-0.195028,-0.69802,0,0
1794,2024 8 08,15:40:24.354,0.814204,-0.213813,-0.515491,-0.160079,-1.047767,-0.102685,-0.009918,-0.99966,0.057686,-0.530867,0,0
1795,2024 8 08,15:40:24.362,0.814084,-0.213807,-0.515634,-0.160234,-1.056314,-0.07463,0.048549,-1.173643,0.540728,-0.593429,0,0
1796,2024 8 08,15:40:24.370,0.813976,-0.213793,-0.515751,-0.160426,-1.052417,-0.099266,-0.015393,-1.257684,0.879579,-0.93876,0,0
1797,2024 8 08,15:40:24.379,0.813881,-0.213766,-0.515843,-0.160649,-1.053061,-0.101032,-0.020072,-1.416801,1.375995,-1.249078,0,0
1798,2024 8 08,15:40:24.387,0.813859,-0.21376,-0.515864,-0.1607,-1.053208,-0.101437,-0.021144,-1.453262,1.489746,-1.320186,0,0
1799,2024 8 08,15:40:24.395,0.813797,-0.213726,-0.515914,-0.160901,-1.053609,-0.105196,-0.018836,-1.461948,1.883045,-1.382901,0,0
1800,2024 8 08,15:40:24.404,0.81374,-0.213674,-0.515953,-0.16113,-1.056966,-0.10902,-0.012837,-1.05692,2.025474,-1.172191,0,0
1801,2024 8 08,15:40:24.412,0.813701,-0.213617,-0.515957,-0.161388,-1.058898,-0.108567,-0.01166,-1.400526,2.464389,-1.341897,0,0
1802,2024 8 08,15:40:24.420,0.813678,-0.213553,-0.515932,-0.161674,-1.046322,-0.107386,-0.01241,-1.402904,3.066699,-1.563588,0,0
1803,2024 8 08,15:40:24.429,0.813671,-0.213465,-0.51589,-0.161956,-1.04814,-0.111611,-0.009817,-1.010131,3.449419,-1.624008,0,0
1804,2024 8 08,15:40:24.437,0.813669,-0.21344,-0.515878,-0.162035,-1.04865,-0.112796,-0.009089,-0.899903,3.556825,-1.640964,0,0
1805,2024 8 08,15:40:24.445,0.81367,-0.213342,-0.515846,-0.162262,-1.049823,-0.102194,-0.002381,-0.868096,3.374065,-1.902361,0,0
1806,2024 8 08,15:40:24.454,0.813693,-0.213211,-0.515783,-0.16252,-1.048141,-0.110554,-0.008512,-0.774101,3.827333,-1.810675,0,0
1807,2024 8 08,15:40:24.462,0.813725,-0.213057,-0.515707,-0.162803,-1.044953,-0.096641,0.006908,-0.494559,4.090566,-1.908301,0,0
1808,2024 8 08,15:40:24.470,0.813758,-0.212902,-0.515623,-0.163104,-1.051575,-0.111345,0.001087,-0.366151,4.172513,-2.062844,0,0
1809,2024 8 08,15:40:24.479,0.813815,-0.212717,-0.515516,-0.1634,-1.049098,-0.076117,0.017659,-0.325244,4.403355,-1.989236,0,0
1810,2024 8 08,15:40:24.487,0.813834,-0.212656,-0.515481,-0.163496,-1.048292,-0.097484,0.007222,-0.311921,4.478537,-1.965263,0,0
1811,2024 8 08,15:40:24.495,0.813851,-0.212599,-0.51545,-0.163582,-1.047889,-0.109967,-0.005101,-0.20762,4.540483,-1.953295,0,0
1812,2024 8 08,15:40:24.504,0.813914,-0.212397,-0.515346,-0.163861,-1.047948,-0.113406,-0.003275,0.32068,4.655021,-1.985183,0,0
1813,2024 8 08,15:40:24.512,0.813977,-0.212196,-0.515232,-0.164167,-1.048227,-0.10077,0.023952,-0.219507,4.469035,-2.156445,0,0
1814,2024 8 08,15:40:24.520,0.814055,-0.211998,-0.515098,-0.164456,-1.048376,-0.110987,-0.008726,-0.3127,4.944439,-1.9882,0,0
1815,2024 8 08,15:40:24.529,0.814144,-0.48685,-0.251271,-0.192377,-1.053408,-0.109384,-0.009962,-0.774392,5.663829,-2.117979,0,0
1816,2024 8 08,15:40:24.537,0.814255,-0.211666,-0.514717,-0.165086,-1.048352,-0.114294,-0.023188,-0.903547,6.680584,-2.078827,0,0
1817,2024 8 08,15:40:24.545,0.814281,-0.211635,-0.514664,-0.16516,-1.048346,-0.114705,-0.020661,-0.99625,6.788007,-2.082996,0,0
1818,2024 8 08,15:40:24.554,0.814407,-0.211506,-0.514401,-0.165523,-1.050094,-0.113746,0.002906,-1.492292,6.968589,-2.167054,0,0
1819,2024 8 08,15:40:24.562,0.814555,-0.211347,-0.514098,-0.165938,-1.044844,-0.107692,0.008009,-1.28149,7.122801,-2.458407,0,0
1820,2024 8 08,15:40:24.570,0.814697,-0.21114,-0.513828,-0.166342,-1.045739,-0.10898,0.008205,-0.739275,6.757487,-2.82054,0,0
1821,2024 8 08,15:40:24.579,0.814825,-0.210907,-0.513591,-0.166743,-1.051074,-0.109253,0.00787,-0.619379,6.303401,-2.955992,0,0
1822,2024 8 08,15:40:24.587,0.814924,-0.210701,-0.513394,-0.167122,-1.052911,-0.116763,0.007822,-0.868854,6.23785,-3.242328,0,0
1823,2024 8 08,15:40:24.595,0.814951,-0.21064,-0.513341,-0.167231,-1.053581,-0.118315,0.007101,-0.859629,6.234515,-3.300588,0,0
1824,2024 8 08,15:40:24.604,0.81504,-0.210427,-0.513161,-0.167618,-1.055306,-0.120132,0.002909,-0.656469,6.304367,-3.430781,0,0
1825,2024 8 08,15:40:24.612,0.815144,-0.210202,-0.512935,-0.168086,-1.051228,-0.114926,0.00576,-1.302089,6.527913,-3.667657,0,0
1826,2024 8 08,15:40:24.620,0.815257,-0.209992,-0.512676,-0.168592,-1.055457,-0.114669,0.008953,-1.610419,6.961817,-3.758264,0,0
1827,2024 8 08,15:40:24.629,0.815407,-0.209743,-0.512362,-0.169129,-1.056344,-0.120561,-0.005366,-1.29341,7.936304,-4.107198,0,0
1828,2024 8 08,15:40:24.637,0.815551,-0.209515,-0.512056,-0.169645,-1.046312,-0.097161,0.007852,-1.474826,8.220738,-4.426692,0,0
1829,2024 8 08,15:40:24.645,0.815598,-0.209438,-0.511953,-0.169822,-1.044186,-0.115313,0.011352,-1.552358,8.269722,-4.540542,0,0
1830,2024 8 08,15:40:24.654,0.81573,-0.209213,-0.511666,-0.17033,-1.045234,-0.109024,0.022869,-1.660265,8.18154,-4.866599,0,0
1831,2024 8 08,15:40:24.662,0.815883,-0.208896,-0.511362,-0.170897,-1.054699,-0.115519,0.014744,-0.688706,8.066436,-5.099834,0,0
1832,2024 8 08,15:40:24.670,0.816048,-0.208513,-0.511057,-0.17149,-1.067064,-0.118913,0.00203,-0.200944,8.281305,-5.490652,0,0
1833,2024 8 08,15:40:24.679,0.816222,-0.208082,-0.510733,-0.172146,-1.069418,-0.117045,0.007708,-0.275183,8.879044,-6.295506,0,0
1834,2024 8 08,15:40:24.687,0.816372,-0.207681,-0.51044,-0.172789,-1.065123,-0.115022,0.00459,-0.563177,9.035465,-7.043261,0,0
1835,2024 8 08,15:40:24.695,0.81643,-0.20752,-0.510329,-0.17304,-1.063726,-0.113621,0.005978,-0.581634,9.11329,-7.351935,0,0
1836,2024 8 08,15:40:24.704,0.816572,-0.207085,-0.510058,-0.173682,-1.06057,-0.108393,0.01906,-0.229268,9.38932,-8.247864,0,0
1837,2024 8 08,15:40:24.712,0.816747,-0.206515,-0.509732,-0.174491,-1.051097,-0.111061,0.017567,-0.152721,9.630585,-9.427028,0,0
1838,2024 8 08,15:40:24.720,0.816914,-0.205854,-0.509429,-0.175374,-1.046351,-0.11456,0.038985,0.466018,9.405597,-10.35161,0,0
1839,2024 8 08,15:40:24.729,0.817048,-0.205104,-0.509197,-0.176301,-1.056017,-0.111371,0.033529,0.977018,8.405471,-11.541213,0,0
1840,2024 8 08,15:40:24.737,0.817142,-0.204375,-0.50904,-0.177161,-1.06676,-0.12762,0.009725,1.350378,8.16818,-12.160208,0,0
1841,2024 8 08,15:40:24.745,0.817172,-0.204071,-0.508986,-0.17753,-1.071403,-0.133205,0.00326,1.451835,7.970911,-12.383813,0,0
1842,2024 8 08,15:40:24.754,0.81717,-0.203444,-0.508944,-0.178376,-1.078361,-0.136637,0.008314,1.104384,7.018296,-12.91773,0,0
1843,2024 8 08,15:40:24.762,0.817068,-0.202487,-0.508959,-0.179887,-1.058809,-0.127047,0.01459,-1.682894,5.446838,-15.90224,0,0
1844,2024 8 08,15:40:24.770,0.816913,-0.201716,-0.509037,-0.181231,-1.089117,-0.128388,0.04037,-1.17247,4.777529,-16.941702,0,0
1845,2024 8 08,15:40:24.779,0.81666,-0.200957,-0.509194,-0.182766,-1.07155,-0.130297,0.033485,-2.333019,4.174976,-18.901953,0,0
1846,2024 8 08,15:40:24.787,0.816325,-0.200141,-0.509462,-0.184403,-1.080115,-0.128984,0.028597,-2.320068,2.765229,-20.595211,0,0
1847,2024 8 08,15:40:24.795,0.815931,-0.199259,-0.509806,-0.186143,-1.086487,-0.126183,0.044734,-2.660923,2.520147,-22.790617,0,0
1848,2024 8 08,15:40:24.804,0.815905,-0.199201,-0.509829,-0.186259,-1.08691,-0.125997,0.045806,-2.683556,2.503873,-22.936396,0,0
1849,2024 8 08,15:40:24.812,0.815427,-0.198336,-0.51028,-0.18803,-1.077653,-0.145891,0.02023,-2.298251,-0.096585,-24.828259,0,0
1850,2024 8 08,15:40:24.820,0.814804,-0.197384,-0.510914,-0.190003,-1.099478,-0.145116,0.034874,-3.025907,-0.773648,-26.257557,0,0
1851,2024 8 08,15:40:24.829,0.814126,-0.196358,-0.511582,-0.19216,-1.106076,-0.151918,0.018777,-3.962763,-1.167486,-28.827536,0,0
1852,2024 8 08,15:40:24.837,0.81331,-0.195336,-0.512371,-0.19454,-1.109396,-0.167566,0.004158,-5.186498,-2.592638,-31.038548,0,0
1853,2024 8 08,15:40:24.845,0.812457,-0.194349,-0.513109,-0.197129,-1.127406,-0.159963,0.024453,-7.908433,-1.207312,-33.155659,0,0
1854,2024 8 08,15:40:24.854,0.812336,-0.194211,-0.513213,-0.197494,-1.129943,-0.158892,0.027312,-8.291913,-1.01214,-33.45393,0,0
1855,2024 8 08,15:40:24.862,0.811563,-0.193326,-0.513791,-0.200022,-1.107096,-0.179923,-0.013012,-8.75784,-0.727707,-35.944778,0,0
1856,2024 8 08,15:40:24.870,0.810643,-0.19232,-0.514433,-0.203043,-1.146819,-0.179331,0.02225,-9.688736,0.626166,-37.658607,0,0
1857,2024 8 08,15:40:24.879,0.809695,-0.191245,-0.514983,-0.206416,-1.158093,-0.155795,0.026791,-11.53847,1.506901,-41.133778,0,0
1858,2024 8 08,15:40:24.887,0.808672,-0.18998,-0.51559,-0.210047,-1.188798,-0.151459,0.029981,-11.14406,1.669195,-45.352432,0,0
1859,2024 8 08,15:40:24.895,0.807706,-0.188383,-0.516102,-0.213908,-1.201351,-0.173464,-0.012385,-8.93749,5.524857,-48.738255,0,0
1860,2024 8 08,15:40:24.904,0.807508,-0.188057,-0.516207,-0.214697,-1.203917,-0.177961,-0.021043,-8.486551,6.312806,-49.430187,0,0
1861,2024 8 08,15:40:24.912,0.806787,-0.186476,-0.516388,-0.21831,-1.292125,-0.152852,0.000908,-10.515324,8.984581,-54.726215,0,0
1862,2024 8 08,15:40:24.920,0.805778,-0.184442,-0.516632,-0.223124,-1.295413,-0.167399,0.005067,-11.855288,11.121502,-63.002293,0,0
1863,2024 8 08,15:40:24.929,0.804776,-0.181948,-0.516648,-0.228673,-1.293228,-0.157136,0.021158,-12.997033,15.814514,-70.599358,0,0
1864,2024 8 08,15:40:24.937,0.803704,-0.179011,-0.516574,-0.234831,-1.300719,-0.157572,0.038535,-11.997164,18.22472,-78.951584,0,0
1865,2024 8 08,15:40:24.945,0.802561,-0.17555,-0.516437,-0.241548,-1.310162,-0.15696,0.040366,-10.710831,21.080362,-87.574295,0,0
1866,2024 8 08,15:40:24.954,0.802264,-0.174654,-0.516402,-0.243288,-1.312609,-0.156802,0.040841,-10.377537,21.820269,-89.808472,0,0
1867,2024 8 08,15:40:24.962,0.801205,-0.171336,-0.5163,-0.249255,-1.324532,-0.152886,0.055758,-9.540106,22.854502,-97.58075,0,0
1868,2024 8 08,15:40:24.970,0.799891,-0.166897,-0.516069,-0.256816,-1.335131,-0.165734,0.050817,-7.785921,27.056696,-107.035484,0,0
1869,2024 8 08,15:40:24.979,0.798414,-0.16171,-0.51567,-0.265359,-1.361209,-0.168346,0.023246,-7.589463,30.530172,-117.508484,0,0
1870,2024 8 08,15:40:24.987,0.796684,-0.155899,-0.515192,-0.274768,-1.388225,-0.175238,0.007033,-7.915291,33.586304,-129.288879,0,0
1871,2024 8 08,15:40:24.995,0.794659,-0.149512,-0.514568,-0.285119,-1.428986,-0.196839,-0.014325,-9.402323,36.690487,-142.372711,0,0
1872,2024 8 08,15:40:25.004,0.794037,-0.147553,-0.514377,-0.288295,-1.441491,-0.203466,-0.020878,-9.858541,37.642845,-146.38681,0,0
1873,2024 8 08,15:40:25.012,0.792145,-0.14196,-0.513632,-0.297435,-1.488283,-0.19137,-0.035795,-11.567947,41.733604,-157.456482,0,0
1874,2024 8 08,15:40:25.020,0.789496,-0.134751,-0.512721,-0.309088,-1.554214,-0.232506,-0.038958,-11.750264,43.170547,-171.82048,0,0
1875,2024 8 08,15:40:25.029,0.787715,-0.129974,-0.5121,-0.31675,-1.599367,-0.248967,-0.045911,-11.741826,44.907944,-181.157242,0,0
1876,2024 8 08,15:40:25.037,0.78424,-0.120969,-0.510775,-0.33075,-1.691562,-0.231611,-0.088034,-10.926861,52.668465,-197.333023,0,0
1877,2024 8 08,15:40:25.045,0.780516,-0.110831,-0.508825,-0.345757,-1.777372,-0.285106,-0.136137,-9.664252,62.307228,-212.704651,0,0
1878,2024 8 08,15:40:25.054,0.777029,-0.10119,-0.506658,-0.359535,-1.795968,-0.348769,-0.112087,-9.470472,71.369652,-226.229187,0,0
1879,2024 8 08,15:40:25.062,0.776297,-0.099152,-0.506131,-0.362367,-1.797549,-0.360822,-0.110736,-9.499739,73.092155,-228.80188,0,0
1880,2024 8 08,15:40:25.070,0.772082,-0.087488,-0.502954,-0.378388,-1.799681,-0.434924,-0.092903,-9.493781,81.875244,-242.258514,0,0
1881,2024 8 08,15:40:25.079,0.767229,-0.074605,-0.499103,-0.395692,-1.772045,-0.543828,-0.000489,-8.238693,87.237312,-251.462357,0,0
1882,2024 8 08,15:40:25.087,0.762073,-0.061284,-0.494452,-0.413368,-1.685217,-0.527059,-0.064241,-10.544167,93.840973,-256.083832,0,0
1883,2024 8 08,15:40:25.095,0.756436,-0.047905,-0.489439,-0.43106,-1.670882,-0.476109,0.017162,-12.667536,94.575485,-258.550018,0,0
1884,2024 8 08,15:40:25.104,0.751414,-0.03591,-0.484491,-0.446402,-1.584875,-0.517846,0.06695,-11.573372,101.843773,-257.586945,0,0
1885,2024 8 08,15:40:25.112,0.750091,-0.032748,-0.483143,-0.450323,-1.554172,-0.526446,0.071219,-11.016712,102.906647,-257.089386,0,0
1886,2024 8 08,15:40:25.120,0.744801,-0.020262,-0.477693,-0.465325,-1.406886,-0.541104,0.047984,-7.987098,102.970741,-254.25975,0,0
1887,2024 8 08,15:40:25.129,0.738511,-0.006746,-0.471931,-0.481315,-1.25888,-0.479086,-0.041933,-6.150306,95.076317,-251.039307,0,0
1888,2024 8 08,15:40:25.137,0.731443,0.006138,-0.466423,-0.497214,-1.117391,-0.35654,-0.157045,-10.779032,82.819153,-248.108215,0,0
1889,2024 8 08,15:40:25.145,0.72349,0.017696,-0.461228,-0.513159,-0.921932,-0.252373,-0.219322,-21.834255,67.072189,-246.462997,0,0
1890,2024 8 08,15:40:25.154,0.715757,0.026764,-0.456767,-0.527462,-0.645159,-0.24338,-0.340904,-33.411121,52.560448,-243.016037,0,0
1891,2024 8 08,15:40:25.162,0.713225,0.029361,-0.455431,-0.531935,-0.568226,-0.251015,-0.35145,-36.671165,47.096233,-241.449738,0,0
1892,2024 8 08,15:40:25.170,0.704958,0.035893,-0.451684,-0.545517,-0.308718,-0.274016,-0.311795,-46.982685,26.698687,-233.921127,0,0
1893,2024 8 08,15:40:25.179,0.695323,0.040827,-0.447735,-0.560567,0.322807,-0.027555,-0.585052,-70.115524,3.806395,-212.887039,0,0
1894,2024 8 08,15:40:25.187,0.687196,0.040578,-0.444215,-0.573291,0.254606,0.145695,-0.717018,-88.420471,-33.52314,-134.56282,0,0
1895,2024 8 08,15:40:25.195,0.681277,0.033184,-0.443748,-0.581171,-0.697423,0.430027,0.20348,-107.567673,-82.102142,-44.671417,0,0
1896,2024 8 08,15:40:25.204,0.680037,0.025057,-0.44225,-0.584198,-0.663297,0.711852,-0.2808,-95.019951,-44.0019,26.204918,0,0
1897,2024 8 08,15:40:25.212,0.680131,0.022091,-0.44168,-0.58466,-0.667893,0.788448,-0.340738,-88.933884,-33.379471,49.246948,0,0
1898,2024 8 08,15:40:25.220,0.683376,0.014642,-0.440047,-0.582319,-0.746189,0.834077,0.006567,-65.047134,-19.349932,92.288422,0,0
1899,2024 8 08,15:40:25.229,0.689366,0.008014,-0.438023,-0.576868,-0.709966,0.73472,-0.014309,-33.491913,9.248116,120.490265,0,0
1900,2024 8 08,15:40:25.237,0.696663,0.003073,-0.436543,-0.569204,-0.533855,0.66374,-0.057666,-3.180744,19.703838,134.615463,0,0
1901,2024 8 08,15:40:25.245,0.704301,-0.000631,-0.436326,-0.559885,-0.346706,0.598491,-0.13843,23.125769,15.469749,143.730637,0,0
1902,2024 8 08,15:40:25.254,0.711714,-0.003902,-0.437947,-0.549108,-0.327787,0.519058,-0.132158,44.494919,0.729048,152.71019,0,0
1903,2024 8 08,15:40:25.262,0.718228,-0.006797,-0.440731,-0.538276,-0.384133,0.465657,-0.152217,60.083687,-12.745259,161.624054,0,0
1904,2024 8 08,15:40:25.270,0.720868,-0.008002,-0.442051,-0.533668,-0.414582,0.444559,-0.158777,65.853561,-17.820379,165.474304,0,0
1905,2024 8 08,15:40:25.279,0.726497,-0.010765,-0.445985,-0.52254,-0.51735,0.400079,-0.163908,74.701019,-26.045467,174.846222,0,0
1906,2024 8 08,15:40:25.287,0.733068,-0.014179,-0.451115,-0.508623,-0.610963,0.329169,-0.169527,81.312813,-31.961117,184.816589,0,0
1907,2024 8 08,15:40:25.295,0.739929,-0.018011,-0.456703,-0.493292,-0.659766,0.229588,-0.189139,83.986229,-35.542561,193.378494,0,0
1908,2024 8 08,15:40:25.304,0.749251,-0.023879,-0.464547,-0.471418,-0.689983,0.089573,-0.213497,81.580215,-42.374702,202.856201,0,0
1909,2024 8 08,15:40:25.312,0.755696,-0.029542,-0.470419,-0.454691,-0.704169,0.002237,-0.215756,71.778008,-51.35553,208.917328,0,0
1910,2024 8 08,15:40:25.320,0.755888,-0.02971,-0.470594,-0.454192,-0.704592,-0.000366,-0.215824,71.485878,-51.623184,209.097977,0,0
1911,2024 8 08,15:40:25.329,0.761468,-0.03659,-0.47622,-0.438199,-0.743669,-0.060677,-0.2218,57.630623,-63.064995,215.136841,0,0
1912,2024 8 08,15:40:25.337,0.766652,-0.045539,-0.482144,-0.421514,-0.828803,-0.102217,-0.193168,40.864616,-76.69101,222.732422,0,0
1913,2024 8 08,15:40:25.345,0.771212,-0.056387,-0.488012,-0.404787,-0.946478,-0.104746,-0.154966,23.876169,-88.043266,230.193985,0,0
1914,2024 8 08,15:40:25.354,0.775219,-0.068882,-0.493594,-0.388071,-1.094168,-0.09528,-0.08001,7.421976,-95.220238,236.381165,0,0
1915,2024 8 08,15:40:25.362,0.77876,-0.082579,-0.498687,-0.371423,-1.213132,-0.098695,-0.024975,-5.733866,-98.143768,240.509613,0,0
1916,2024 8 08,15:40:25.370,0.779149,-0.084086,-0.499247,-0.369592,-1.226217,-0.099071,-0.018922,-7.180871,-98.465324,240.963699,0,0
1917,2024 8 08,15:40:25.379,0.781906,-0.097129,-0.503184,-0.354865,-1.305471,-0.081813,0.031619,-15.956506,-97.766014,243.023804,0,0
1918,2024 8 08,15:40:25.387,0.784671,-0.111962,-0.507007,-0.338529,-1.36105,-0.069093,0.06878,-22.075632,-96.63147,245.901917,0,0
1919,2024 8 08,15:40:25.395,0.787088,-0.127307,-0.510499,-0.321808,-1.44555,-0.084091,0.11609,-25.173225,-97.288345,248.528564,0,0
1920,2024 8 08,15:40:25.404,0.789144,-0.142685,-0.513636,-0.304862,-1.483914,-0.101036,0.077669,-26.367537,-96.123924,249.699875,0,0
1921,2024 8 08,15:40:25.412,0.790697,-0.158124,-0.516621,-0.28767,-1.584402,-0.132693,0.092455,-26.067039,-99.331451,250.446259,0,0
1922,2024 8 08,15:40:25.420,0.790974,-0.160871,-0.517152,-0.284611,-1.602282,-0.138326,0.095086,-26.013573,-99.902176,250.579071,0,0
1923,2024 8 08,15:40:25.429,0.791709,-0.173607,-0.51965,-0.270036,-1.684476,-0.210799,0.092069,-23.223173,-101.424179,246.701843,0,0
1924,2024 8 08,15:40:25.437,0.792028,-0.187733,-0.522579,-0.253394,-1.761284,-0.319979,0.090315,-20.35746,-103.797462,241.69368,0,0
1925,2024 8 08,15:40:25.445,0.791759,-0.201671,-0.525723,-0.23641,-1.828282,-0.512865,0.104796,-16.95359,-107.098831,236.321213,0,0
1926,2024 8 08,15:40:25.454,0.79089,-0.215159,-0.52897,-0.219562,-1.875964,-0.715443,0.120735,-15.3193,-109.885948,230.403763,0,0
1927,2024 8 08,15:40:25.462,0.789399,-0.228101,-0.532318,-0.203152,-1.910944,-0.893725,0.15408,-14.901705,-112.005112,221.350235,0,0
1928,2024 8 08,15:40:25.470,0.789047,-0.231159,-0.533109,-0.199275,-1.919208,-0.935842,0.161957,-14.803053,-112.505745,219.211441,0,0
1929,2024 8 08,15:40:25.479,0.787183,-0.240897,-0.536023,-0.186778,-1.937926,-1.072087,0.219409,-14.143847,-114.034599,205.805237,0,0
1930,2024 8 08,15:40:25.487,0.784517,-0.251322,-0.539638,-0.173267,-1.897483,-1.259119,0.295689,-13.348801,-113.974388,185.588638,0,0
1931,2024 8 08,15:40:25.495,0.781305,-0.260843,-0.543661,-0.160669,-1.80957,-1.491521,0.378468,-11.677526,-112.98349,162.554688,0,0
1932,2024 8 08,15:40:25.504,0.77765,-0.269006,-0.548095,-0.14953,-1.674281,-1.698882,0.501498,-9.077765,-112.320824,137.69426,0,0
1933,2024 8 08,15:40:25.512,0.773741,-0.275718,-0.552809,-0.139995,-1.475695,-1.854817,0.645704,-6.619448,-109.146019,113.254883,0,0
1934,2024 8 08,15:40:25.520,0.772619,-0.277643,-0.554162,-0.137261,-1.418737,-1.899542,0.687065,-5.914349,-108.235413,106.24514,0,0
1935,2024 8 08,15:40:25.529,0.769337,-0.28159,-0.558178,-0.131221,-1.258852,-1.959855,0.816921,-4.477388,-107.416107,88.623848,0,0
1936,2024 8 08,15:40:25.537,0.7653,-0.285391,-0.563169,-0.125101,-1.193758,-2.036115,0.942713,-3.414157,-105.868675,70.761292,0,0
1937,2024 8 08,15:40:25.545,0.761336,-0.28848,-0.568055,-0.120033,-1.163644,-2.111834,1.020164,-4.661196,-93.027946,53.531784,0,0
1938,2024 8 08,15:40:25.554,0.757977,-0.290758,-0.572084,-0.116671,-1.128487,-2.187059,1.006297,-8.668272,-71.842743,36.044769,0,0
1939,2024 8 08,15:40:25.562,0.755481,-0.292422,-0.57482,-0.115319,-1.051458,-2.260504,0.903676,-16.384033,-45.440903,20.304607,0,0
1940,2024 8 08,15:40:25.570,0.754239,-0.293249,-0.57618,-0.114647,-1.013135,-2.297043,0.852622,-20.222673,-32.305817,12.473774,0,0
1941,2024 8 08,15:40:25.579,0.754049,-0.293453,-0.576281,-0.11487,-0.999486,-2.281664,0.828741,-22.208405,-29.105726,10.920886,0,0
1942,2024 8 08,15:40:25.587,0.752244,-0.295017,-0.577357,-0.117224,-1.143303,-2.213993,0.987559,-44.430553,-18.810654,-9.561152,0,0
1943,2024 8 08,15:40:25.595,0.748428,-0.29707,-0.579624,-0.1249,-2.368278,-2.167163,2.250811,-106.264297,-37.326584,-79.321541,1,0
1944,2024 8 08,15:40:25.604,0.751752,-0.297149,-0.571942,-0.139286,-1.099341,-0.424992,-1.558976,-104.467125,183.545959,-73.624802,0,0
1945,2024 8 08,15:40:25.612,0.752322,-0.300498,-0.565901,-0.153086,-1.183385,0.810025,0.362643,-122.442017,71.584999,-69.925797,0,0
1946,2024 8 08,15:40:25.620,0.751439,-0.302064,-0.564215,-0.160464,-1.461117,0.36067,-0.519234,-60.794533,38.894108,-59.118237,0,0
1947,2024 8 08,15:40:25.629,0.751561,-0.30181,-0.563772,-0.161926,-1.441423,0.296418,-0.536939,-48.479591,39.726612,-58.967201,0,0
1948,2024 8 08,15:40:25.637,0.753316,-0.298374,-0.56167,-0.16733,-1.14123,0.107529,-0.127197,2.030975,65.045395,-63.462986,0,0
1949,2024 8 08,15:40:25.645,0.756876,-0.291508,-0.55948,-0.170649,-1.030182,-0.206891,-0.044025,57.119011,72.090843,-56.171764,0,0
1950,2024 8 08,15:40:25.654,0.761062,-0.284378,-0.556825,-0.172738,-0.93424,-0.357065,0.121634,53.478291,71.675194,-41.19635,0,0
1951,2024 8 08,15:40:25.662,0.764653,-0.279375,-0.553738,-0.174965,-0.968867,-0.087519,0.236412,30.133263,67.344444,-30.183781,0,0
1952,2024 8 08,15:40:25.670,0.767682,-0.275276,-0.551097,-0.176551,-1.024165,-0.111038,-0.036844,36.153511,62.236431,-27.001505,0,0
1953,2024 8 08,15:40:25.679,0.768492,-0.274112,-0.550434,-0.176917,-1.027966,-0.123754,-0.069336,37.04604,59.646103,-25.813828,0,0
1954,2024 8 08,15:40:25.687,0.770859,-0.270424,-0.54868,-0.177733,-0.993419,-0.176375,0.012793,35.488503,47.284115,-20.779911,0,0
1955,2024 8 08,15:40:25.695,0.773028,-0.267089,-0.54703,-0.178445,-0.976575,0.229736,0.018852,27.250614,38.6007,-15.506018,0,0
1956,2024 8 08,15:40:25.704,0.774734,-0.264531,-0.545657,-0.179064,-0.986157,-0.099353,0.007119,19.6658,29.311886,-11.78794,0,0
1957,2024 8 08,15:40:25.712,0.77595,-0.262483,-0.544761,-0.179545,-1.001858,-0.100861,-0.041393,16.779882,21.454298,-10.164145,0,0
1958,2024 8 08,15:40:25.720,0.77687,-0.260714,-0.544142,-0.180021,-1.022717,-0.134568,-0.066491,13.753525,17.919735,-9.862467,0,0
1959,2024 8 08,15:40:25.729,0.777498,-0.259438,-0.543672,-0.180579,-1.05126,-0.117941,-0.036967,9.728971,15.514592,-9.83512,0,0
1960,2024 8 08,15:40:25.737,0.777704,-0.259017,-0.543511,-0.180781,-1.057825,-0.11371,-0.032864,8.565142,14.847182,-9.816279,0,0
1961,2024 8 08,15:40:25.745,0.778169,-0.258044,-0.543111,-0.18137,-1.059574,-0.111563,-0.048915,6.502639,13.86842,-9.763755,0,0
1962,2024 8 08,15:40:25.754,0.778569,-0.257121,-0.542712,-0.182155,-1.06407,-0.114173,-0.050818,3.317678,12.560925,-9.890354,0,0
1963,2024 8 08,15:40:25.762,0.778863,-0.256364,-0.54234,-0.183073,-1.060065,-0.0931,-0.057715,-0.000467,11.305222,-9.492875,0,0
1964,2024 8 08,15:40:25.770,0.779082,-0.255773,-0.541988,-0.18401,-1.06306,-0.099742,-0.035881,-1.600914,10.349336,-8.794415,0,0
1965,2024 8 08,15:40:25.779,0.779285,-0.255289,-0.541644,-0.184832,-1.062684,-0.113912,-0.030148,-0.764787,10.49876,-8.225339,0,0
1966,2024 8 08,15:40:25.787,0.779368,-0.255106,-0.541503,-0.185151,-1.061647,-0.115337,-0.028656,-0.573498,10.593585,-7.993718,0,0
1967,2024 8 08,15:40:25.795,0.779576,-0.254721,-0.541141,-0.185859,-1.055965,-0.098633,-0.029517,-0.89808,11.015561,-7.478933,0,0
1968,2024 8 08,15:40:25.804,0.779845,-0.254275,-0.540685,-0.186665,-1.058327,-0.090003,-0.032532,-1.484249,11.627623,-7.276784,0,0
1969,2024 8 08,15:40:25.812,0.780161,-0.253795,-0.540167,-0.187495,-1.064029,-0.091265,-0.033962,-1.332684,12.417536,-7.114522,0,0
1970,2024 8 08,15:40:25.820,0.780525,-0.253295,-0.539577,-0.188355,-1.063002,-0.09857,-0.031999,-1.390641,13.169218,-6.89654,0,0
1971,2024 8 08,15:40:25.829,0.780884,-0.25284,-0.538991,-0.189156,-1.064644,-0.103177,-0.030522,-0.951248,14.115924,-6.896829,0,0
1972,2024 8 08,15:40:25.837,0.781061,-0.252614,-0.538702,-0.189553,-1.065457,-0.105459,-0.02979,-0.733701,14.584646,-6.896972,0,0
1973,2024 8 08,15:40:25.845,0.781484,-0.25208,-0.537971,-0.190593,-1.053513,-0.091611,-0.023095,-2.16632,15.483513,-8.689311,0,0
1974,2024 8 08,15:40:25.854,0.781873,-0.251546,-0.537261,-0.191702,-1.060325,-0.090851,-0.02625,-2.784544,15.266874,-9.432705,0,0
1975,2024 8 08,15:40:25.862,0.78227,-0.250974,-0.536524,-0.192894,-1.056393,-0.099171,-0.037955,-3.096259,15.896765,-10.096621,0,0
1976,2024 8 08,15:40:25.870,0.782657,-0.47514,-0.329525,-0.230443,-1.062137,-0.106437,-0.024829,-3.625703,15.928026,-10.12957,0,0
1977,2024 8 08,15:40:25.879,0.783056,-0.249912,-0.534937,-0.195471,-1.067454,-0.109599,-0.018594,-5.178844,17.055616,-10.356781,0,0
1978,2024 8 08,15:40:25.887,0.783087,-0.249873,-0.534873,-0.195574,-1.067863,-0.109842,-0.018115,-5.298108,17.142202,-10.374228,0,0
1979,2024 8 08,15:40:25.895,0.783462,-0.249428,-0.534052,-0.196878,-1.052147,-0.117303,-0.019822,-5.636985,17.368757,-10.649268,0,0
1980,2024 8 08,15:40:25.904,0.783837,-0.249022,-0.533157,-0.19832,-1.039318,-0.096924,0.008481,-6.318918,17.4459,-10.623508,0,0
1981,2024 8 08,15:40:25.912,0.784271,-0.24856,-0.532213,-0.199715,-1.036569,-0.107779,-0.005294,-5.758811,18.571865,-11.04612,0,0
1982,2024 8 08,15:40:25.920,0.784725,-0.248004,-0.531268,-0.201133,-1.047976,-0.11923,9.7e-05,-4.848213,18.66205,-11.152143,0,0
1983,2024 8 08,15:40:25.929,0.785237,-0.247418,-0.530243,-0.202555,-1.035471,-0.1204,-0.004128,-3.997355,19.710068,-10.64904,0,0
1984,2024 8 08,15:40:25.937,0.785314,-0.24733,-0.53009,-0.202768,-1.033599,-0.120575,-0.00476,-3.869991,19.866943,-10.573731,0,0
1985,2024 8 08,15:40:25.945,0.785728,-0.437059,-0.395918,-0.186703,-1.047419,-0.125445,-0.0093,-5.463341,19.286976,-10.763354,0,0
1986,2024 8 08,15:40:25.954,0.786097,-0.437966,-0.396927,-0.180792,-1.052976,-0.089637,0.024573,-7.379506,17.843313,-11.642223,0,0
1987,2024 8 08,15:40:25.962,0.786476,-0.245937,-0.527394,-0.206941,-1.036684,-0.107502,0.030344,-4.926389,17.482279,-12.244558,0,0
1988,2024 8 08,15:40:25.970,0.786843,-0.24527,-0.526624,-0.208295,-1.050639,-0.108218,0.022134,-3.192821,15.519809,-11.972012,0,0
1989,2024 8 08,15:40:25.979,0.787227,-0.244364,-0.525993,-0.209498,-1.052694,-0.138662,0.049239,1.999724,15.890079,-12.156611,0,0
1990,2024 8 08,15:40:25.987,0.787309,-0.244172,-0.525859,-0.209753,-1.053129,-0.145114,0.054983,3.100118,15.968546,-12.195731,0,0
1991,2024 8 08,15:40:25.995,0.787698,-0.243231,-0.52533,-0.210708,-1.084292,-0.123336,0.005725,2.548407,15.798778,-12.672249,0,0
1992,2024 8 08,15:40:26.004,0.788171,-0.242108,-0.524719,-0.211753,-1.039333,-0.150858,0.032086,4.177818,17.146469,-12.319889,0,0
1993,2024 8 08,15:40:26.012,0.788597,-0.240947,-0.524167,-0.212854,-1.041347,-0.118714,0.031826,4.06592,15.185335,-13.331844,0,0
1994,2024 8 08,15:40:26.020,0.788891,-0.239778,-0.523835,-0.213901,-1.057742,-0.126257,0.020202,4.670249,11.491958,-13.989775,0,0
1995,2024 8 08,15:40:26.029,0.789101,-0.238563,-0.523625,-0.214993,-1.078385,-0.126055,0.036495,3.843743,11.345368,-15.542665,0,0
1996,2024 8 08,15:40:26.037,0.789157,-0.23824,-0.52357,-0.215284,-1.083869,-0.126001,0.040823,3.624173,11.306426,-15.955206,0,0
1997,2024 8 08,15:40:26.045,0.789217,-0.237288,-0.523474,-0.216344,-1.094796,-0.118656,0.022113,2.255101,9.288735,-17.508028,0,0
1998,2024 8 08,15:40:26.054,0.789175,-0.236177,-0.523458,-0.217747,-1.094771,-0.127631,0.050664,1.006127,9.280683,-19.887468,0,0
1999,2024 8 08,15:40:26.062,0.789071,-0.234928,-0.523491,-0.219388,-1.08418,-0.138084,0.033336,0.900114,8.040864,-22.369423,0,0
2000,2024 8 08,15:40:26.070,0.788723,-0.233745,-0.523775,-0.221214,-1.109393,-0.125662,0.032232,-1.790537,3.999809,-25.007395,0,0
2001,2024 8 08,15:40:26.079,0.788165,-0.232537,-0.52427,-0.223293,-1.113747,-0.14659,0.02154,-2.569828,2.599676,-28.56813,0,0
2002,2024 8 08,15:40:26.087,0.78799,-0.23216,-0.524424,-0.223943,-1.115107,-0.153131,0.018198,-2.813388,2.162078,-29.681005,0,0
2003,2024 8 08,15:40:26.095,0.787408,-0.231253,-0.524868,-0.225877,-1.126333,-0.149337,0.000125,-5.670764,1.286396,-32.080624,0,0
2004,2024 8 08,15:40:26.103,0.786978,-0.230664,-0.525192,-0.227225,-1.137075,-0.150831,-0.007988,-7.424798,0.632375,-33.749271,0,0
2005,2024 8 08,15:40:26.112,0.785931,-0.229633,-0.525931,-0.230166,-1.163596,-0.169221,0.002766,-10.134457,-0.291033,-37.390015,0,0
2006,2024 8 08,15:40:26.120,0.784834,-0.22859,-0.526522,-0.233567,-1.1257,-0.152573,0.039147,-13.509337,2.438264,-41.534355,0,0
2007,2024 8 08,15:40:26.128,0.78362,-0.227444,-0.527187,-0.237233,-1.135692,-0.15766,0.034911,-13.750998,0.472392,-45.084175,0,0
2008,2024 8 08,15:40:26.137,0.782391,-0.226364,-0.527953,-0.2406,-1.153212,-0.167813,0.008524,-14.307656,-1.749943,-48.717781,0,0
2009,2024 8 08,15:40:26.145,0.782127,-0.226117,-0.528116,-0.24133,-1.157857,-0.16817,0.01277,-14.203048,-1.568209,-49.422237,0,0
2010,2024 8 08,15:40:26.153,0.78072,-0.224724,-0.528962,-0.245296,-1.175213,-0.165508,0.047832,-13.426044,0.714435,-53.227867,0,0
2011,2024 8 08,15:40:26.162,0.779261,-0.22295,-0.529747,-0.249814,-1.149632,-0.159366,0.03924,-13.434678,2.681368,-58.138962,0,0
2012,2024 8 08,15:40:26.170,0.777751,-0.220807,-0.530649,-0.254463,-1.209343,-0.164954,0.042271,-10.191914,2.491916,-61.823723,0,0
2013,2024 8 08,15:40:26.178,0.776108,-0.218347,-0.531609,-0.259542,-1.245709,-0.154951,0.058475,-10.673373,3.591338,-69.112312,0,0
2014,2024 8 08,15:40:26.187,0.774364,-0.215425,-0.532601,-0.265093,-1.229999,-0.165338,0.05253,-8.88269,5.599309,-76.399681,0,0
2015,2024 8 08,15:40:26.195,0.772745,-0.212462,-0.533536,-0.270289,-1.240829,-0.148035,0.06144,-7.607199,6.18475,-82.912186,0,0
2016,2024 8 08,15:40:26.203,0.772273,-0.211571,-0.533809,-0.271792,-1.248018,-0.148279,0.062133,-7.274978,6.402172,-84.974556,0,0
2017,2024 8 08,15:40:26.212,0.770473,-0.20802,-0.534838,-0.27754,-1.286283,-0.168297,0.054773,-6.316864,7.795494,-93.475708,0,0
2018,2024 8 08,15:40:26.220,0.768345,-0.203593,-0.53589,-0.284586,-1.311247,-0.187766,0.028712,-6.390795,11.55405,-103.547287,0,0
2019,2024 8 08,15:40:26.228,0.765931,-0.198607,-0.536919,-0.292547,-1.359941,-0.193167,0.014036,-7.869932,13.937374,-114.797401,0,0
2020,2024 8 08,15:40:26.237,0.763201,-0.193114,-0.53783,-0.301525,-1.35938,-0.184538,0.02235,-11.64327,17.920147,-128.225525,0,0
2021,2024 8 08,15:40:26.245,0.760598,-0.187726,-0.538439,-0.310309,-1.412537,-0.181488,-0.010286,-13.435189,22.12587,-140.263489,0,0
2022,2024 8 08,15:40:26.253,0.759662,-0.185884,-0.538641,-0.313362,-1.432336,-0.177663,-0.010885,-14.304536,22.953331,-144.739349,0,0
2023,2024 8 08,15:40:26.262,0.756534,-0.180157,-0.539221,-0.323063,-1.501473,-0.157294,0.023571,-17.849993,23.234699,-160.198547,0,0
2024,2024 8 08,15:40:26.270,0.752485,-0.172865,-0.53979,-0.335256,-1.594929,-0.149076,0.009851,-20.152565,26.162762,-179.339828,0,0
2025,2024 8 08,15:40:26.278,0.747595,-0.164438,-0.54038,-0.349131,-1.729818,-0.100231,0.049565,-20.86668,28.927807,-201.612686,0,0
2026,2024 8 08,15:40:26.287,0.742018,-0.154543,-0.54075,-0.364559,-1.893949,-0.091818,-0.011833,-20.542938,37.378925,-227.320786,0,0
2027,2024 8 08,15:40:26.295,0.736541,-0.144357,-0.540518,-0.379892,-2.073948,-0.110438,-0.102768,-23.249434,50.260193,-253.504761,0,0
2028,2024 8 08,15:40:26.303,0.734383,-0.140296,-0.540325,-0.385899,-2.121594,-0.121756,-0.122191,-23.799864,55.074265,-263.794617,0,0
2029,2024 8 08,15:40:26.312,0.72846,-0.128916,-0.539223,-0.402111,-2.156518,-0.165701,-0.098516,-22.909241,66.41008,-290.697388,0,0
2030,2024 8 08,15:40:26.320,0.720869,-0.114193,-0.537263,-0.422159,-2.302401,-0.200669,-0.080895,-21.792826,77.669167,-317.143677,0,0
2031,2024 8 08,15:40:26.328,0.712193,-0.096933,-0.534478,-0.444,-2.388572,-0.361778,-0.034994,-15.485534,92.678894,-341.817841,0,0
2032,2024 8 08,15:40:26.337,0.702797,-0.077398,-0.53086,-0.466442,-2.373714,-0.535043,-0.073844,-5.402303,105.963211,-359.212128,0,0
2033,2024 8 08,15:40:26.345,0.6937,-0.058598,-0.527115,-0.486705,-2.501666,-0.624615,-0.024166,1.237991,112.703514,-366.110352,0,0
2034,2024 8 08,15:40:26.353,0.68996,-0.050687,-0.525355,-0.495006,-2.510211,-0.64295,-0.016597,3.225624,117.770653,-367.746521,0,1
2035,2024 8 08,15:40:26.362,0.682064,-0.032968,-0.520358,-0.512236,-2.314153,-0.58137,-0.053151,3.689723,137.522736,-364.059906,0,0
2036,2024 8 08,15:40:26.370,0.67292,-0.012089,-0.513855,-0.531277,-2.196795,-0.502235,-0.023436,6.627518,141.143433,-355.585144,0,0
2037,2024 8 08,15:40:26.378,0.660018,0.018046,-0.503768,-0.55699,-1.723988,-0.354325,-0.256489,16.905468,157.759583,-343.226929,0,0
2038,2024 8 08,15:40:26.387,0.649387,0.039712,-0.496251,-0.574828,-1.380653,-0.008607,-0.470165,11.324154,126.18058,-336.01535,0,0
2039,2024 8 08,15:40:26.395,0.637007,0.058222,-0.489674,-0.592463,-1.031788,0.235965,-0.500644,-6.138371,92.818916,-329.155426,0,0
2040,2024 8 08,15:40:26.403,0.6365,0.058981,-0.489404,-0.593187,-1.017479,0.245996,-0.501894,-6.854599,91.450584,-328.874054,0,0
2041,2024 8 08,15:40:26.412,0.623247,0.074085,-0.4837,-0.609963,-0.744579,0.46869,-0.435184,-15.184349,58.157173,-328.404327,0,0
2042,2024 8 08,15:40:26.420,0.607621,0.087433,-0.478732,-0.62761,0.439153,0.217134,-1.319796,-32.489693,24.978745,-315.780029,0,0
2043,2024 8 08,15:40:26.428,0.594878,0.095273,-0.472049,-0.643545,1.342475,0.060591,-0.739018,-81.187042,10.01397,-228.902695,0,0
2044,2024 8 08,15:40:26.437,0.584932,0.090877,-0.469988,-0.654729,-0.151645,0.412617,0.064533,-103.534775,-116.134941,-93.382782,0,0
2045,2024 8 08,15:40:26.445,0.582863,0.080786,-0.469104,-0.658532,-0.743232,0.88942,-0.029095,-85.225082,-62.610622,38.689728,0,0
2046,2024 8 08,15:40:26.453,0.582616,0.079581,-0.468999,-0.658986,-0.813888,0.946367,-0.040277,-83.038284,-56.217995,54.463684,0,0
2047,2024 8 08,15:40:26.462,0.589321,0.071335,-0.467055,-0.655324,-0.80604,0.871987,-0.013346,-59.155823,-7.19619,140.110107,0,0
2048,2024 8 08,15:40:26.470,0.6018,0.063477,-0.464498,-0.646522,-0.79132,0.686227,-0.002907,-26.436451,48.223129,205.034683,0,0
2049,2024 8 08,15:40:26.478,0.618022,0.058096,-0.460992,-0.63408,-0.561305,0.496972,-0.187972,-2.435394,89.852676,237.1987,0,0
2050,2024 8 08,15:40:26.487,0.634824,0.053555,-0.457818,-0.620003,-0.405339,0.34492,-0.291561,11.057591,89.142845,244.912918,0,0
2051,2024 8 08,15:40:26.495,0.650576,0.04883,-0.455525,-0.605579,-0.263019,0.222706,-0.390601,15.804932,73.314667,240.42215,0,0
2052,2024 8 08,15:40:26.503,0.653506,0.047951,-0.455099,-0.602897,-0.236547,0.199975,-0.409022,16.687923,70.370667,239.586868,0,0
2053,2024 8 08,15:40:26.512,0.665206,0.043083,-0.45435,-0.590867,-0.176479,0.13523,-0.435049,16.667879,46.944893,235.413712,0,0
2054,2024 8 08,15:40:26.520,0.677309,0.036085,-0.454725,-0.577105,-0.214108,0.117312,-0.398805,13.944187,17.070488,233.933777,0,0
2055,2024 8 08,15:40:26.528,0.688536,0.027438,-0.456268,-0.562883,-0.333459,0.11571,-0.373644,11.14162,-7.753351,235.075745,0,0
2056,2024 8 08,15:40:26.537,0.698916,0.017547,-0.458639,-0.548354,-0.446005,0.079958,-0.348236,8.322247,-25.168011,237.335129,0,0
2057,2024 8 08,15:40:26.545,0.708685,0.006752,-0.461443,-0.533484,-0.501449,0.025567,-0.336763,5.959289,-36.333473,241.085419,0,0
2058,2024 8 08,15:40:26.553,0.711061,0.004127,-0.462125,-0.529867,-0.514934,0.012339,-0.333973,5.384606,-39.048965,241.997513,0,0
2059,2024 8 08,15:40:26.562,0.718359,-0.005537,-0.46479,-0.51747,-0.538829,-0.019044,-0.33327,2.228175,-49.981712,245.868256,0,0
2060,2024 8 08,15:40:26.570,0.726327,-0.017827,-0.468354,-0.502568,-0.60691,-0.033974,-0.290783,-1.749066,-64.472031,250.964737,0,0
2061,2024 8 08,15:40:26.578,0.733884,-0.031555,-0.472563,-0.486668,-0.714139,-0.04783,-0.268463,-4.839419,-79.219727,255.630096,0,0
2062,2024 8 08,15:40:26.587,0.74069,-0.046279,-0.477325,-0.47021,-0.82274,-0.052017,-0.204587,-6.998907,-92.558861,258.53006,0,0
2063,2024 8 08,15:40:26.595,0.746747,-0.061536,-0.482399,-0.453367,-0.913502,-0.066614,-0.161288,-7.872284,-101.688576,259.270844,0,0
2064,2024 8 08,15:40:26.603,0.748521,-0.066005,-0.483885,-0.448434,-0.940086,-0.07089,-0.148606,-8.128096,-104.362663,259.487823,0,0
2065,2024 8 08,15:40:26.612,0.752476,-0.078303,-0.488178,-0.434886,-1.027095,-0.093695,-0.109488,-7.406409,-111.050575,258.418213,0,0
2066,2024 8 08,15:40:26.620,0.756536,-0.092872,-0.493417,-0.418641,-1.118765,-0.118018,-0.065171,-5.645639,-116.56189,256.13446,0,0
2067,2024 8 08,15:40:26.628,0.760168,-0.107989,-0.498996,-0.401384,-1.192436,-0.134904,-0.021902,-2.868808,-120.562691,254.550308,0,0
2068,2024 8 08,15:40:26.637,0.763318,-0.123107,-0.504691,-0.383479,-1.269609,-0.136443,-0.002735,1.161389,-123.685028,255.016327,0,0
2069,2024 8 08,15:40:26.645,0.765224,-0.132621,-0.508291,-0.372029,-1.323537,-0.136354,0.011619,4.044364,-125.26577,255.599701,0,0
2070,2024 8 08,15:40:26.653,0.767718,-0.147318,-0.513928,-0.353124,-1.432066,-0.130857,0.040654,10.565224,-125.079903,258.145294,0,0
2071,2024 8 08,15:40:26.662,0.769745,-0.159708,-0.518588,-0.336201,-1.494226,-0.129923,0.031131,16.55328,-122.534866,260.234222,0,0
2072,2024 8 08,15:40:26.670,0.770089,-0.161947,-0.519424,-0.33296,-1.50477,-0.13302,0.029028,17.688522,-122.230255,260.482971,0,0
2073,2024 8 08,15:40:26.678,0.772015,-0.174998,-0.524287,-0.313651,-1.565169,-0.159325,0.010962,24.111126,-120.906128,261.480499,0,0
2074,2024 8 08,15:40:26.687,0.773605,-0.18812,-0.529197,-0.293199,-1.625792,-0.210164,-0.034613,28.717182,-121.650551,260.350525,0,0
2075,2024 8 08,15:40:26.695,0.774474,-0.200827,-0.53425,-0.272572,-1.685673,-0.28153,-0.048325,31.963051,-126.575539,255.83252,0,0
2076,2024 8 08,15:40:26.703,0.774524,-0.213088,-0.539441,-0.252117,-1.739971,-0.383165,-0.079335,32.532536,-131.176498,248.739243,0,0
2077,2024 8 08,15:40:26.712,0.773869,-0.223555,-0.544163,-0.234435,-1.796279,-0.493198,-0.079562,31.93924,-135.79895,241.017029,0,0
2078,2024 8 08,15:40:26.720,0.77358,-0.22614,-0.545376,-0.230062,-1.805786,-0.518464,-0.082462,31.489784,-136.980621,238.952072,0,0
2079,2024 8 08,15:40:26.728,0.771863,-0.236469,-0.550431,-0.212599,-1.831811,-0.612486,-0.097279,28.469995,-142.054611,230.271942,0,0
2080,2024 8 08,15:40:26.737,0.76909,-0.247597,-0.556234,-0.194,-1.876756,-0.711345,-0.07989,24.103352,-148.755219,221.535431,0,0
2081,2024 8 08,15:40:26.745,0.765391,-0.258615,-0.562335,-0.175781,-1.911657,-0.818147,-0.097362,20.178959,-154.822998,212.455902,0,0
2082,2024 8 08,15:40:26.753,0.760726,-0.269456,-0.56873,-0.158299,-1.930326,-0.973326,-0.07931,14.340572,-160.811035,202.234833,0,0
2083,2024 8 08,15:40:26.762,0.756018,-0.278932,-0.574372,-0.143584,-1.837549,-1.149059,-0.100627,6.883011,-160.725098,192.516495,0,0
2084,2024 8 08,15:40:26.770,0.754421,-0.281846,-0.576165,-0.139185,-1.808049,-1.196915,-0.09847,4.463717,-162.375839,189.716995,0,0
2085,2024 8 08,15:40:26.778,0.748601,-0.291065,-0.58213,-0.12593,-1.719038,-1.311854,-0.040978,-3.713174,-174.072083,182.095978,0,0
2086,2024 8 08,15:40:26.787,0.741056,-0.301663,-0.58925,-0.111485,-1.669197,-1.374575,0.113836,-12.592907,-181.843582,175.953812,0,0
2087,2024 8 08,15:40:26.795,0.732779,-0.312463,-0.596418,-0.097367,-1.619869,-1.384493,0.32848,-18.593483,-183.034882,168.977478,0,0
2088,2024 8 08,15:40:26.803,0.724197,-0.322712,-0.60342,-0.084124,-1.577151,-1.41901,0.585193,-20.478727,-179.080368,155.397278,0,0
2089,2024 8 08,15:40:26.812,0.716492,-0.330962,-0.609577,-0.07335,-1.501444,-1.506558,0.812994,-20.316006,-173.212784,135.999359,0,0
2090,2024 8 08,15:40:26.820,0.713806,-0.333669,-0.611729,-0.069747,-1.484077,-1.560937,0.883082,-19.783192,-170.246597,128.859802,0,0
2091,2024 8 08,15:40:26.828,0.707183,-0.339461,-0.617062,-0.061644,-1.501497,-1.825996,1.001207,-16.12701,-156.40126,109.600983,0,0
2092,2024 8 08,15:40:26.837,0.700757,-0.344829,-0.62212,-0.053958,-1.613911,-2.174819,1.05269,-13.048866,-125.38768,91.145226,0,0
2093,2024 8 08,15:40:26.845,0.696602,-0.349114,-0.624851,-0.048712,-1.638248,-2.40929,1.030776,-14.737947,-67.979584,71.485405,0,0
2094,2024 8 08,15:40:26.853,0.695578,-0.351853,-0.624625,-0.046835,-1.425385,-2.457168,0.939021,-14.697597,-7.063946,44.738174,0,0
2095,2024 8 08,15:40:26.862,0.696575,-0.352933,-0.622846,-0.047709,-1.201193,-2.328148,0.868651,-14.835301,33.228634,16.116308,0,0
2096,2024 8 08,15:40:26.870,0.697174,-0.353114,-0.622024,-0.048371,-1.123101,-2.254185,0.834187,-14.172046,46.37011,5.270257,0,0
2097,2024 8 08,15:40:26.878,0.699639,-0.352042,-0.619592,-0.051575,-1.02531,-1.971702,0.730427,-8.213766,59.278553,-15.268008,0,0
2098,2024 8 08,15:40:26.887,0.702363,-0.349863,-0.617354,-0.055947,-1.553793,-1.833556,0.594388,-9.838131,51.807217,-34.086174,0,0
2099,2024 8 08,15:40:26.895,0.702064,-0.348758,-0.617488,-0.063979,-4.464992,-2.244224,-0.126615,-87.052231,3.535431,-73.575203,0,0
2100,2024 8 08,15:40:26.903,0.700813,-0.347912,-0.617,-0.082902,-2.251378,0.173249,-1.483605,-118.934158,129.572449,-127.696152,0,0
2101,2024 8 08,15:40:26.912,0.705987,-0.342631,-0.609797,-0.111048,-0.613325,1.19826,-0.211068,-58.312004,173.113266,-183.094574,0,0
2102,2024 8 08,15:40:26.920,0.705999,-0.342619,-0.60978,-0.111114,-0.609464,1.200676,-0.208069,-58.169094,173.215912,-183.225174,1,0
2103,2024 8 08,15:40:26.928,0.708417,-0.331687,-0.61104,-0.121457,-1.484119,-0.18174,0.262407,26.669949,57.268547,-169.530823,0,0
2104,2024 8 08,15:40:26.937,0.715626,-0.317277,-0.607701,-0.133766,-1.146178,-0.284003,0.271994,67.611946,173.55777,-175.54425,0,0
2105,2024 8 08,15:40:26.945,0.722004,-0.302817,-0.605545,-0.142494,-1.344515,-0.527573,0.032711,81.147606,88.041237,-144.655655,0,0
2106,2024 8 08,15:40:26.953,0.72647,-0.292445,-0.603495,-0.14998,-1.289641,-0.379668,0.414859,31.770687,104.953308,-108.122849,0,0
2107,2024 8 08,15:40:26.962,0.733006,-0.283451,-0.598151,-0.156692,-0.986837,-0.144792,0.029909,47.435074,128.518982,-82.82975,0,0
2108,2024 8 08,15:40:26.970,0.733575,-0.282668,-0.597686,-0.157276,-0.960509,-0.12437,-0.003561,48.79705,130.567947,-80.630585,0,0
2109,2024 8 08,15:40:26.978,0.739386,-0.273609,-0.5939,-0.160348,-1.071285,-0.19981,-0.020314,81.826363,107.400421,-69.645241,0,0
2110,2024 8 08,15:40:26.987,0.745456,-0.264032,-0.590097,-0.162308,-1.016677,-0.288942,0.025618,77.203278,99.042007,-56.088768,0,0
2111,2024 8 08,15:40:26.995,0.750405,-0.25665,-0.586292,-0.165121,-0.974951,-0.128198,-0.026371,45.575359,87.162201,-52.564457,0,0
2112,2024 8 08,15:40:27.003,0.754514,-0.250841,-0.582718,-0.167962,-1.007507,-0.183229,-0.195459,34.01012,79.628899,-41.80365,0,0
2113,2024 8 08,15:40:27.012,0.758266,-0.245594,-0.5795,-0.169948,-1.104133,-0.207728,-0.124416,36.612244,70.218285,-30.021877,0,0
2114,2024 8 08,15:40:27.020,0.75886,-0.244763,-0.578991,-0.170263,-1.11943,-0.211607,-0.113169,37.024197,68.728462,-28.156664,0,0
2115,2024 8 08,15:40:27.028,0.761799,-0.241003,-0.576219,-0.171882,-1.060505,-0.135173,-0.051752,29.005705,65.930199,-27.741333,0,0
2116,2024 8 08,15:40:27.037,0.764698,-0.237414,-0.573333,-0.173642,-1.0022,-0.123805,-0.004435,22.734173,58.279896,-23.920429,0,0
2117,2024 8 08,15:40:27.045,0.767145,-0.234306,-0.570922,-0.175015,-0.998523,-0.120478,0.03999,18.427563,47.091549,-19.05719,0,0
2118,2024 8 08,15:40:27.053,0.769116,-0.231867,-0.568908,-0.176169,-1.012402,-0.134426,-0.003429,15.35491,38.316032,-14.527184,0,0
2119,2024 8 08,15:40:27.062,0.770619,-0.230034,-0.567311,-0.177158,-1.042285,-0.160526,-0.011398,10.816591,30.729446,-11.297606,0,0
2120,2024 8 08,15:40:27.070,0.770949,-0.229632,-0.56696,-0.177374,-1.04884,-0.16625,-0.013146,9.821192,29.065464,-10.589255,0,0
2121,2024 8 08,15:40:27.078,0.771784,-0.22847,-0.566052,-0.178145,-1.048114,-0.124915,-0.00168,7.276057,23.215612,-10.705394,0,0
2122,2024 8 08,15:40:27.087,0.77257,-0.227229,-0.565201,-0.179025,-1.048674,-0.110324,-0.063447,5.342634,19.626213,-11.465867,0,0
2123,2024 8 08,15:40:27.095,0.773118,-0.226138,-0.564566,-0.18004,-1.061126,-0.114331,-0.060935,3.054984,16.070005,-12.694635,0,0
2124,2024 8 08,15:40:27.103,0.773501,-0.225212,-0.564032,-0.181226,-1.057503,-0.095664,-0.059578,-0.034995,13.595844,-13.63484,0,0
2125,2024 8 08,15:40:27.112,0.773719,-0.224435,-0.563617,-0.182546,-1.053716,-0.100295,-0.062051,-2.929348,11.483282,-14.502208,0,0
2126,2024 8 08,15:40:27.120,0.773716,-0.223859,-0.563364,-0.184041,-1.045687,-0.099456,-0.036829,-5.816416,8.590242,-15.569276,0,0
2127,2024 8 08,15:40:27.128,0.773715,-0.223698,-0.563293,-0.184459,-1.043437,-0.099221,-0.029762,-6.625403,7.779582,-15.868279,0,0
2128,2024 8 08,15:40:27.137,0.773524,-0.223382,-0.563261,-0.185735,-1.041762,-0.090598,0.000679,-8.312888,5.236095,-16.382195,0,0
2129,2024 8 08,15:40:27.145,0.773283,-0.222964,-0.56327,-0.187205,-1.025696,-0.112417,-0.02924,-7.077512,4.737339,-16.238092,0,0
2130,2024 8 08,15:40:27.153,0.772986,-0.222567,-0.563336,-0.188699,-1.033209,-0.103637,-0.013542,-6.49332,3.790753,-15.817677,0,0
2131,2024 8 08,15:40:27.162,0.77275,-0.222053,-0.563391,-0.190104,-1.034883,-0.115151,-0.007999,-5.110873,4.283181,-15.438518,0,0
2132,2024 8 08,15:40:27.170,0.772608,-0.22138,-0.563409,-0.191406,-1.035088,-0.129304,-0.050157,-2.745386,5.587037,-15.153992,0,0
2133,2024 8 08,15:40:27.178,0.772562,-0.221161,-0.563415,-0.19183,-1.035154,-0.133908,-0.063871,-1.975873,6.011192,-15.061433,0,0
2134,2024 8 08,15:40:27.187,0.772528,-0.220955,-0.563414,-0.19221,-1.035187,-0.135096,-0.066021,-1.681614,6.222768,-14.950109,0,0
2135,2024 8 08,15:40:27.195,0.772459,-0.220239,-0.56337,-0.193432,-1.038203,-0.128264,-0.03708,-1.961332,6.570358,-14.498227,0,0
2136,2024 8 08,15:40:27.203,0.772505,-0.219428,-0.563217,-0.194614,-1.054566,-0.129578,-0.04004,-0.248266,8.886709,-14.169868,0,0
2137,2024 8 08,15:40:27.212,0.772645,-0.218566,-0.562958,-0.195771,-1.036827,-0.135507,-0.036105,-0.396772,9.994029,-13.664447,0,0
2138,2024 8 08,15:40:27.220,0.772847,-0.217716,-0.562615,-0.196903,-1.026609,-0.14354,-0.005463,0.023986,11.231906,-12.978486,0,0
2139,2024 8 08,15:40:27.228,0.773087,-0.216958,-0.562238,-0.197872,-1.019708,-0.133272,-0.004485,-0.333362,12.236734,-12.495564,0,0
2140,2024 8 08,15:40:27.237,0.773148,-0.216788,-0.562146,-0.198081,-1.022593,-0.135818,-0.008039,-0.281061,12.394632,-12.343725,0,0
2141,2024 8 08,15:40:27.245,0.773449,-0.21601,-0.56169,-0.199048,-1.044142,-0.154255,-0.02555,-0.016328,12.835544,-11.543574,0,0
2142,2024 8 08,15:40:27.253,0.773769,-0.215278,-0.561143,-0.200138,-1.042097,-0.138761,0.002333,-1.508041,13.003747,-10.925469,0,0
2143,2024 8 08,15:40:27.262,0.774184,-0.214554,-0.560455,-0.201235,-1.035554,-0.153692,-0.029797,-1.119273,15.580755,-10.635293,0,0
2144,2024 8 08,15:40:27.270,0.774658,-0.213847,-0.559674,-0.202335,-1.035872,-0.145441,-0.004582,-1.561089,16.474148,-9.988088,0,0
2145,2024 8 08,15:40:27.278,0.775165,-0.21323,-0.558861,-0.203288,-1.032002,-0.138915,-0.047234,-1.891573,18.382389,-9.183125,0,0
2146,2024 8 08,15:40:27.287,0.775306,-0.213062,-0.558633,-0.203555,-1.03706,-0.139057,-0.048899,-1.89472,18.561352,-9.030931,0,0
2147,2024 8 08,15:40:27.295,0.775782,-0.212491,-0.557852,-0.204473,-1.069551,-0.143761,-0.014007,-1.673146,17.827038,-8.988181,0,0
2148,2024 8 08,15:40:27.303,0.7763,-0.211792,-0.556997,-0.205562,-1.048966,-0.072151,0.017566,-2.013747,17.372368,-10.125481,0,0
2149,2024 8 08,15:40:27.312,0.776793,-0.210998,-0.556198,-0.206677,-1.044076,-0.128348,0.020852,-1.106755,16.123938,-11.45783,0,0
2150,2024 8 08,15:40:27.320,0.777202,-0.210132,-0.55554,-0.207787,-1.063917,-0.117766,0.028591,0.086602,14.576523,-12.538005,0,0
2151,2024 8 08,15:40:27.328,0.777523,-0.209236,-0.555052,-0.208794,-1.079232,-0.133713,-0.002125,1.734822,13.679432,-13.70942,0,0
2152,2024 8 08,15:40:27.337,0.777621,-0.208919,-0.554902,-0.209144,-1.08107,-0.13854,-0.008111,2.021535,13.472532,-14.19852,0,0
2153,2024 8 08,15:40:27.345,0.777851,-0.207956,-0.554543,-0.210199,-1.071195,-0.148874,-0.004373,1.517949,13.332767,-15.923291,0,0
2154,2024 8 08,15:40:27.353,0.778079,-0.206859,-0.554125,-0.211535,-1.063926,-0.153756,0.003076,0.430495,13.17069,-17.247995,0,0
2155,2024 8 08,15:40:27.362,0.77825,-0.205774,-0.55371,-0.213043,-1.069903,-0.148003,0.009843,-1.045442,12.841413,-18.47364,0,0
2156,2024 8 08,15:40:27.370,0.778372,-0.204711,-0.553296,-0.21469,-1.076986,-0.145491,0.008971,-2.172063,12.852827,-19.721575,0,0
2157,2024 8 08,15:40:27.378,0.778439,-0.203742,-0.552937,-0.216288,-1.08068,-0.151899,0.008128,-2.81189,12.471907,-21.314457,0,0
2158,2024 8 08,15:40:27.387,0.778448,-0.203371,-0.552815,-0.216917,-1.082482,-0.154386,0.005812,-3.132745,12.173373,-21.993134,0,0
2159,2024 8 08,15:40:27.395,0.778356,-0.202479,-0.552618,-0.218575,-1.092266,-0.158191,-0.003207,-4.518124,10.587832,-24.121809,0,0
2160,2024 8 08,15:40:27.403,0.778067,-0.201501,-0.552517,-0.220748,-1.121072,-0.147706,0.024708,-7.369625,8.406485,-27.454952,0,0
2161,2024 8 08,15:40:27.412,0.777606,-0.200461,-0.552503,-0.223336,-1.130237,-0.140793,0.032683,-9.343527,7.198146,-31.509356,0,0
2162,2024 8 08,15:40:27.420,0.776955,-0.199289,-0.552665,-0.22623,-1.154432,-0.149569,0.036182,-9.62494,5.426948,-35.803951,0,0
2163,2024 8 08,15:40:27.428,0.776195,-0.198123,-0.552946,-0.229154,-1.163337,-0.151129,0.029502,-10.717717,4.018026,-40.722099,0,0
2164,2024 8 08,15:40:27.437,0.775846,-0.197609,-0.553094,-0.230423,-1.169931,-0.153,0.027481,-11.101922,3.344965,-42.826363,0,0
2165,2024 8 08,15:40:27.445,0.774921,-0.196361,-0.55358,-0.233409,-1.192768,-0.163779,0.022022,-11.604274,1.767871,-47.565903,0,0
2166,2024 8 08,15:40:27.453,0.7733,-0.194189,-0.554404,-0.238608,-1.173539,-0.182948,-0.031769,-13.109732,1.770001,-55.414089,0,0
2167,2024 8 08,15:40:27.462,0.771591,-0.192328,-0.555401,-0.243282,-1.183868,-0.171665,0.055027,-15.327108,-3.235593,-61.319256,0,0
2168,2024 8 08,15:40:27.470,0.769845,-0.190141,-0.556414,-0.248168,-1.224019,-0.167646,0.042494,-12.502993,-1.356817,-65.03698,0,0
2169,2024 8 08,15:40:27.478,0.767821,-0.187592,-0.557703,-0.253427,-1.297233,-0.151768,0.061447,-12.627353,-5.043728,-73.965721,0,0
2170,2024 8 08,15:40:27.487,0.767716,-0.18746,-0.55777,-0.253701,-1.301038,-0.150942,0.062432,-12.633816,-5.235342,-74.429756,0,0
2171,2024 8 08,15:40:27.495,0.765514,-0.184626,-0.559173,-0.259273,-1.244244,-0.194008,-0.01476,-12.690384,-4.630346,-83.499374,0,0
2172,2024 8 08,15:40:27.503,0.763059,-0.181231,-0.560645,-0.265644,-1.290675,-0.1766,-0.004918,-11.975389,-3.198967,-90.580353,0,0
2173,2024 8 08,15:40:27.512,0.76023,-0.177452,-0.562292,-0.272725,-1.346892,-0.172817,0.082857,-14.474233,-4.540633,-102.253654,0,0
2174,2024 8 08,15:40:27.520,0.75736,-0.172848,-0.563737,-0.280564,-1.329952,-0.179309,-0.027643,-11.022588,2.099103,-113.482384,0,0
2175,2024 8 08,15:40:27.528,0.754044,-0.167687,-0.565375,-0.289188,-1.457053,-0.126143,0.082589,-13.060935,0.008437,-127.318962,0,0
2176,2024 8 08,15:40:27.537,0.753618,-0.167023,-0.565586,-0.290298,-1.473409,-0.119301,0.096773,-13.32323,-0.260591,-129.099457,0,0
2177,2024 8 08,15:40:27.545,0.750384,-0.161585,-0.566933,-0.298964,-1.532739,-0.147273,-0.026468,-12.998394,4.816145,-145.26091,0,0
2178,2024 8 08,15:40:27.553,0.746098,-0.154804,-0.568601,-0.309881,-1.558454,-0.096857,0.110254,-15.804206,4.005122,-165.452469,0,0
2179,2024 8 08,15:40:27.562,0.741299,-0.146753,-0.570106,-0.322273,-1.697904,-0.086246,0.038274,-16.209999,9.408718,-187.504974,0,0
2180,2024 8 08,15:40:27.570,0.735801,-0.137308,-0.571344,-0.336489,-1.913633,-0.018433,0.003147,-18.714546,17.449022,-216.811096,0,0
2181,2024 8 08,15:40:27.578,0.729669,-0.126048,-0.571984,-0.352715,-2.110626,-0.016177,-0.126133,-18.09557,30.256887,-248.437317,0,0
2182,2024 8 08,15:40:27.587,0.722464,-0.112828,-0.572166,-0.371174,-2.319721,0.00945,-0.060908,-21.560009,38.504593,-286.733063,0,0
2183,2024 8 08,15:40:27.595,0.720995,-0.110134,-0.572203,-0.374936,-2.362342,0.014673,-0.047613,-22.266193,40.185787,-294.539185,0,0
2184,2024 8 08,15:40:27.603,0.714344,-0.096469,-0.571063,-0.392588,-2.537045,-0.040546,-0.150639,-19.534159,62.709442,-328.436951,0,0
2185,2024 8 08,15:40:27.612,0.705423,-0.07846,-0.569359,-0.414418,-2.505403,-0.202276,-0.145596,-10.380482,71.140381,-363.169922,0,0
2186,2024 8 08,15:40:27.620,0.695523,-0.057244,-0.56643,-0.43783,-2.479969,-0.445422,-0.119327,-0.642329,92.429306,-389.874695,0,0
2187,2024 8 08,15:40:27.628,0.68493,-0.033837,-0.562299,-0.461536,-2.435533,-0.603659,-0.106059,4.94408,107.914925,-404.295898,0,0
2188,2024 8 08,15:40:27.637,0.673862,-0.00941,-0.557121,-0.484609,-2.422979,-0.632049,-0.160426,9.720821,115.617554,-404.476868,0,0
2189,2024 8 08,15:40:27.645,0.670999,-0.003092,-0.555782,-0.490577,-2.419733,-0.639392,-0.174489,10.956322,117.609833,-404.523682,0,1
2190,2024 8 08,15:40:27.653,0.661787,0.016389,-0.550568,-0.508214,-2.289904,-0.517325,-0.178596,9.436477,122.458084,-400.08786,0,0
2191,2024 8 08,15:40:27.662,0.650539,0.039142,-0.543749,-0.528262,-2.041292,-0.340181,-0.222929,7.580985,121.266884,-393.94577,0,0
2192,2024 8 08,15:40:27.670,0.637565,0.061829,-0.536777,-0.548564,-1.783772,-0.070523,-0.410858,3.653098,102.41114,-392.765442,0,0
2193,2024 8 08,15:40:27.678,0.622648,0.082701,-0.530119,-0.569005,-1.499904,0.246867,-0.559969,-8.564875,72.940697,-389.440216,0,0
2194,2024 8 08,15:40:27.687,0.605419,0.101321,-0.524372,-0.58952,-1.509777,0.370039,-0.318709,-11.668798,33.966938,-392.996552,0,0
2195,2024 8 08,15:40:27.695,0.60014,0.107026,-0.522611,-0.595806,-1.512802,0.407779,-0.244786,-12.619842,22.025375,-394.086212,0,0
2196,2024 8 08,15:40:27.703,0.58373,0.119781,-0.519334,-0.612189,-0.953582,0.324939,-1.033803,-23.84581,-7.947645,-400.159943,0,0
2197,2024 8 08,15:40:27.712,0.565504,0.130648,-0.513618,-0.63148,0.59497,0.597035,-1.122212,-76.902008,-13.080048,-343.475952,0,0
2198,2024 8 08,15:40:27.720,0.555224,0.13638,-0.509762,-0.642828,1.286185,0.701789,-1.087151,-101.320511,-16.963999,-290.156891,0,0
2199,2024 8 08,15:40:27.728,0.546708,0.13711,-0.503259,-0.654993,0.628946,0.609268,-0.489975,-92.211082,-39.725315,-106.306946,0,0
2200,2024 8 08,15:40:27.737,0.544672,0.125266,-0.503328,-0.658987,-0.653066,1.204129,0.092501,-98.267296,-117.675888,66.702133,0,0
2201,2024 8 08,15:40:27.745,0.550421,0.112939,-0.504106,-0.655855,-0.956746,1.256179,-0.30591,-54.822845,-42.984993,178.921402,0,0
2202,2024 8 08,15:40:27.753,0.552417,0.110705,-0.504281,-0.654392,-0.988194,1.238978,-0.289199,-48.773323,-35.212738,192.600235,0,0
2203,2024 8 08,15:40:27.762,0.565394,0.098844,-0.505359,-0.64426,-1.084952,1.077432,-0.085257,-18.584064,-3.385822,248.295044,0,0
2204,2024 8 08,15:40:27.770,0.581037,0.088447,-0.506897,-0.630479,-0.980105,0.808495,-0.23352,15.888878,31.003681,267.092529,0,0
2205,2024 8 08,15:40:27.778,0.597115,0.080201,-0.508453,-0.615111,-0.716822,0.589122,-0.397032,34.032913,42.948486,265.666382,0,0
2206,2024 8 08,15:40:27.787,0.612201,0.072394,-0.510575,-0.599282,-0.510529,0.399852,-0.432982,41.114738,33.502594,261.460297,0,0
2207,2024 8 08,15:40:27.795,0.624681,0.065044,-0.512909,-0.58514,-0.440376,0.276682,-0.486826,41.454563,17.731892,263.657928,0,0
2208,2024 8 08,15:40:27.803,0.627813,0.062904,-0.513596,-0.581411,-0.436663,0.251551,-0.485428,40.466301,13.463209,265.368774,0,0
2209,2024 8 08,15:40:27.812,0.639682,0.053463,-0.516568,-0.566523,-0.476119,0.178273,-0.436442,32.33976,-3.19496,276.599945,0,0
2210,2024 8 08,15:40:27.820,0.652563,0.041207,-0.51979,-0.549606,-0.543128,0.105691,-0.436871,19.764833,-17.300583,292.447144,0,0
2211,2024 8 08,15:40:27.828,0.665377,0.026512,-0.522828,-0.53194,-0.628025,0.035439,-0.381962,3.132854,-30.718447,308.888458,0,0
2212,2024 8 08,15:40:27.837,0.677964,0.00967,-0.525243,-0.513894,-0.698222,-0.021386,-0.343278,-15.07095,-40.005493,321.788849,0,0
2213,2024 8 08,15:40:27.845,0.688643,-0.006866,-0.52695,-0.497829,-0.751437,-0.051405,-0.266456,-32.112007,-51.604111,327.737671,0,0
2214,2024 8 08,15:40:27.853,0.691833,-0.012273,-0.527438,-0.492832,-0.766588,-0.060605,-0.245169,-37.119228,-55.362408,328.511261,0,0
2215,2024 8 08,15:40:27.862,0.700695,-0.029944,-0.528751,-0.47778,-0.809714,-0.080173,-0.185057,-50.407894,-68.369965,325.564331,0,0
2216,2024 8 08,15:40:27.870,0.709218,-0.051015,-0.530466,-0.461132,-0.887191,-0.053349,-0.075034,-61.120029,-88.734535,319.140015,0,0
2217,2024 8 08,15:40:27.878,0.716315,-0.073353,-0.532675,-0.444241,-1.018072,-0.014461,0.020006,-65.34449,-106.102898,313.574341,0,0
2218,2024 8 08,15:40:27.887,0.722225,-0.095996,-0.535216,-0.426929,-1.203014,0.034499,0.143284,-62.170815,-116.190125,311.529175,0,0
2219,2024 8 08,15:40:27.895,0.727043,-0.115942,-0.537467,-0.410795,-1.35761,0.082583,0.277475,-52.945595,-115.153282,311.753662,0,0
2220,2024 8 08,15:40:27.903,0.728781,-0.122962,-0.538209,-0.404841,-1.398055,0.094576,0.310182,-48.841202,-113.630974,311.870331,0,0
2221,2024 8 08,15:40:27.912,0.733205,-0.139844,-0.539737,-0.388858,-1.421604,0.094396,0.317349,-34.226498,-104.912148,312.069214,0,0
2222,2024 8 08,15:40:27.920,0.738146,-0.15802,-0.541434,-0.369572,-1.421764,0.066397,0.325529,-15.631693,-100.978271,310.25589,0,0
2223,2024 8 08,15:40:27.928,0.742769,-0.175443,-0.543494,-0.348761,-1.425246,0.03201,0.288871,2.580956,-103.892792,306.183868,0,0
2224,2024 8 08,15:40:27.937,0.746592,-0.191801,-0.546292,-0.32688,-1.526688,-0.013791,0.256562,19.78647,-112.934135,301.668457,0,0
2225,2024 8 08,15:40:27.945,0.749429,-0.205727,-0.549282,-0.306422,-1.678984,-0.068412,0.236587,33.625309,-118.391022,298.183899,0,0
2226,2024 8 08,15:40:27.953,0.750486,-0.211162,-0.550519,-0.298113,-1.737087,-0.099425,0.229749,38.912239,-120.094963,296.71048,0,0
2227,2024 8 08,15:40:27.962,0.752332,-0.222235,-0.553452,-0.27917,-1.841696,-0.222991,0.220572,48.955467,-121.07077,292.680695,0,0
2228,2024 8 08,15:40:27.970,0.754027,-0.234096,-0.55689,-0.256972,-1.908177,-0.414156,0.206951,58.665287,-121.005936,285.161346,0,0
2229,2024 8 08,15:40:27.978,0.755161,-0.245303,-0.560582,-0.234028,-1.938901,-0.642323,0.180169,65.758865,-122.739098,273.364624,0,0
2230,2024 8 08,15:40:27.987,0.755379,-0.255447,-0.564738,-0.21136,-1.940036,-0.847815,0.11994,70.57753,-128.695938,257.074493,0,0
2231,2024 8 08,15:40:27.995,0.754282,-0.268022,-0.571271,-0.181239,-1.981389,-1.115259,0.013281,73.504509,-141.295029,231.875275,0,0
2232,2024 8 08,15:40:28.003,0.754267,-0.268201,-0.571364,-0.180811,-1.981976,-1.119059,0.011765,73.546097,-141.47406,231.517212,0,0
2233,2024 8 08,15:40:28.012,0.751786,-0.275898,-0.577021,-0.160379,-2.055279,-1.297949,-0.081636,72.905495,-150.056183,220.537689,0,0
2234,2024 8 08,15:40:28.020,0.748595,-0.283728,-0.58272,-0.139668,-2.122382,-1.49886,-0.150072,68.96888,-148.991577,219.946228,0,0
2235,2024 8 08,15:40:28.028,0.745418,-0.291626,-0.587358,-0.119477,-2.067773,-1.784548,-0.190251,62.625546,-135.562546,219.742371,0,0
2236,2024 8 08,15:40:28.037,0.742337,-0.299306,-0.590905,-0.100694,-1.805737,-1.989719,-0.131462,53.019707,-120.485435,208.05957,0,0
2237,2024 8 08,15:40:28.045,0.738755,-0.306101,-0.594517,-0.083964,-1.509828,-2.088429,0.042563,44.891979,-122.464966,180.163681,0,0
2238,2024 8 08,15:40:28.053,0.733808,-0.311323,-0.599798,-0.069323,-1.333544,-2.100598,0.359864,41.988052,-141.37944,142.674789,0,0
2239,2024 8 08,15:40:28.062,0.733267,-0.311893,-0.600375,-0.067722,-1.31427,-2.101928,0.394555,41.670555,-143.447433,138.575989,0,0
2240,2024 8 08,15:40:28.070,0.727802,-0.314599,-0.606719,-0.056487,-1.206762,-2.146859,0.627685,44.113258,-154.204346,107.299995,0,0
2241,2024 8 08,15:40:28.078,0.721678,-0.315994,-0.614187,-0.0454,-1.236608,-2.438278,0.768751,48.813808,-151.679077,82.663826,0,0
2242,2024 8 08,15:40:28.087,0.71613,-0.316184,-0.621186,-0.035695,-1.409508,-2.845158,0.79122,48.054935,-131.629333,66.250076,0,0
2243,2024 8 08,15:40:28.095,0.712428,-0.315687,-0.626044,-0.02885,-1.480692,-3.133802,0.653909,36.625271,-82.954163,46.496197,0,0
2244,2024 8 08,15:40:28.103,0.71107,-0.314989,-0.628057,-0.026419,-1.357972,-3.103427,0.465977,10.485565,-24.516998,18.918234,0,0
2245,2024 8 08,15:40:28.112,0.710829,-0.314865,-0.628415,-0.025987,-1.336205,-3.098039,0.432642,5.849065,-14.151772,14.026623,0,0
2246,2024 8 08,15:40:28.120,0.711056,-0.314286,-0.628343,-0.028403,-1.646078,-2.752219,0.044089,-18.93845,11.320632,-13.102879,0,0
2247,2024 8 08,15:40:28.128,0.704151,-0.313555,-0.635567,-0.042736,-1.409651,-0.722796,2.807916,-134.085205,-64.431679,-186.461899,0,0
2248,2024 8 08,15:40:28.137,0.704962,-0.315697,-0.631039,-0.070117,-0.950691,0.619653,-1.332454,-239.032104,150.668762,-212.69725,1,0
2249,2024 8 08,15:40:28.145,0.705228,-0.315097,-0.627953,-0.093896,-0.990972,0.693781,-0.4057,-146.685196,104.687881,-187.728775,0,0
2250,2024 8 08,15:40:28.153,0.703668,-0.311872,-0.628369,-0.112152,-1.284155,0.354023,0.143391,-95.969116,47.701786,-179.375244,0,0
2251,2024 8 08,15:40:28.162,0.7033,-0.311112,-0.628466,-0.116457,-1.353274,0.273923,0.272843,-84.012489,34.26696,-177.405853,0,0
2252,2024 8 08,15:40:28.170,0.705432,-0.303317,-0.627696,-0.127615,-1.401415,-0.094259,0.199218,-20.631424,97.289902,-173.066071,0,0
2253,2024 8 08,15:40:28.178,0.710758,-0.292872,-0.624094,-0.139398,-1.323528,-0.252884,-0.151792,17.54768,128.559158,-151.912766,0,0
2254,2024 8 08,15:40:28.187,0.716187,-0.283262,-0.620194,-0.148596,-1.300287,-0.283082,-0.067042,22.714403,119.098709,-114.572769,0,0
2255,2024 8 08,15:40:28.195,0.722339,-0.274629,-0.6152,-0.155654,-1.098958,-0.200386,-0.131836,35.33625,126.977814,-86.590004,0,0
2256,2024 8 08,15:40:28.203,0.728352,-0.266206,-0.610595,-0.160371,-1.101179,-0.213436,-0.200869,52.942379,107.708694,-67.265121,0,0
2257,2024 8 08,15:40:28.212,0.730074,-0.263794,-0.609276,-0.161723,-1.101815,-0.217174,-0.22064,57.984787,102.190002,-61.730457,0,0
2258,2024 8 08,15:40:28.220,0.734607,-0.257374,-0.606089,-0.163474,-1.124396,-0.216917,-0.148416,63.794281,100.608833,-50.220158,0,0
2259,2024 8 08,15:40:28.228,0.740089,-0.250153,-0.601965,-0.165139,-1.05435,-0.164815,-0.162195,60.9328,99.33448,-43.012199,0,0
2260,2024 8 08,15:40:28.237,0.745376,-0.24336,-0.597811,-0.166582,-1.076849,-0.151356,-0.107684,55.482201,92.424011,-36.383308,0,0
2261,2024 8 08,15:40:28.245,0.750764,-0.236806,-0.593373,-0.167686,-1.066888,-0.176993,-0.106853,56.836552,94.917763,-29.151365,0,0
2262,2024 8 08,15:40:28.253,0.75592,-0.230754,-0.588984,-0.168442,-1.032128,-0.14628,-0.051967,51.585911,86.54126,-23.843594,0,0
2263,2024 8 08,15:40:28.262,0.758483,-0.227745,-0.586802,-0.168817,-1.014849,-0.131014,-0.024683,48.97588,82.377403,-21.205162,0,0
2264,2024 8 08,15:40:28.270,0.759071,-0.227086,-0.586269,-0.168896,-1.022345,-0.120824,-0.022361,47.502373,81.194763,-20.640696,0,0
2265,2024 8 08,15:40:28.278,0.763141,-0.222498,-0.582576,-0.169433,-1.073196,-0.057438,-0.015224,38.722446,72.897827,-17.317799,0,0
2266,2024 8 08,15:40:28.287,0.766928,-0.217933,-0.579195,-0.169856,-1.081494,-0.062445,-0.046852,40.870163,65.075089,-17.62801,0,0
2267,2024 8 08,15:40:28.295,0.770371,-0.213393,-0.576246,-0.170074,-1.025729,-0.102061,-0.021313,40.551537,59.2019,-16.632519,0,0
2268,2024 8 08,15:40:28.303,0.773427,-0.209451,-0.573498,-0.170396,-1.01879,-0.095378,-0.040692,33.322399,52.931648,-14.597519,0,0
2269,2024 8 08,15:40:28.312,0.775614,-0.206411,-0.571558,-0.170697,-1.010203,-0.14609,0.057189,27.963039,42.58197,-14.864743,0,0
2270,2024 8 08,15:40:28.320,0.776045,-0.2058,-0.571163,-0.170797,-1.001563,-0.150276,0.068239,26.314943,40.631832,-14.705367,0,0
2271,2024 8 08,15:40:28.328,0.777677,-0.203459,-0.569612,-0.171354,-0.962183,-0.143941,0.070979,18.170685,33.049473,-13.330338,0,0
2272,2024 8 08,15:40:28.337,0.778893,-0.201716,-0.568346,-0.172097,-1.025144,-0.11972,0.006626,11.78396,24.296465,-12.052427,0,0
2273,2024 8 08,15:40:28.345,0.779707,-0.200331,-0.567441,-0.173015,-1.022397,-0.104492,0.011938,4.930413,18.883017,-12.74752,0,0
2274,2024 8 08,15:40:28.353,0.780224,-0.199284,-0.566767,-0.174101,-1.023885,-0.095444,-0.008664,0.764338,15.070927,-13.579335,0,0
2275,2024 8 08,15:40:28.362,0.780438,-0.19859,-0.56637,-0.175223,-1.038205,-0.07081,0.015677,-3.43829,10.746119,-14.675085,0,0
2276,2024 8 08,15:40:28.370,0.780472,-0.198408,-0.566281,-0.175567,-1.040818,-0.070589,0.014925,-4.261234,9.726484,-14.962957,0,0
2277,2024 8 08,15:40:28.378,0.780445,-0.197895,-0.566107,-0.176819,-1.042882,-0.09045,-0.01325,-5.638616,7.219185,-15.786963,0,0
2278,2024 8 08,15:40:28.387,0.780245,-0.197467,-0.566056,-0.17834,-1.041472,-0.07448,-0.007614,-8.067016,4.537084,-16.40379,0,0
2279,2024 8 08,15:40:28.395,0.779976,-0.19711,-0.566067,-0.179868,-1.036209,-0.108496,-0.007309,-7.585546,3.959679,-15.973383,0,0
2280,2024 8 08,15:40:28.403,0.779648,-0.196811,-0.566128,-0.181418,-1.049629,-0.095755,0.012291,-9.013393,2.675379,-15.811655,0,0
2281,2024 8 08,15:40:28.412,0.779399,-0.196498,-0.566148,-0.182762,-1.062632,-0.116868,-0.002126,-6.951425,3.910734,-15.572853,0,0
2282,2024 8 08,15:40:28.420,0.779324,-0.196385,-0.566145,-0.183214,-1.064078,-0.12124,-0.007724,-6.458481,4.281774,-15.418507,0,0
2283,2024 8 08,15:40:28.428,0.779179,-0.19604,-0.566073,-0.184416,-1.054968,-0.122469,-0.021173,-6.04463,5.29639,-14.632638,0,0
2284,2024 8 08,15:40:28.437,0.779113,-0.195615,-0.565884,-0.185721,-1.050912,-0.137913,-0.008091,-5.308074,7.734317,-13.604102,0,0
2285,2024 8 08,15:40:28.445,0.779168,-0.195162,-0.565544,-0.186998,-1.043576,-0.13753,-0.013628,-5.18183,9.226711,-12.394636,0,0
2286,2024 8 08,15:40:28.453,0.779318,-0.194769,-0.565054,-0.188258,-1.027857,-0.122199,-0.004527,-5.764889,11.065531,-11.10183,0,0
2287,2024 8 08,15:40:28.462,0.779519,-0.194441,-0.564535,-0.189318,-1.039478,-0.117181,0.006129,-5.921007,11.976452,-9.918542,0,0
2288,2024 8 08,15:40:28.470,0.7796,-0.194323,-0.564328,-0.189725,-1.043015,-0.116643,0.009964,-6.034683,12.186652,-9.556702,0,0
2289,2024 8 08,15:40:28.478,0.779807,-0.19409,-0.563802,-0.190674,-1.043776,-0.124408,0.019967,-6.304028,12.113877,-9.230697,0,0
2290,2024 8 08,15:40:28.487,0.780064,-0.193811,-0.563174,-0.191759,-1.032868,-0.140105,0.04064,-5.109609,12.752644,-9.17008,0,0
2291,2024 8 08,15:40:28.495,0.780314,-0.193515,-0.562541,-0.192892,-1.054319,-0.12319,0.027457,-5.142084,11.957689,-9.421556,0,0
2292,2024 8 08,15:40:28.503,0.780546,-0.193142,-0.561966,-0.194,-1.071059,-0.094212,0.018567,-5.255392,11.585412,-9.884796,0,0
2293,2024 8 08,15:40:28.512,0.780833,-0.192586,-0.561395,-0.195051,-1.062142,-0.103168,0.037337,-3.154217,12.413757,-10.427916,0,0
2294,2024 8 08,15:40:28.520,0.781153,-0.191954,-0.560844,-0.195976,-1.070556,-0.122971,0.039143,-0.680544,13.702517,-10.637825,0,0
2295,2024 8 08,15:40:28.528,0.781311,-0.191641,-0.560571,-0.196433,-1.074719,-0.132767,0.040036,0.543149,14.340049,-10.741664,0,0
2296,2024 8 08,15:40:28.537,0.781692,-0.190829,-0.559972,-0.197418,-1.07761,-0.132816,-0.008275,0.429603,13.446289,-10.682384,0,0
2297,2024 8 08,15:40:28.545,0.782071,-0.189977,-0.559394,-0.198374,-1.039979,-0.133759,0.01714,0.898424,13.958369,-10.740083,0,0
2298,2024 8 08,15:40:28.553,0.782426,-0.189086,-0.558855,-0.199342,-1.019647,-0.134256,0.025446,2.016813,13.454061,-12.134253,0,0
2299,2024 8 08,15:40:28.562,0.782748,-0.188194,-0.558338,-0.20037,-1.052489,-0.0945,0.08575,0.071121,12.400652,-12.773934,0,0
2300,2024 8 08,15:40:28.570,0.783135,-0.187063,-0.557814,-0.201371,-1.047788,-0.135266,0.068802,2.371099,12.897864,-14.053158,0,0
2301,2024 8 08,15:40:28.578,0.783164,-0.186977,-0.557774,-0.201447,-1.047431,-0.138368,0.067513,2.546089,12.935694,-14.150485,0,0
2302,2024 8 08,15:40:28.587,0.783401,-0.185953,-0.557411,-0.202476,-1.069732,-0.119815,0.055137,2.397474,10.859101,-15.144404,0,0
2303,2024 8 08,15:40:28.595,0.783593,-0.184764,-0.557107,-0.203656,-1.03832,-0.129585,0.047832,1.248876,10.917636,-17.296606,0,0
2304,2024 8 08,15:40:28.603,0.783675,-0.183619,-0.556894,-0.204954,-1.099898,-0.115794,0.054239,1.756652,9.114328,-18.074495,0,0
2305,2024 8 08,15:40:28.612,0.783632,-0.182397,-0.556817,-0.206413,-1.087075,-0.141784,-0.007973,0.875402,8.099261,-20.640762,0,0
2306,2024 8 08,15:40:28.620,0.783452,-0.181196,-0.55682,-0.20814,-1.099402,-0.145363,0.05144,-1.266722,7.700382,-23.792179,0,0
2307,2024 8 08,15:40:28.628,0.783425,-0.181017,-0.55682,-0.208398,-1.10124,-0.145897,0.060298,-1.586091,7.640913,-24.262024,0,0
2308,2024 8 08,15:40:28.637,0.783169,-0.179963,-0.556847,-0.210192,-1.114858,-0.161729,0.005596,-3.504516,6.167847,-27.012018,0,0
2309,2024 8 08,15:40:28.645,0.782648,-0.178874,-0.557014,-0.212602,-1.131534,-0.146101,0.050052,-8.116894,5.019311,-31.318161,0,0
2310,2024 8 08,15:40:28.653,0.782027,-0.177728,-0.557169,-0.215419,-1.134953,-0.164122,-0.00209,-9.691546,4.319048,-35.001534,0,0
2311,2024 8 08,15:40:28.662,0.781121,-0.176709,-0.557491,-0.218687,-1.165142,-0.177291,-0.004313,-13.636325,1.80476,-39.447639,0,0
2312,2024 8 08,15:40:28.670,0.779987,-0.175698,-0.557896,-0.222478,-1.180057,-0.1692,0.02364,-16.494652,2.257181,-44.949615,0,0
2313,2024 8 08,15:40:28.678,0.779748,-0.175484,-0.557982,-0.223279,-1.18321,-0.16749,0.029549,-17.098915,2.352825,-46.112755,0,0
2314,2024 8 08,15:40:28.687,0.778739,-0.174528,-0.558211,-0.226938,-1.192146,-0.165988,0.00239,-21.44582,2.373954,-51.285358,0,0
2315,2024 8 08,15:40:28.695,0.777309,-0.173442,-0.558608,-0.231639,-1.215298,-0.169344,0.028334,-23.741678,1.592432,-56.593025,0,0
2316,2024 8 08,15:40:28.703,0.775649,-0.1722,-0.55903,-0.23704,-1.200722,-0.161003,0.061605,-27.262348,1.771152,-63.485668,0,0
2317,2024 8 08,15:40:28.712,0.773953,-0.170572,-0.559374,-0.242867,-1.188793,-0.147367,0.075281,-25.153904,3.622747,-69.081413,0,0
2318,2024 8 08,15:40:28.720,0.771985,-0.168496,-0.560058,-0.24892,-1.172867,-0.124214,0.128816,-22.200811,-0.100022,-75.877571,0,0
2319,2024 8 08,15:40:28.728,0.771464,-0.167946,-0.560239,-0.250525,-1.168643,-0.118074,0.143014,-21.41761,-1.087353,-77.680008,0,0
2320,2024 8 08,15:40:28.737,0.76992,-0.165566,-0.560902,-0.255314,-1.189841,-0.161799,0.07355,-14.218277,1.174752,-80.486763,0,0
2321,2024 8 08,15:40:28.745,0.768083,-0.162307,-0.561732,-0.261033,-1.250034,-0.15995,0.109945,-9.514622,3.62487,-84.558067,0,0
2322,2024 8 08,15:40:28.753,0.766114,-0.477032,-0.378012,-0.20644,-1.293418,-0.14131,0.052845,-6.530637,4.547556,-93.50737,0,0
2323,2024 8 08,15:40:28.762,0.763615,-0.153679,-0.563949,-0.274211,-1.332665,-0.162801,0.058513,-4.841424,-0.077204,-104.486771,0,0
2324,2024 8 08,15:40:28.770,0.760903,-0.148376,-0.565281,-0.281798,-1.414147,-0.178374,0.042861,-3.323966,4.06989,-116.104774,0,0
2325,2024 8 08,15:40:28.778,0.760057,-0.146721,-0.565697,-0.284166,-1.439581,-0.183235,0.037975,-2.850292,5.364404,-119.731331,0,0
2326,2024 8 08,15:40:28.787,0.757754,-0.141809,-0.566525,-0.291039,-1.488931,-0.155341,0.029216,-3.435165,9.295082,-131.809372,0,0
2327,2024 8 08,15:40:28.795,0.756149,-0.138373,-0.567071,-0.295808,-1.533026,-0.140751,0.019029,-3.813834,11.51878,-140.238388,0,0
2328,2024 8 08,15:40:28.803,0.752651,-0.13082,-0.56804,-0.30611,-1.682098,-0.134889,-0.011921,-4.791563,14.450529,-158.973206,0,0
2329,2024 8 08,15:40:28.812,0.748729,-0.122194,-0.568622,-0.31796,-1.844678,-0.13315,0.003139,-7.804728,23.304863,-182.379272,0,0
2330,2024 8 08,15:40:28.820,0.744485,-0.112126,-0.568389,-0.331724,-1.90853,-0.134516,-0.137751,-11.786371,36.408314,-209.697617,0,0
2331,2024 8 08,15:40:28.828,0.740282,-0.10245,-0.56764,-0.345324,-2.013458,-0.095255,-0.140458,-19.013988,46.425777,-234.746948,0,0
2332,2024 8 08,15:40:28.837,0.739326,-0.100246,-0.567366,-0.3484,-2.030123,-0.07882,-0.134191,-19.65871,48.564766,-240.695236,0,0
2333,2024 8 08,15:40:28.845,0.733995,-0.087888,-0.565535,-0.365478,-2.111191,-0.004323,-0.09106,-21.141298,60.083778,-273.129242,0,0
2334,2024 8 08,15:40:28.853,0.727614,-0.072967,-0.562738,-0.385237,-2.217621,-0.091202,-0.053179,-20.880899,71.454041,-303.361694,0,0
2335,2024 8 08,15:40:28.862,0.719963,-0.056041,-0.559537,-0.406458,-2.304176,-0.09011,0.073697,-15.224778,79.421524,-333.115448,0,0
2336,2024 8 08,15:40:28.870,0.712175,-0.036459,-0.554666,-0.428426,-2.209628,-0.316361,0.055145,-2.562407,106.407173,-353.986481,0,0
2337,2024 8 08,15:40:28.878,0.704854,-0.017639,-0.549682,-0.447833,-2.108302,-0.542533,0.094829,7.561329,115.457397,-365.70816,0,0
2338,2024 8 08,15:40:28.887,0.702798,-0.012516,-0.548292,-0.452935,-2.099656,-0.569791,0.105108,8.997377,116.503166,-367.013977,0,1
2339,2024 8 08,15:40:28.895,0.694646,0.007188,-0.54272,-0.471786,-2.113881,-0.550117,0.127254,10.062808,116.888039,-364.795197,0,0
2340,2024 8 08,15:40:28.903,0.685514,0.029032,-0.535762,-0.491763,-1.980875,-0.507937,0.0601,12.456264,125.518997,-358.931152,0,0
2341,2024 8 08,15:40:28.912,0.676156,0.051059,-0.527947,-0.510978,-1.703443,-0.399747,0.007964,12.772758,128.445572,-350.85791,0,0
2342,2024 8 08,15:40:28.920,0.66628,0.072639,-0.519971,-0.529187,-1.439183,-0.234361,-0.12474,15.6499,120.837456,-342.264404,0,0
2343,2024 8 08,15:40:28.928,0.656674,0.090952,-0.513205,-0.544857,-1.223717,-0.001107,-0.223642,13.240813,103.927765,-336.722443,0,0
2344,2024 8 08,15:40:28.937,0.653415,0.096574,-0.511121,-0.54984,-1.148882,0.063665,-0.256362,11.720509,97.469604,-335.256989,0,0
2345,2024 8 08,15:40:28.945,0.642648,0.111987,-0.50542,-0.564565,-0.916495,0.195255,-0.341407,4.307799,72.479446,-332.538727,0,0
2346,2024 8 08,15:40:28.953,0.628881,0.127618,-0.499833,-0.581404,-0.666789,0.207135,-0.386044,-2.312802,40.802868,-329.635132,0,0
2347,2024 8 08,15:40:28.962,0.614285,0.141602,-0.494127,-0.598397,0.170532,0.081352,-0.75012,-18.89193,27.830856,-310.27475,0,0
2348,2024 8 08,15:40:28.970,0.601586,0.150836,-0.48833,-0.613672,0.845602,0.262298,-0.824646,-51.551247,-2.631266,-239.850754,0,0
2349,2024 8 08,15:40:28.978,0.591091,0.150646,-0.486225,-0.625563,0.079107,0.061759,-0.215419,-81.45163,-85.625694,-130.813507,0,0
2350,2024 8 08,15:40:28.987,0.586537,0.144213,-0.484969,-0.632373,-0.324996,0.506922,-0.196715,-87.345169,-74.470634,-17.096573,0,0
2351,2024 8 08,15:40:28.995,0.58583,0.141381,-0.484542,-0.634028,-0.452271,0.639902,-0.177471,-88.276062,-69.006546,23.165848,0,0
2352,2024 8 08,15:40:29.003,0.589765,0.132219,-0.483755,-0.632929,-0.6489,0.761594,-0.064338,-81.664566,-46.602295,106.788666,0,0
2353,2024 8 08,15:40:29.012,0.598814,0.121364,-0.482989,-0.627104,-0.854988,0.681898,0.055964,-58.470284,-5.285904,177.411621,0,0
2354,2024 8 08,15:40:29.020,0.611731,0.1117,-0.481665,-0.617309,-0.716073,0.568329,-0.03998,-33.299438,31.840954,217.909973,0,0
2355,2024 8 08,15:40:29.028,0.62571,0.102981,-0.4809,-0.605249,-0.561403,0.490282,-0.075741,-12.056564,38.169693,232.304077,0,0
2356,2024 8 08,15:40:29.037,0.638058,0.095687,-0.48091,-0.593466,-0.403554,0.457397,-0.143106,3.684263,33.124199,231.546661,0,0
2357,2024 8 08,15:40:29.045,0.642991,0.092709,-0.48107,-0.588558,-0.355712,0.43783,-0.162188,9.330605,29.973783,230.39238,0,0
2358,2024 8 08,15:40:29.053,0.652476,0.086498,-0.482429,-0.577807,-0.3513,0.364972,-0.150096,16.914688,16.381077,223.46933,0,0
2359,2024 8 08,15:40:29.062,0.662204,0.079142,-0.485287,-0.565214,-0.38251,0.291305,-0.103636,26.107601,-5.660883,216.466309,0,0
2360,2024 8 08,15:40:29.070,0.674656,0.068285,-0.490771,-0.547093,-0.47071,0.219557,-0.084687,38.617706,-30.72612,212.145386,0,0
2361,2024 8 08,15:40:29.078,0.682764,0.059462,-0.496397,-0.532802,-0.571051,0.187869,-0.044538,42.973724,-44.431393,217.210052,0,0
2362,2024 8 08,15:40:29.087,0.690605,0.050117,-0.502599,-0.517619,-0.665433,0.114927,-0.0243,47.125378,-50.755955,227.878052,0,0
2363,2024 8 08,15:40:29.095,0.69092,0.04974,-0.502849,-0.517008,-0.669232,0.111991,-0.023486,47.2925,-51.010544,228.30748,0,0
2364,2024 8 08,15:40:29.103,0.698531,0.040403,-0.508719,-0.501594,-0.703082,0.036362,-0.043445,48.835915,-50.740231,240.321396,0,0
2365,2024 8 08,15:40:29.112,0.706573,0.02978,-0.51484,-0.48452,-0.756462,-0.051222,-0.030911,46.252411,-55.594532,253.291336,0,0
2366,2024 8 08,15:40:29.120,0.71449,0.018054,-0.520888,-0.46668,-0.813359,-0.112221,-0.037402,39.858978,-62.006721,264.44812,0,0
2367,2024 8 08,15:40:29.128,0.72198,0.005149,-0.526856,-0.448401,-0.913653,-0.181109,-0.028432,31.854027,-70.340057,272.030243,0,0
2368,2024 8 08,15:40:29.137,0.728866,-0.008801,-0.532603,-0.430021,-0.99607,-0.224101,0.003018,22.411137,-76.918999,275.254333,0,0
2369,2024 8 08,15:40:29.145,0.729684,-0.010458,-0.533285,-0.427838,-1.00586,-0.229208,0.006754,21.289394,-77.700523,275.637329,0,0
2370,2024 8 08,15:40:29.153,0.735102,-0.023554,-0.538073,-0.41166,-1.104517,-0.241995,0.041095,14.090477,-81.929573,275.53067,0,0
2371,2024 8 08,15:40:29.162,0.740601,-0.038464,-0.542963,-0.393827,-1.227002,-0.252061,0.103711,7.912238,-82.633995,273.762909,0,0
2372,2024 8 08,15:40:29.170,0.745804,-0.05366,-0.547281,-0.37582,-1.321086,-0.264187,0.150353,3.606836,-78.825027,272.423401,0,0
2373,2024 8 08,15:40:29.178,0.750904,-0.068737,-0.550779,-0.357642,-1.376723,-0.261761,0.2002,3.250606,-71.118896,273.458527,0,0
2374,2024 8 08,15:40:29.187,0.756131,-0.083393,-0.553357,-0.339028,-1.414223,-0.264113,0.208133,6.65827,-60.747894,276.217468,0,0
2375,2024 8 08,15:40:29.195,0.757101,-0.086111,-0.553835,-0.335577,-1.421177,-0.264549,0.209604,7.290217,-58.824604,276.729095,0,0
2376,2024 8 08,15:40:29.203,0.76149,-0.097955,-0.555324,-0.319429,-1.44574,-0.280876,0.200611,11.909197,-54.098064,278.327637,0,0
2377,2024 8 08,15:40:29.212,0.76636,-0.111124,-0.556683,-0.300443,-1.46683,-0.301037,0.146435,17.680355,-51.026154,279.038055,0,0
2378,2024 8 08,15:40:29.220,0.770905,-0.124209,-0.557989,-0.280557,-1.526455,-0.34952,0.081201,23.260921,-52.629105,278.436279,0,0
2379,2024 8 08,15:40:29.228,0.774909,-0.136923,-0.559271,-0.260288,-1.602845,-0.425645,0.009516,27.682652,-54.15398,276.577057,0,0
2380,2024 8 08,15:40:29.237,0.778283,-0.149221,-0.560553,-0.239881,-1.662695,-0.515639,-0.04334,31.018448,-57.5033,273.379791,0,0
2381,2024 8 08,15:40:29.245,0.779102,-0.152206,-0.560864,-0.234927,-1.677222,-0.537483,-0.05617,31.828148,-58.316284,272.603729,0,0
2382,2024 8 08,15:40:29.253,0.781141,-0.161711,-0.561967,-0.218426,-1.710742,-0.611705,-0.090702,33.87587,-61.129448,268.405548,0,0
2383,2024 8 08,15:40:29.262,0.782907,-0.172472,-0.563389,-0.199198,-1.748983,-0.696459,-0.128496,35.786766,-65.684853,262.378387,0,0
2384,2024 8 08,15:40:29.270,0.784044,-0.183177,-0.564988,-0.179588,-1.768393,-0.763523,-0.144268,36.079956,-69.45739,254.166504,0,0
2385,2024 8 08,15:40:29.278,0.784427,-0.193422,-0.566814,-0.160365,-1.784195,-0.831456,-0.194882,36.161064,-74.847725,242.853638,0,0
2386,2024 8 08,15:40:29.287,0.7839,-0.203081,-0.569089,-0.141888,-1.787662,-0.913038,-0.208945,35.195484,-81.497383,228.972977,0,0
2387,2024 8 08,15:40:29.295,0.783746,-0.205906,-0.569755,-0.136483,-1.788675,-0.9369,-0.213058,34.913067,-83.442307,224.913086,0,0
2388,2024 8 08,15:40:29.303,0.782502,-0.212919,-0.571921,-0.122981,-1.700495,-1.002267,-0.241545,31.632164,-87.979187,212.129562,0,0
2389,2024 8 08,15:40:29.312,0.780187,-0.220855,-0.575062,-0.107926,-1.552212,-1.110913,-0.256633,26.08799,-97.654099,196.464462,0,0
2390,2024 8 08,15:40:29.320,0.776559,-0.228902,-0.579351,-0.093278,-1.405065,-1.219889,-0.239651,18.249561,-113.791321,179.428314,0,0
2391,2024 8 08,15:40:29.328,0.771271,-0.236779,-0.585235,-0.079707,-1.318555,-1.314955,-0.14294,8.881436,-136.87117,159.195129,0,0
2392,2024 8 08,15:40:29.337,0.767563,-0.241644,-0.589333,-0.071426,-1.269666,-1.364737,-0.068398,3.37168,-152.02681,145.392166,0,0
2393,2024 8 08,15:40:29.345,0.760687,-0.247738,-0.596813,-0.061556,-1.231352,-1.381986,0.099805,-2.136672,-175.56665,121.499252,0,0
2394,2024 8 08,15:40:29.353,0.75928,-0.248622,-0.598361,-0.060057,-1.242561,-1.394949,0.13831,-2.62762,-178.47699,116.975075,0,0
2395,2024 8 08,15:40:29.362,0.749992,-0.25389,-0.608618,-0.05083,-1.328745,-1.495019,0.386752,-4.00513,-193.769821,87.82222,0,0
2396,2024 8 08,15:40:29.370,0.740196,-0.257451,-0.619628,-0.042879,-1.406066,-1.644138,0.593792,3.044196,-191.891006,60.54216,0,0
2397,2024 8 08,15:40:29.378,0.731199,-0.259276,-0.629892,-0.036337,-1.4783,-1.781755,0.761959,9.781076,-169.095352,41.536098,0,0
2398,2024 8 08,15:40:29.387,0.724471,-0.259756,-0.637717,-0.031031,-1.510162,-1.958279,0.770196,16.716822,-123.860229,32.470661,0,0
2399,2024 8 08,15:40:29.395,0.720893,-0.259493,-0.642038,-0.027496,-1.463486,-2.074433,0.692642,20.604576,-72.123474,26.074171,0,0
2400,2024 8 08,15:40:29.403,0.720447,-0.259334,-0.642631,-0.026944,-1.443057,-2.092383,0.660116,20.362829,-60.002739,23.564932,0,0
2401,2024 8 08,15:40:29.412,0.720056,-0.258274,-0.64354,-0.025848,-1.309787,-2.120665,0.470778,14.800142,-11.685509,8.835326,0,0
2402,2024 8 08,15:40:29.420,0.721175,-0.256637,-0.642889,-0.027112,-1.077094,-2.021705,0.23891,3.121617,20.939243,-12.554919,0,0
2403,2024 8 08,15:40:29.428,0.722684,-0.254856,-0.641747,-0.030518,-0.992679,-1.783562,0.098374,-9.766848,32.769737,-29.651833,0,0
2404,2024 8 08,15:40:29.437,0.723368,-0.253373,-0.64125,-0.036151,-1.029181,-1.280034,0.254868,-36.036003,22.10479,-54.059631,0,0
2405,2024 8 08,15:40:29.445,0.719433,-0.252932,-0.645137,-0.046942,-0.455396,0.074447,2.1952,-142.585953,-65.670692,-160.745743,0,0
2406,2024 8 08,15:40:29.453,0.719103,-0.252867,-0.645196,-0.051119,-0.404289,0.370751,2.000914,-158.746826,-54.69775,-177.542343,1,0
2407,2024 8 08,15:40:29.462,0.72111,-0.252635,-0.641369,-0.068554,-0.715163,0.797862,-1.110423,-143.214935,97.136078,-171.633713,0,0
2408,2024 8 08,15:40:29.470,0.720358,-0.250096,-0.641098,-0.086031,-0.970192,0.610443,-0.136155,-102.97757,30.734726,-174.936127,0,0
2409,2024 8 08,15:40:29.478,0.718096,-0.244478,-0.64374,-0.100242,-1.442576,-0.014879,-0.181454,-53.863373,9.638077,-174.337769,0,0
2410,2024 8 08,15:40:29.487,0.718794,-0.236466,-0.643697,-0.11379,-1.515067,-0.248431,0.062509,-28.681675,73.352264,-166.741394,0,0
2411,2024 8 08,15:40:29.495,0.722882,-0.22798,-0.639863,-0.126162,-1.346354,-0.285237,0.031637,-12.930508,113.815956,-141.251633,0,0
2412,2024 8 08,15:40:29.503,0.727365,-0.221179,-0.635304,-0.135361,-1.247921,-0.317716,0.099001,-6.375219,121.683006,-109.907776,0,0
2413,2024 8 08,15:40:29.512,0.729129,-0.218857,-0.633489,-0.138271,-1.1909,-0.303825,0.082218,-2.492464,124.991409,-99.359207,0,0
2414,2024 8 08,15:40:29.520,0.734419,-0.21326,-0.628025,-0.143776,-0.975374,-0.172846,-0.125709,15.287924,128.939636,-75.733879,0,0
2415,2024 8 08,15:40:29.528,0.73938,-0.207016,-0.623419,-0.147483,-0.99243,-0.200977,-0.132438,34.656815,92.295151,-56.290833,0,0
2416,2024 8 08,15:40:29.537,0.743631,-0.200978,-0.619886,-0.149379,-1.053876,-0.209416,-0.033525,43.370739,78.315262,-40.865768,0,0
2417,2024 8 08,15:40:29.545,0.74774,-0.195605,-0.616332,-0.150722,-1.008632,-0.160023,-0.08449,36.455929,72.382172,-32.065609,0,0
2418,2024 8 08,15:40:29.553,0.750843,-0.191533,-0.613562,-0.151871,-1.061214,-0.122509,-0.043072,31.483135,60.524929,-27.866205,0,0
2419,2024 8 08,15:40:29.562,0.752069,-0.189956,-0.61246,-0.152276,-1.076469,-0.11767,-0.049237,30.594183,57.731003,-26.151876,0,0
2420,2024 8 08,15:40:29.570,0.754816,-0.186605,-0.60995,-0.152883,-1.078456,-0.148127,-0.146281,33.661201,60.843018,-22.041149,0,0
2421,2024 8 08,15:40:29.578,0.758,-0.182852,-0.607026,-0.153289,-1.062395,-0.123698,-0.052932,33.514896,60.614388,-17.630619,0,0
2422,2024 8 08,15:40:29.587,0.761264,-0.179096,-0.604003,-0.153479,-1.052531,-0.153948,-0.033724,33.17878,58.100574,-14.75903,0,0
2423,2024 8 08,15:40:29.595,0.764241,-0.17563,-0.601204,-0.153687,-1.039427,-0.140787,0.003237,30.603863,52.151958,-13.431396,0,0
2424,2024 8 08,15:40:29.603,0.767831,-0.171325,-0.597837,-0.153865,-1.040557,-0.078225,0.021457,23.326782,41.947075,-10.563557,0,0
2425,2024 8 08,15:40:29.612,0.767836,-0.171319,-0.597832,-0.153865,-1.040559,-0.078129,0.021485,23.315622,41.931423,-10.559158,0,0
2426,2024 8 08,15:40:29.620,0.769811,-0.168834,-0.595984,-0.153912,-1.050486,-0.111216,-0.047056,20.952024,34.959099,-9.790976,0,0
2427,2024 8 08,15:40:29.628,0.77143,-0.16676,-0.5944,-0.15419,-1.038692,-0.048003,-0.032451,15.988884,30.491127,-9.883202,0,0
2428,2024 8 08,15:40:29.637,0.772873,-0.164741,-0.59302,-0.15445,-1.042281,-0.081808,-0.052425,15.36033,27.190256,-10.804864,0,0
2429,2024 8 08,15:40:29.645,0.774106,-0.162852,-0.591871,-0.154686,-1.048372,-0.110949,-0.037795,14.814281,23.602997,-9.899257,0,0
2430,2024 8 08,15:40:29.653,0.775218,-0.161123,-0.590807,-0.154996,-1.055946,-0.099268,-0.027813,14.050303,22.560862,-10.167181,0,0
2431,2024 8 08,15:40:29.662,0.775314,-0.160974,-0.590715,-0.155023,-1.0566,-0.09826,-0.026952,13.984406,22.47097,-10.190291,0,0
2432,2024 8 08,15:40:29.670,0.776337,-0.159404,-0.589707,-0.155356,-1.057098,-0.083,-0.04376,13.003333,23.274195,-11.004704,0,0
2433,2024 8 08,15:40:29.678,0.777439,-0.157696,-0.588614,-0.155737,-1.070823,-0.120602,-0.020428,11.986302,23.256872,-10.77504,0,0
2434,2024 8 08,15:40:29.687,0.778481,-0.156058,-0.587521,-0.156305,-1.042177,-0.113444,0.006893,10.438595,22.411974,-11.852812,0,0
2435,2024 8 08,15:40:29.695,0.77943,-0.15463,-0.586472,-0.156933,-1.030821,-0.109567,-0.001055,7.631001,20.84267,-11.270959,0,0
2436,2024 8 08,15:40:29.703,0.780231,-0.153412,-0.585519,-0.157706,-1.048849,-0.123357,-0.004271,4.193818,18.817768,-11.74975,0,0
2437,2024 8 08,15:40:29.712,0.780357,-0.15322,-0.585368,-0.157828,-1.051693,-0.125532,-0.004778,3.65168,18.498386,-11.825269,0,0
2438,2024 8 08,15:40:29.720,0.780875,-0.152412,-0.584663,-0.158658,-1.037383,-0.135092,0.019118,0.66254,16.246254,-11.538231,0,0
2439,2024 8 08,15:40:29.728,0.781308,-0.151592,-0.584007,-0.159727,-1.037977,-0.122598,0.033659,-0.366168,13.57381,-12.670651,0,0
2440,2024 8 08,15:40:29.737,0.781651,-0.150787,-0.583461,-0.160804,-1.028347,-0.118283,0.02823,-0.122664,11.362806,-12.739039,0,0
2441,2024 8 08,15:40:29.745,0.781919,-0.4766,-0.329774,-0.229575,-1.01873,-0.115113,0.022914,1.176618,10.152109,-13.233723,0,0
2442,2024 8 08,15:40:29.753,0.782079,-0.149108,-0.582775,-0.16276,-1.029261,-0.109128,0.04651,0.118081,7.427943,-12.767058,0,0
2443,2024 8 08,15:40:29.762,0.782114,-0.148925,-0.582718,-0.162967,-1.031566,-0.107818,0.051674,-0.113556,6.83182,-12.664939,0,0
2444,2024 8 08,15:40:29.770,0.782265,-0.148187,-0.582512,-0.16365,-1.039142,-0.117167,0.004986,2.291748,7.901695,-12.085076,0,0
2445,2024 8 08,15:40:29.778,0.782409,-0.1473,-0.582329,-0.164412,-1.060373,-0.134785,-0.027725,2.724959,7.513887,-12.176655,0,0
2446,2024 8 08,15:40:29.787,0.782611,-0.146373,-0.582062,-0.165221,-1.031535,-0.119191,0.018219,2.741007,9.139745,-11.791517,0,0
2447,2024 8 08,15:40:29.795,0.782874,-0.145366,-0.581766,-0.165904,-1.019886,-0.146381,-0.006609,4.804774,8.479503,-11.156053,0,0
2448,2024 8 08,15:40:29.803,0.783029,-0.144474,-0.581573,-0.166628,-1.026026,-0.120253,0.074322,3.179297,7.021934,-11.342817,0,0
2449,2024 8 08,15:40:29.812,0.783071,-0.144232,-0.581521,-0.166824,-1.027694,-0.113156,0.096308,2.737714,6.625966,-11.393555,0,0
2450,2024 8 08,15:40:29.820,0.783259,-0.143402,-0.58134,-0.167286,-1.031276,-0.130213,0.034944,4.734801,7.294189,-10.931689,0,0
2451,2024 8 08,15:40:29.828,0.78338,-0.142475,-0.581258,-0.167798,-1.057989,-0.105672,0.059063,4.881396,5.389196,-10.499192,0,0
2452,2024 8 08,15:40:29.837,0.783549,-0.141386,-0.581163,-0.168258,-1.074349,-0.119419,0.028596,7.168438,6.773677,-10.540732,0,0
2453,2024 8 08,15:40:29.845,0.783828,-0.140148,-0.580956,-0.168707,-1.046809,-0.138663,0.020367,8.071001,9.119675,-11.055857,0,0
2454,2024 8 08,15:40:29.853,0.784101,-0.138904,-0.580743,-0.169197,-1.050522,-0.127402,0.049963,7.356927,7.942343,-11.381538,0,0
2455,2024 8 08,15:40:29.862,0.784188,-0.138508,-0.580676,-0.169352,-1.051701,-0.123824,0.059368,7.129992,7.568181,-11.485042,0,0
2456,2024 8 08,15:40:29.870,0.784391,-0.137443,-0.580551,-0.169706,-1.031964,-0.136616,0.064696,9.368467,7.892821,-12.046021,0,0
2457,2024 8 08,15:40:29.878,0.784522,-0.473979,-0.326718,-0.230487,-1.026691,-0.139665,0.067678,10.092875,7.875299,-12.407122,0,0
2458,2024 8 08,15:40:29.887,0.784746,-0.135337,-0.580351,-0.170439,-1.058458,-0.124087,0.060007,7.990761,6.954408,-12.9088,0,0
2459,2024 8 08,15:40:29.895,0.784993,-0.133903,-0.580199,-0.170952,-1.078543,-0.155216,0.001351,9.913616,8.18089,-13.018867,0,0
2460,2024 8 08,15:40:29.903,0.785175,-0.132508,-0.580079,-0.17161,-1.07899,-0.144876,0.019294,8.270031,7.794294,-14.416695,0,0
2461,2024 8 08,15:40:29.912,0.785332,-0.13108,-0.579971,-0.17235,-1.08283,-0.152169,0.025196,6.812051,7.41232,-15.618664,0,0
2462,2024 8 08,15:40:29.920,0.785397,-0.129911,-0.5799,-0.173177,-1.074968,-0.157704,0.007026,5.211685,6.660294,-16.911089,0,0
2463,2024 8 08,15:40:29.928,0.785393,-0.129656,-0.5799,-0.173389,-1.07617,-0.155594,0.012988,4.938313,6.36726,-17.278421,0,0
2464,2024 8 08,15:40:29.937,0.785323,-0.128458,-0.579932,-0.174481,-1.091298,-0.1401,0.053402,3.952734,5.124336,-19.312006,0,0
2465,2024 8 08,15:40:29.945,0.785258,-0.127059,-0.579921,-0.175829,-1.110999,-0.144345,0.012028,3.168282,6.296049,-22.083019,0,0
2466,2024 8 08,15:40:29.953,0.785087,-0.125634,-0.579973,-0.17744,-1.096196,-0.146706,0.011181,1.163054,4.853992,-24.866627,0,0
2467,2024 8 08,15:40:29.962,0.784765,-0.124216,-0.580128,-0.179341,-1.110246,-0.147842,0.051128,-0.876362,3.576905,-28.053589,0,0
2468,2024 8 08,15:40:29.970,0.784423,-0.122925,-0.580278,-0.181234,-1.124369,-0.166885,0.029417,-1.836199,3.082406,-30.647078,0,0
2469,2024 8 08,15:40:29.978,0.784316,-0.12255,-0.58032,-0.181815,-1.126769,-0.170099,0.026945,-2.156131,3.150362,-31.425306,0,0
2470,2024 8 08,15:40:29.987,0.783897,-0.121206,-0.580461,-0.184055,-1.125949,-0.171877,0.034259,-3.673214,3.963984,-34.373688,0,0
2471,2024 8 08,15:40:29.995,0.783359,-0.119676,-0.580616,-0.186838,-1.111503,-0.169374,0.047696,-6.257864,3.093876,-37.920986,0,0
2472,2024 8 08,15:40:30.003,0.782656,-0.118078,-0.580892,-0.189912,-1.129166,-0.17171,0.037798,-6.734459,0.906138,-40.902542,0,0
2473,2024 8 08,15:40:30.012,0.781787,-0.11645,-0.581256,-0.193346,-1.177455,-0.180281,0.018857,-9.98862,0.971105,-45.164543,0,0
2474,2024 8 08,15:40:30.020,0.780987,-0.114896,-0.581507,-0.196728,-1.198306,-0.188979,0.01099,-10.577468,2.2631,-49.219662,0,0
2475,2024 8 08,15:40:30.028,0.780702,-0.114363,-0.581588,-0.197932,-1.204745,-0.189226,0.008476,-11.214263,2.554826,-50.789684,0,0
2476,2024 8 08,15:40:30.037,0.77981,-0.112775,-0.581794,-0.201708,-1.221455,-0.180134,0.004972,-14.59711,2.902487,-56.167068,0,0
2477,2024 8 08,15:40:30.045,0.778738,-0.110751,-0.581953,-0.206437,-1.239891,-0.181192,0.019447,-15.640376,4.524386,-62.241913,0,0
2478,2024 8 08,15:40:30.053,0.777576,-0.108366,-0.582023,-0.211804,-1.218837,-0.158492,0.036754,-16.412624,6.167179,-69.484535,0,0
2479,2024 8 08,15:40:30.062,0.776189,-0.10554,-0.582256,-0.217587,-1.239109,-0.17135,0.07549,-14.457928,4.11791,-76.840744,0,0
2480,2024 8 08,15:40:30.070,0.77485,-0.102567,-0.582466,-0.223155,-1.270517,-0.166405,0.078831,-12.642107,5.696239,-84.482773,0,0
2481,2024 8 08,15:40:30.078,0.774314,-0.101365,-0.582556,-0.225338,-1.276975,-0.165122,0.082105,-12.09994,5.948836,-87.519409,0,0
2482,2024 8 08,15:40:30.087,0.772862,-0.098034,-0.582815,-0.231019,-1.268262,-0.164926,0.095499,-11.65857,5.446526,-95.667747,0,0
2483,2024 8 08,15:40:30.095,0.771065,-0.093676,-0.583019,-0.238167,-1.282212,-0.164443,0.079467,-11.858786,8.443683,-106.132568,0,0
2484,2024 8 08,15:40:30.103,0.768955,-0.088603,-0.583215,-0.246274,-1.31484,-0.166735,0.04998,-12.106882,8.020216,-117.719643,0,0
2485,2024 8 08,15:40:30.112,0.766295,-0.082922,-0.58364,-0.255326,-1.3945,-0.163545,0.038933,-12.678011,4.972548,-131.973663,0,0
2486,2024 8 08,15:40:30.120,0.763472,-0.077281,-0.584073,-0.264408,-1.494978,-0.158248,0.049331,-15.765704,5.3271,-147.259415,0,0
2487,2024 8 08,15:40:30.128,0.762287,-0.074805,-0.584151,-0.268391,-1.53692,-0.155731,0.047808,-17.00153,7.207318,-153.868576,0,0
2488,2024 8 08,15:40:30.137,0.759712,-0.068804,-0.583708,-0.277994,-1.622126,-0.14072,0.026241,-19.373611,19.192501,-169.54364,0,0
2489,2024 8 08,15:40:30.145,0.755273,-0.058283,-0.582511,-0.294693,-1.73018,-0.049045,0.104384,-23.588236,26.918203,-198.689728,0,0
2490,2024 8 08,15:40:30.153,0.751133,-0.047858,-0.580992,-0.309756,-2.024904,-0.054083,-0.008587,-17.119156,35.862473,-224.970932,0,0
2491,2024 8 08,15:40:30.162,0.746234,-0.035535,-0.578872,-0.326742,-2.118005,-0.006265,-0.026638,-18.441904,46.107971,-260.159027,0,0
2492,2024 8 08,15:40:30.170,0.741089,-0.0209,-0.57502,-0.34593,-2.303843,0.063093,-0.174976,-19.706062,72.583656,-296.644104,0,0
2493,2024 8 08,15:40:30.178,0.740825,-0.02015,-0.574822,-0.346913,-2.313364,0.066646,-0.182575,-19.770821,73.939941,-298.513123,0,0
2494,2024 8 08,15:40:30.187,0.734473,-0.004498,-0.570878,-0.366834,-2.523454,-0.150237,0.00213,-15.954303,67.622711,-331.784943,0,0
2495,2024 8 08,15:40:30.195,0.72709,0.014752,-0.565012,-0.389589,-2.495594,-0.132214,-0.040125,-9.11998,98.476341,-367.178314,0,0
2496,2024 8 08,15:40:30.203,0.71957,0.036814,-0.557009,-0.412865,-2.39563,-0.469577,0.030723,3.62639,124.609077,-387.11795,0,0
2497,2024 8 08,15:40:30.212,0.711573,0.061045,-0.547625,-0.435727,-2.249974,-0.620073,-0.174306,14.266202,140.462555,-396.835541,0,1
2498,2024 8 08,15:40:30.220,0.702984,0.085566,-0.537257,-0.457858,-2.224137,-0.604406,-0.058318,16.085974,147.402328,-393.343201,0,0
2499,2024 8 08,15:40:30.228,0.701884,0.088706,-0.535929,-0.460691,-2.220828,-0.6024,-0.043466,16.318998,148.29097,-392.895996,0,0
2500,2024 8 08,15:40:30.237,0.694523,0.110225,-0.525289,-0.478937,-1.846888,-0.443298,-0.127833,13.301355,162.425278,-384.561859,0,0
2501,2024 8 08,15:40:30.245,0.685467,0.133682,-0.513469,-0.498357,-1.660231,-0.315198,-0.166693,14.580425,148.080048,-376.671234,0,0
2502,2024 8 08,15:40:30.253,0.675079,0.156415,-0.501875,-0.517341,-1.441453,-0.166739,-0.260409,16.298321,135.03035,-370.810608,0,0
2503,2024 8 08,15:40:30.262,0.663389,0.177734,-0.490768,-0.535891,-1.25055,0.141674,-0.317162,11.474658,111.201416,-365.722015,0,0
2504,2024 8 08,15:40:30.270,0.650335,0.197632,-0.480513,-0.553907,-1.190843,0.35838,-0.27965,14.468729,90.786301,-359.734314,0,0
2505,2024 8 08,15:40:30.278,0.64781,0.20148,-0.478531,-0.557391,-1.179298,0.400283,-0.272396,15.047683,86.838692,-358.576477,0,0
2506,2024 8 08,15:40:30.287,0.635252,0.217604,-0.470905,-0.571968,-1.165078,0.301564,-0.334116,25.075165,73.445412,-363.990143,0,0
2507,2024 8 08,15:40:30.295,0.620804,0.234692,-0.461379,-0.588518,-0.472726,0.397439,-0.810722,-0.73731,66.336296,-348.166168,0,0
2508,2024 8 08,15:40:30.303,0.609356,0.248416,-0.450429,-0.603173,0.654638,1.109517,-0.504481,-36.101448,79.611916,-269.144226,0,0
2509,2024 8 08,15:40:30.312,0.60498,0.258794,-0.44037,-0.61069,0.980149,0.360053,-0.567953,-2.701305,89.843979,-124.615601,0,0
2510,2024 8 08,15:40:30.320,0.607414,0.259381,-0.437156,-0.610426,0.110991,0.914713,0.128507,-28.329689,30.670692,49.833405,0,0
2511,2024 8 08,15:40:30.328,0.608021,0.259527,-0.436354,-0.61036,-0.105933,1.053144,0.302329,-34.725994,15.902288,93.372192,0,0
2512,2024 8 08,15:40:30.337,0.617889,0.255297,-0.437608,-0.601215,-0.482181,0.852094,-0.220165,-5.843296,48.685616,199.737701,0,0
2513,2024 8 08,15:40:30.345,0.633456,0.249408,-0.440094,-0.585336,-0.87301,0.598234,-0.090461,12.874628,77.037056,276.837158,0,0
2514,2024 8 08,15:40:30.353,0.652025,0.243773,-0.44233,-0.565156,-0.855276,0.40087,-0.224934,26.690571,107.401115,313.409546,0,0
2515,2024 8 08,15:40:30.362,0.671143,0.238393,-0.444338,-0.54297,-0.724774,0.291947,-0.321582,33.917046,112.802177,325.350037,0,0
2516,2024 8 08,15:40:30.370,0.689161,0.232643,-0.446719,-0.520437,-0.64455,0.160035,-0.417534,35.719929,99.328384,321.065399,0,0
2517,2024 8 08,15:40:30.378,0.694538,0.230927,-0.44743,-0.513711,-0.620605,0.120663,-0.446172,36.25803,95.306908,319.786591,0,0
2518,2024 8 08,15:40:30.387,0.706859,0.225662,-0.449896,-0.496729,-0.651313,0.02821,-0.497307,32.794556,76.019066,308.510864,0,0
2519,2024 8 08,15:40:30.395,0.720043,0.218597,-0.453188,-0.477486,-0.655324,-0.039382,-0.494517,25.355219,56.647877,296.972961,0,0
2520,2024 8 08,15:40:30.403,0.732867,0.210219,-0.45688,-0.457749,-0.644199,-0.047008,-0.459327,18.64267,42.517349,295.356049,0,0
2521,2024 8 08,15:40:30.412,0.740903,0.204636,-0.45928,-0.445151,-0.646015,-0.042082,-0.429055,14.588755,34.250595,297.25708,0,0
2522,2024 8 08,15:40:30.420,0.753386,0.193867,-0.463557,-0.424056,-0.709602,0.01583,-0.354326,9.751581,25.338215,318.107422,0,0
2523,2024 8 08,15:40:30.428,0.766063,0.181521,-0.468241,-0.400997,-0.843981,0.030302,-0.389965,8.643971,20.328333,346.009369,0,0
2524,2024 8 08,15:40:30.437,0.777155,0.1697,-0.472456,-0.379438,-0.990734,-0.010647,-0.361773,8.607769,19.51111,367.631378,0,0
2525,2024 8 08,15:40:30.445,0.779314,0.167276,-0.473189,-0.375037,-1.001899,-0.02372,-0.369742,7.986589,20.130934,370.148834,0,0
2526,2024 8 08,15:40:30.453,0.791227,0.153434,-0.477137,-0.350072,-1.036113,-0.111586,-0.426292,3.540728,22.554356,379.037659,0,0
2527,2024 8 08,15:40:30.462,0.802471,0.138369,-0.481313,-0.324043,-1.069748,-0.225994,-0.423197,-0.663967,9.997108,372.935913,0,0
2528,2024 8 08,15:40:30.470,0.81199,0.122981,-0.485686,-0.299046,-1.016692,-0.251676,-0.472807,-5.783006,-4.821638,356.520844,0,0
2529,2024 8 08,15:40:30.478,0.819326,0.107441,-0.490964,-0.275483,-1.095204,-0.268378,-0.443248,-8.344058,-30.774929,337.832245,0,0
2530,2024 8 08,15:40:30.487,0.824151,0.093801,-0.496445,-0.255733,-1.233919,-0.248485,-0.366125,-7.986228,-49.697437,322.309326,0,0
2531,2024 8 08,15:40:30.495,0.825188,0.090334,-0.497945,-0.250707,-1.269564,-0.240147,-0.353511,-7.144944,-53.311386,319.118439,0,0
2532,2024 8 08,15:40:30.503,0.828408,0.077054,-0.504114,-0.231247,-1.406084,-0.200561,-0.323663,-0.50768,-61.587593,310.282166,0,0
2533,2024 8 08,15:40:30.512,0.831206,0.063252,-0.510813,-0.209581,-1.52937,-0.192045,-0.264507,11.645601,-61.076477,305.939728,0,0
2534,2024 8 08,15:40:30.520,0.833538,0.050418,-0.517148,-0.186997,-1.572964,-0.235796,-0.276341,26.400286,-56.430573,303.876068,0,0
2535,2024 8 08,15:40:30.528,0.835217,0.038817,-0.523263,-0.163786,-1.564265,-0.270673,-0.310148,42.290596,-56.422253,300.419739,0,0
2536,2024 8 08,15:40:30.537,0.835944,0.029487,-0.528901,-0.142848,-1.576676,-0.297746,-0.340437,55.846401,-63.792545,294.897247,0,0
2537,2024 8 08,15:40:30.545,0.835988,0.026735,-0.530775,-0.136269,-1.593827,-0.305898,-0.351095,60.004757,-66.99102,292.826691,0,0
2538,2024 8 08,15:40:30.553,0.83516,0.0192,-0.53708,-0.116003,-1.704616,-0.332303,-0.384357,72.507149,-80.178711,284.89859,0,0
2539,2024 8 08,15:40:30.562,0.83314,0.011863,-0.544782,-0.093016,-1.822423,-0.384592,-0.392042,87.400513,-90.921829,275.420288,0,0
2540,2024 8 08,15:40:30.570,0.830167,0.005747,-0.552841,-0.069468,-1.883665,-0.475198,-0.39283,101.911812,-95.946503,265.741943,0,0
2541,2024 8 08,15:40:30.578,0.826411,0.00105,-0.560887,-0.045836,-1.849994,-0.614087,-0.417988,115.113983,-99.753242,256.114136,0,0
2542,2024 8 08,15:40:30.587,0.822358,-0.002206,-0.568196,-0.024746,-1.773555,-0.747566,-0.462307,123.720749,-106.559204,248.001801,0,0
2543,2024 8 08,15:40:30.595,0.820721,-0.003253,-0.57093,-0.017205,-1.753409,-0.795845,-0.476627,126.164009,-110.436325,244.940247,0,0
2544,2024 8 08,15:40:30.603,0.815477,-0.005221,-0.578538,0.001691,-1.744182,-0.91623,-0.503528,128.836319,-127.431717,236.050125,0,0
2545,2024 8 08,15:40:30.612,0.808117,-0.006833,-0.588245,0.022698,-1.770134,-1.031372,-0.520651,129.346909,-147.224152,222.840195,0,0
2546,2024 8 08,15:40:30.620,0.799164,-0.007792,-0.599183,0.043117,-1.801386,-1.160113,-0.513545,126.085899,-166.088638,204.960846,0,0
2547,2024 8 08,15:40:30.628,0.788962,-0.007994,-0.610923,0.061979,-1.829969,-1.32924,-0.519539,119.547859,-179.911621,183.939133,0,0
2548,2024 8 08,15:40:30.637,0.779179,-0.19604,-0.566073,-0.184416,-1.831111,-1.53067,-0.558544,110.710236,-184.415604,163.89856,0,0
2549,2024 8 08,15:40:30.645,0.775203,-0.007487,-0.626008,0.083375,-1.821704,-1.605922,-0.564468,106.566177,-185.537796,156.002289,0,0
2550,2024 8 08,15:40:30.653,0.766138,-0.006857,-0.635458,0.094649,-1.72845,-1.738575,-0.509209,93.864738,-183.691269,139.49057,0,0
2551,2024 8 08,15:40:30.662,0.755785,-0.006228,-0.64597,0.105894,-1.478849,-1.843252,-0.315746,76.778587,-177.853546,121.540924,0,0
2552,2024 8 08,15:40:30.670,0.745031,-0.005678,-0.656742,0.115395,-1.166139,-1.848857,0.020994,59.158142,-180.045868,100.939354,0,0
2553,2024 8 08,15:40:30.678,0.733162,-0.004475,-0.668581,0.123112,-1.204116,-1.972457,0.282393,50.473537,-203.252182,80.513725,0,0
2554,2024 8 08,15:40:30.687,0.715288,-0.00173,-0.686231,0.132037,-1.837025,-2.285303,0.730653,43.432137,-225.402328,59.855408,0,0
2555,2024 8 08,15:40:30.695,0.715048,-0.001693,-0.686467,0.132156,-1.845509,-2.289497,0.736661,43.337746,-225.699249,59.578487,0,0
2556,2024 8 08,15:40:30.703,0.705783,0.000139,-0.695079,0.136849,-1.890596,-2.487692,0.71067,37.554142,-130.760071,52.621861,0,0
2557,2024 8 08,15:40:30.712,0.702379,0.000569,-0.697874,0.140117,-1.476463,-2.734547,0.546177,19.30122,-34.896797,40.762066,0,0
2558,2024 8 08,15:40:30.720,0.7027,-1e-05,-0.697439,0.140686,-0.943713,-2.692287,0.229378,-7.695438,11.403187,19.399387,0,0
2559,2024 8 08,15:40:30.728,0.703689,-0.001513,-0.696964,0.138059,-0.863851,-2.335303,0.183002,-40.096813,12.250781,-0.370459,0,0
2560,2024 8 08,15:40:30.737,0.70466,-0.003766,-0.696931,0.133131,-1.697954,-1.786889,-0.123152,-63.894211,10.944467,-13.695913,0,0
2561,2024 8 08,15:40:30.745,0.704753,-0.003982,-0.696928,0.132657,-1.778202,-1.734126,-0.152607,-66.183739,10.818788,-14.977945,0,0
2562,2024 8 08,15:40:30.753,0.701151,-0.005041,-0.703682,0.114628,-2.286118,-0.505472,4.586755,-184.264587,-96.957626,-178.153976,0,0
2563,2024 8 08,15:40:30.762,0.71402,-0.006625,-0.693597,0.094566,-0.70332,0.170017,-1.576251,-194.778473,221.273972,-189.783463,0,0
2564,2024 8 08,15:40:30.770,0.72437,-0.006626,-0.685506,0.072062,-0.524284,1.228256,0.454926,-139.568268,122.223885,-197.893005,1,0
2565,2024 8 08,15:40:30.778,0.726529,-0.000404,-0.684753,0.056524,-1.296314,0.225356,-0.176532,-58.425507,-7.924309,-190.112503,0,0
2566,2024 8 08,15:40:30.787,0.728566,0.009479,-0.683446,0.044015,-1.732949,-0.236166,0.346313,-7.451035,50.744652,-182.051804,0,0
2567,2024 8 08,15:40:30.795,0.728905,0.011122,-0.683229,0.041936,-1.805513,-0.312866,0.433205,1.020442,60.494877,-180.712189,0,0
2568,2024 8 08,15:40:30.803,0.737911,0.019264,-0.67375,0.033176,-1.411922,-0.168529,0.141081,7.613279,176.088806,-164.69577,0,0
2569,2024 8 08,15:40:30.812,0.74838,0.027421,-0.662126,0.025641,-1.030726,-0.349006,-0.110929,12.705885,166.757813,-130.487076,0,0
2570,2024 8 08,15:40:30.820,0.755894,0.034435,-0.653399,0.020749,-1.134973,-0.324793,-0.135945,26.541412,126.231415,-91.468536,0,0
2571,2024 8 08,15:40:30.828,0.762491,0.040902,-0.645376,0.019094,-1.091385,-0.276707,-0.252427,49.370102,116.646492,-59.612389,0,0
2572,2024 8 08,15:40:30.837,0.76756,0.046963,-0.638919,0.019586,-1.059345,-0.270803,-0.096554,54.458996,90.47084,-40.235405,0,0
2573,2024 8 08,15:40:30.845,0.768706,0.048334,-0.637459,0.019698,-1.052101,-0.269468,-0.061308,55.609665,84.552177,-35.854015,0,0
2574,2024 8 08,15:40:30.853,0.77196,0.051936,-0.63321,0.020246,-1.082013,-0.196363,-0.088309,43.519073,76.496513,-29.125042,0,0
2575,2024 8 08,15:40:30.862,0.775389,0.055651,-0.628666,0.020843,-1.049351,-0.110202,-0.09781,39.885101,69.03392,-25.528845,0,0
2576,2024 8 08,15:40:30.870,0.778561,0.059625,-0.624321,0.022113,-1.016668,-0.122884,0.025843,45.29538,64.452797,-20.219923,0,0
2577,2024 8 08,15:40:30.878,0.781415,0.063501,-0.620309,0.023527,-1.017352,-0.184425,0.004213,42.272434,55.577614,-18.166008,0,0
2578,2024 8 08,15:40:30.887,0.783722,0.066614,-0.617038,0.024299,-1.043512,-0.119245,0.007152,31.628584,45.241241,-17.173021,0,0
2579,2024 8 08,15:40:30.895,0.785584,-0.475018,-0.323377,-0.229442,-1.065015,-0.135487,-0.031253,28.756359,36.814407,-16.289576,0,0
2580,2024 8 08,15:40:30.903,0.786116,0.070196,-0.613564,0.025076,-1.071165,-0.140132,-0.042236,27.934961,34.404503,-16.036928,0,0
2581,2024 8 08,15:40:30.912,0.787237,0.072161,-0.611886,0.025325,-1.065163,-0.171712,-0.024074,24.892815,30.556183,-16.514383,0,0
2582,2024 8 08,15:40:30.920,0.788388,0.074308,-0.610138,0.025462,-1.055629,-0.160074,-0.034719,22.422665,26.037981,-16.406429,0,0
2583,2024 8 08,15:40:30.928,0.789508,0.076302,-0.608438,0.025543,-1.053017,-0.129567,-0.011096,18.669565,25.472925,-15.791677,0,0
2584,2024 8 08,15:40:30.937,0.790543,0.078195,-0.606848,0.02564,-1.058437,-0.111702,0.002949,16.332306,22.82888,-14.487873,0,0
2585,2024 8 08,15:40:30.945,0.791573,0.079934,-0.605276,0.025662,-1.056611,-0.063313,-0.043905,13.787508,22.868385,-13.822309,0,0
2586,2024 8 08,15:40:30.953,0.792084,0.080798,-0.604495,0.025672,-1.055704,-0.03928,-0.067175,12.523582,22.888006,-13.491745,0,0
2587,2024 8 08,15:40:30.962,0.792209,0.081022,-0.604302,0.025662,-1.060336,-0.04519,-0.066027,12.037317,22.517712,-13.569378,0,0
2588,2024 8 08,15:40:30.970,0.793088,0.082584,-0.60294,0.02556,-1.084654,-0.091565,-0.051892,9.532358,20.214958,-14.205441,0,0
2589,2024 8 08,15:40:30.978,0.793998,0.084034,-0.601553,0.02527,-1.054625,-0.139656,-0.014542,12.037939,20.212568,-15.029408,0,0
2590,2024 8 08,15:40:30.987,0.794896,0.085319,-0.600204,0.024783,-1.055821,-0.12628,-0.00111,8.244875,18.993565,-15.211167,0,0
2591,2024 8 08,15:40:30.995,0.795735,0.086494,-0.59895,0.024144,-1.047491,-0.110487,0.008271,4.985261,17.740665,-16.013269,0,0
2592,2024 8 08,15:40:31.003,0.796451,0.087445,-0.597885,0.023523,-1.040323,-0.130283,0.013609,4.726449,17.593346,-15.550722,0,0
2593,2024 8 08,15:40:31.012,0.796617,0.087661,-0.597637,0.023374,-1.041844,-0.126624,0.008556,4.481308,17.498621,-15.515389,0,0
2594,2024 8 08,15:40:31.020,0.797367,0.088622,-0.596519,0.022712,-1.053154,-0.098731,-0.02899,3.6638,17.238846,-15.434562,0,0
2595,2024 8 08,15:40:31.028,0.798184,0.089668,-0.595292,0.022106,-1.042381,-0.132495,-0.03688,6.787738,18.537241,-14.573428,0,0
2596,2024 8 08,15:40:31.037,0.798978,0.090736,-0.594083,0.021552,-1.067853,-0.094027,0.010309,4.173036,17.312054,-13.98848,0,0
2597,2024 8 08,15:40:31.045,0.799892,0.091928,-0.592682,0.021187,-1.064948,-0.12774,-0.044535,8.195789,21.420092,-13.688459,0,0
2598,2024 8 08,15:40:31.053,0.800796,0.092984,-0.591305,0.020906,-1.064154,-0.138502,-0.010204,8.895004,23.410341,-13.114024,0,0
2599,2024 8 08,15:40:31.062,0.801067,0.093285,-0.590893,0.020836,-1.061794,-0.137861,-0.002163,8.886474,23.775347,-12.843615,0,0
2600,2024 8 08,15:40:31.070,0.802028,0.09428,-0.589435,0.020657,-1.047137,-0.127253,0.007495,8.185855,24.3381,-11.579401,0,0
2601,2024 8 08,15:40:31.078,0.803162,0.09537,-0.587716,0.020559,-1.042202,-0.151344,-0.023507,8.331076,25.92836,-10.551598,0,0
2602,2024 8 08,15:40:31.087,0.804336,0.096311,-0.585958,0.020451,-1.033224,-0.137882,0.046869,7.086034,26.071079,-9.340483,0,0
2603,2024 8 08,15:40:31.095,0.805548,0.097194,-0.584148,0.020376,-1.031476,-0.148185,0.043714,6.291532,26.327473,-8.967829,0,0
2604,2024 8 08,15:40:31.103,0.806566,0.097895,-0.582628,0.020263,-1.044176,-0.168037,0.078665,5.059443,24.421295,-8.357043,0,0
2605,2024 8 08,15:40:31.112,0.806906,0.098134,-0.582119,0.020221,-1.04075,-0.17045,0.079956,4.910569,23.825304,-8.245914,0,0
2606,2024 8 08,15:40:31.120,0.807787,0.098779,-0.580791,0.020079,-1.00418,-0.155953,0.048424,5.243347,22.235725,-8.410791,0,0
2607,2024 8 08,15:40:31.128,0.808675,0.099402,-0.579456,0.019822,-1.016158,-0.137996,0.092676,2.63487,19.468418,-8.647688,0,0
2608,2024 8 08,15:40:31.137,0.809535,0.099955,-0.57817,0.019507,-1.004667,-0.133472,0.059554,1.987904,18.27511,-8.719168,0,0
2609,2024 8 08,15:40:31.145,0.810252,0.100454,-0.577091,0.019133,-1.035139,-0.130433,0.053702,0.52419,15.666398,-8.826739,0,0
2610,2024 8 08,15:40:31.153,0.810884,0.10085,-0.576147,0.018715,-1.036583,-0.131448,0.042086,-0.514346,15.768619,-8.931643,0,0
2611,2024 8 08,15:40:31.162,0.811123,0.100997,-0.57579,0.018543,-1.037075,-0.130409,0.044913,-0.794606,15.631966,-9.019411,0,0
2612,2024 8 08,15:40:31.170,0.811657,0.101328,-0.574993,0.018075,-1.035622,-0.12238,0.080906,-0.848489,14.364501,-9.538841,0,0
2613,2024 8 08,15:40:31.178,0.812214,0.101781,-0.574144,0.017514,-1.027433,-0.12714,0.0715,-0.78239,12.63261,-10.469228,0,0
2614,2024 8 08,15:40:31.187,0.812707,0.102279,-0.573376,0.016902,-1.060348,-0.146428,0.062606,0.158141,11.051583,-10.869355,0,0
2615,2024 8 08,15:40:31.195,0.813167,0.102801,-0.57265,0.016177,-1.052597,-0.136137,0.06991,0.112158,10.939314,-11.600121,0,0
2616,2024 8 08,15:40:31.203,0.813545,0.103341,-0.572034,0.015518,-1.061286,-0.143458,0.040832,0.489857,9.157267,-12.25736,0,0
2617,2024 8 08,15:40:31.212,0.813695,0.103569,-0.571788,0.01522,-1.063812,-0.143736,0.039699,0.374016,8.524212,-12.633922,0,0
2618,2024 8 08,15:40:31.220,0.814038,0.104204,-0.57121,0.014252,-1.062538,-0.12411,0.117353,-1.943392,7.633137,-14.396893,0,0
2619,2024 8 08,15:40:31.228,0.8144,0.104901,-0.57059,0.013276,-1.085992,-0.140307,0.027666,-1.414348,7.330253,-15.481327,0,0
2620,2024 8 08,15:40:31.237,0.814598,0.105542,-0.570217,0.011993,-1.123691,-0.151462,0.067432,-2.877537,4.967041,-17.564899,0,0
2621,2024 8 08,15:40:31.245,0.814942,0.106178,-0.569637,0.010458,-1.082705,-0.151841,0.028839,-5.075116,7.963758,-20.247936,0,0
2622,2024 8 08,15:40:31.253,0.815167,0.106797,-0.569229,0.008626,-1.122373,-0.156435,0.052606,-7.41162,3.589346,-22.950996,0,0
2623,2024 8 08,15:40:31.262,0.815181,0.106835,-0.569204,0.008512,-1.124831,-0.156719,0.054079,-7.556373,3.318339,-23.118458,0,0
2624,2024 8 08,15:40:31.270,0.815403,0.107406,-0.568805,0.006483,-1.127239,-0.160297,0.04041,-9.178555,5.409231,-26.186939,0,0
2625,2024 8 08,15:40:31.278,0.815709,0.108023,-0.568272,0.003991,-1.116934,-0.162366,0.041831,-11.567856,5.320227,-29.690113,0,0
2626,2024 8 08,15:40:31.287,0.815984,0.108726,-0.567756,0.001166,-1.133178,-0.181157,0.034629,-12.511621,4.987138,-32.961113,0,0
