frame,date,time,quaternion_x_left,quaternion_y_left,quaternion_z_left,quaternion_w_left,accel_x_left,accel_y_left,accel_z_left,gyro_x_left,gyro_y_left,gyro_z_left,HS_left,TO_left,filtered_quaternion_x_left,filtered_quaternion_y_left,filtered_quaternion_z_left,filtered_quaternion_w_left,filtered_accel_x_left,filtered_accel_y_left,filtered_accel_z_left,filtered_gyro_x_left,filtered_gyro_y_left,filtered_gyro_z_left,quaternion_x_right,quaternion_y_right,quaternion_z_right,quaternion_w_right,accel_x_right,accel_y_right,accel_z_right,gyro_x_right,gyro_y_right,gyro_z_right,HS_right,TO_right,filtered_quaternion_x_right,filtered_quaternion_y_right,filtered_quaternion_z_right,filtered_quaternion_w_right,filtered_accel_x_right,filtered_accel_y_right,filtered_accel_z_right,filtered_gyro_x_right,filtered_gyro_y_right,filtered_gyro_z_right
1706,2024 8 08,15:40:23.620,0.786715,-0.475195,-0.320494,-0.229243,-0.96209,-0.212446,-0.054755,0.254807,0.809868,-0.378433,0,0,0.786715,-0.475195,-0.320494,-0.229243,-0.96209,-0.212446,-0.054755,0.254807,0.809868,-0.378433,0.825599,-0.222124,-0.494861,-0.155435,-1.047444,-0.097146,0.000856,-0.183617,0.099321,0.16726,0,0,0.825599,-0.222124,-0.494861,-0.155435,-1.047444,-0.097146,0.000856,-0.183617,0.099321,0.16726
1707,2024 8 08,15:40:23.629,0.786616,-0.475189,-0.320729,-0.229266,-0.959909,-0.213112,-0.054016,0.247246,0.971303,-0.413036,0,0,0.78671005,-0.4751946999999999,-0.32050575,-0.22924415,-0.96198095,-0.2124792999999999,-0.05471805,0.25442895,0.8179397500000001,-0.38016315,0.825502,-0.222085,-0.495022,-0.155494,-1.047082,-0.099885,-0.000781,-0.114271,0.239399,0.178493,0,0,0.8255941499999999,-0.22212205,-0.49486905,-0.15543795,-1.0474259,-0.0972829499999999,0.0007741499999999,-0.1801497,0.1063249,0.16782165
1708,2024 8 08,15:40:23.637,0.786517,-0.475186,-0.320966,-0.22928,-0.961678,-0.213988,-0.060308,0.159488,0.97499,-0.59416,0,0,0.7867003975,-0.4751942649999999,-0.3205287624999999,-0.2292459425,-0.9619658025,-0.2125547349999999,-0.0549975474999999,0.2496819024999999,0.8257922625,-0.3908629925,0.8254,-0.222053,-0.495186,-0.15556,-1.045322,-0.098593,0.002829,-0.199534,0.248509,0.193298,0,0,0.8255844425,-0.2221185974999999,-0.4948848974999999,-0.1554440524999999,-1.047320705,-0.0973484524999999,0.0008768924999999,-0.181118915,0.113434105,0.1690954674999999
1709,2024 8 08,15:40:23.645,0.786414,-0.475186,-0.321212,-0.229291,-0.957799,-0.214925,-0.060813,0.133541,1.103052,-0.52074,0,0,0.786686077625,-0.4751938517499999,-0.3205629243749999,-0.2292481953749999,-0.961757462375,-0.2126732482499999,-0.0552883201249999,0.2438748573749999,0.839655249375,-0.3973568428749999,0.825303,-0.222017,-0.495344,-0.155622,-1.047711,-0.0953,0.005031,-0.182419,0.287804,0.270878,0,0,0.8255703703749999,-0.2221135176249999,-0.4949078526249998,-0.155452949875,-1.04734021975,-0.0972460298749999,0.0010845978749999,-0.1811839192499999,0.12215259975,0.1741845941249999
1710,2024 8 08,15:40:23.654,0.786382,-0.475186,-0.321287,-0.229295,-0.956622,-0.215209,-0.060967,0.125673,1.141888,-0.498475,0,0,0.78667087374375,-0.4751934591624999,-0.3205991281562499,-0.2292505356062499,-0.96150068925625,-0.2128000358374999,-0.0555722541187499,0.2379647645062499,0.85476688690625,-0.4024127507312499,0.825217,-0.221983,-0.495486,-0.155672,-1.050174,-0.092564,-9.5e-05,-0.141022,0.29972,0.294405,0,0,0.8255527018562498,-0.2221069917437499,-0.4949367599937498,-0.15546390238125,-1.0474819087624998,-0.0970119283812499,0.0010256179812499,-0.1791758232874999,0.1310309697625,0.1801956144187499
1711,2024 8 08,15:40:23.662,0.786297,-0.475186,-0.321492,-0.2293,-0.959902,-0.21596,-0.054718,0.20607,1.361058,-0.408715,0,0,0.7866521800565625,-0.4751930862043748,-0.3206437717484374,-0.2292530088259374,-0.9614207547934372,-0.2129580340456249,-0.0555295414128124,0.2363700262809374,0.8800814425609375,-0.4027278631946874,0.825182,-0.221969,-0.495544,-0.155694,-1.050446,-0.092207,-0.001195,-0.156164,0.320224,0.296114,0,0,0.8255341667634373,-0.2221000921565624,-0.4949671219940623,-0.1554754072621875,-1.0476301133243748,-0.0967716819621874,0.0009145870821874,-0.1780252321231249,0.140490621274375,0.1859915336978124
1712,2024 8 08,15:40:23.670,0.786195,-0.47519,-0.321731,-0.229305,-0.961929,-0.21751,-0.053387,0.067699,1.22583,-0.462142,0,0,0.7866293210537343,-0.475192931894156,-0.3206981331610155,-0.2292556083846405,-0.9614461670537652,-0.2131856323433437,-0.0554224143421718,0.2279364749668905,0.8973688704328906,-0.4056985700349531,0.825108,-0.221944,-0.495662,-0.155744,-1.047503,-0.095345,0.001309,-0.34373,0.455236,0.261215,0,0,0.8255128584252653,-0.2220922875487343,-0.4950018658943592,-0.1554888368990781,-1.047623757658156,-0.0967003478640781,0.0009343077280781,-0.1863104705169686,0.1562278902106562,0.1897527070129218
1713,2024 8 08,15:40:23.679,0.786099,-0.475177,-0.32198,-0.229311,-0.959343,-0.215743,-0.052955,0.306604,1.060202,-0.438955,0,0,0.7866028050010475,-0.4751921352994482,-0.3207622265029646,-0.2292583779654085,-0.961341008701077,-0.2133135007261765,-0.0552990436250632,0.231869851218546,0.905510526911246,-0.4073613915332054,0.825026,-0.221921,-0.495789,-0.155809,-1.047414,-0.09712,0.00079,-0.428811,0.628448,0.24987,0,0,0.825488515504002,-0.2220837231712976,-0.4950412225996412,-0.1555048450541242,-1.0476132697752485,-0.0967213304708742,0.0009270923416742,-0.1984354969911202,0.1798388957001234,0.1927585716622757
1714,2024 8 08,15:40:23.687,0.785968,-0.475163,-0.322316,-0.229319,-0.960138,-0.214445,-0.049403,0.32149,1.081849,-0.479508,0,0,0.786571064750995,-0.4751906785344758,-0.3208399151778164,-0.229261409067138,-0.961280858266023,-0.2133700756898676,-0.05500424144381,0.2363508586576187,0.9143274505656837,-0.4109687219565451,0.824904,-0.221895,-0.495973,-0.155904,-1.050288,-0.09717,0.003867,-0.367005,0.610581,0.244213,0,0,0.8254592897288019,-0.2220742870127326,-0.4950878114696591,-0.155524802801418,-1.0477470062864858,-0.0967437639473304,0.0010740877245905,-0.2068639721415642,0.2013760009151173,0.1953312930791619
1715,2024 8 08,15:40:23.695,0.785868,-0.475165,-0.322544,-0.229336,-0.964575,-0.217649,-0.055004,-0.002272,0.790266,-0.539354,0,0,0.7865359115134453,-0.475189394607752,-0.3209251194189256,-0.2292651386137811,-0.961445565352722,-0.2135840219053743,-0.0550042293716195,0.2244197157247377,0.9081243780373994,-0.4173879858587178,0.824809,-0.22188,-0.496114,-0.155982,-1.050799,-0.092898,0.006279,-0.662935,0.432337,0.184802,0,0,0.8254267752423617,-0.222064572662096,-0.495139120896176,-0.1555476626613471,-1.0478996059721617,-0.0965514757499639,0.0013343333383609,-0.229667523534486,0.2129240508693614,0.1948048284252038
1716,2024 8 08,15:40:23.704,0.785853,-0.475165,-0.32258,-0.229338,-0.965328,-0.218242,-0.056105,-0.058543,0.734875,-0.548894,0,0,0.786501765937773,-0.4751881748773643,-0.3210078634479793,-0.2292687816830921,-0.9616396870850856,-0.2138169208101055,-0.0550592679030386,0.2102715799385008,0.8994619091355294,-0.4239632865657819,0.82472,-0.221839,-0.496254,-0.156067,-1.048942,-0.090911,0.000734,-0.203452,0.66125,-0.109058,0,0,0.8253914364802437,-0.2220532940289912,-0.4951948648513672,-0.1555736295282797,-1.047951725673553,-0.0962694519624657,0.0013043166714429,-0.2283567473577616,0.2353403483258933,0.1796116870039436
1717,2024 8 08,15:40:23.712,0.785785,-0.475145,-0.322767,-0.229349,-0.961376,-0.215478,-0.052964,0.387258,0.682766,-0.549293,0,0,0.7864659276408843,-0.4751860161334961,-0.3210958202755803,-0.2292727925989374,-0.9616265027308314,-0.2138999747696002,-0.0549545045078866,0.2191209009415758,0.8886271136787528,-0.4302297722374927,0.824716,-0.221838,-0.49626,-0.156071,-1.048865,-0.090828,0.000502,-0.184257,0.670813,-0.121334,0,0,0.8253576646562315,-0.2220425293275416,-0.4952481216087988,-0.1555984980518657,-1.0479973893898755,-0.0959973793643424,0.0012642008378707,-0.2261517599898735,0.2571139809095986,0.1645644026537464
1718,2024 8 08,15:40:23.720,0.785715,-0.47511,-0.32297,-0.229374,-0.957401,-0.217642,-0.048765,0.579304,0.377786,-0.500248,0,0,0.7864283812588401,-0.4751822153268213,-0.3211895292618013,-0.2292778529689906,-0.9614152275942898,-0.2140870760311202,-0.0546450292824923,0.237130055894497,0.8630850579948152,-0.4337306836256181,0.824633,-0.221766,-0.496404,-0.15615,-1.045229,-0.096271,0.005936,0.100507,0.671346,-0.235496,0,0,0.8253214314234198,-0.2220287028611645,-0.4953059155283589,-0.1556260731492724,-1.0478589699203815,-0.0960110603961253,0.0014977907959772,-0.2098188219903798,0.2778255818641187,0.144561382521059
1719,2024 8 08,15:40:23.729,0.785646,-0.475067,-0.32318,-0.229405,-0.957802,-0.214734,-0.045221,0.51103,0.359619,-0.392563,0,0,0.786389262195898,-0.4751764545604802,-0.3212890527987112,-0.229284210320541,-0.9612345662145751,-0.2141194222295642,-0.0541738278183677,0.2508250530997721,0.8379117550950743,-0.4316722994443372,0.824541,-0.221691,-0.496561,-0.156243,-1.048108,-0.094859,0.003182,-0.047501,0.503619,-0.243416,0,0,0.8252824098522489,-0.2220118177181063,-0.4953686697519409,-0.1556569194918088,-1.0478714214243623,-0.095953457376319,0.0015820012561783,-0.2017029308908608,0.2891152527709127,0.1251625133950061
1720,2024 8 08,15:40:23.737,0.785584,-0.475018,-0.323377,-0.229442,-0.960303,-0.213576,-0.054809,0.776524,0.079532,-0.368762,0,0,0.786348999086103,-0.4751685318324562,-0.3213934501587757,-0.2292920998045139,-0.9611879879038464,-0.214092251118086,-0.0542055864274493,0.2771100004447835,0.7999927673403205,-0.4285267844721203,0.824445,-0.221622,-0.496725,-0.15633,-1.054521,-0.096947,0.000308,0.05053,0.379511,-0.244071,0,0,0.8252405393596364,-0.221992326832201,-0.4954364862643439,-0.1556905735172183,-1.0482039003531445,-0.0960031345075031,0.0015183011933694,-0.1890912843463178,0.2936350401323671,0.1067008377252557
1721,2024 8 08,15:40:23.745,0.785522,-0.474963,-0.323575,-0.229489,-0.956757,-0.215663,-0.057687,0.563923,0.102716,-0.272478,0,0,0.7863076491317978,-0.4751582552408334,-0.3215025276508369,-0.2293019448142882,-0.960966438508654,-0.2141707885621817,-0.0543796571060768,0.2914506504225443,0.7651289289733045,-0.4207243452485143,0.82435,-0.22154,-0.496891,-0.15642,-1.047305,-0.096712,0.005687,0.00553,0.422022,-0.298489,0,0,0.8251960123916545,-0.2219697104905909,-0.4955092119511267,-0.1557270448413574,-1.0481589553354869,-0.0960385777821279,0.0017267361337009,-0.1793602201290019,0.3000543881257487,0.0864413458389929
1722,2024 8 08,15:40:23.754,0.785508,-0.47495,-0.32362,-0.229501,-0.955737,-0.216236,-0.058056,0.497489,0.119714,-0.24759,0,0,0.7862676666752079,-0.4751478424787917,-0.321608401268295,-0.2293118975735738,-0.9607049665832214,-0.2142740491340726,-0.054563474250773,0.3017525679014171,0.7328581825246393,-0.4120676279860886,0.824254,-0.22146,-0.497057,-0.156508,-1.046098,-0.099259,-0.000594,0.054278,0.480215,-0.304362,0,0,0.8251489117720717,-0.2219442249660614,-0.4955866013535703,-0.1557660925992895,-1.0480559075687126,-0.0961995988930215,0.0016106993270159,-0.1676783091225518,0.3090624187194613,0.0669011785470433
1723,2024 8 08,15:40:23.762,0.785459,-0.474902,-0.323775,-0.229547,-0.959638,-0.213744,-0.050418,0.62669,0.030304,-0.198876,0,0,0.7862272333414474,-0.4751355503548521,-0.3217167312048802,-0.2293236526948951,-0.9606516182540604,-0.214247546677369,-0.0543562005382343,0.3179994395063462,0.6977304733984073,-0.4014080465867841,0.824243,-0.22145,-0.497077,-0.156518,-1.045953,-0.099565,-0.001348,0.060132,0.487203,-0.305067,0,0,0.8251036161834681,-0.2219195137177583,-0.4956611212858918,-0.155803687969325,-1.0479507621902768,-0.0963678689483704,0.0014627643606651,-0.1562877936664242,0.3179694477834883,0.0483027696196911
1724,2024 8 08,15:40:23.770,0.785403,-0.474843,-0.323962,-0.229597,-0.957165,-0.215547,-0.053639,0.890448,-0.040707,-0.320732,0,0,0.786186021674375,-0.4751209228371095,-0.3218289946446362,-0.2293373200601503,-0.9604772873413572,-0.2143125193435005,-0.0543203405113226,0.3466218675310288,0.6608085997284869,-0.3973742442574449,0.824154,-0.221397,-0.497227,-0.156586,-1.047603,-0.097102,-0.000613,0.008739,0.383795,-0.148666,0,0,0.8250561353742946,-0.2218933880318704,-0.4957394152215972,-0.1558428035708587,-1.047933374080763,-0.0964045755009519,0.0013589761426318,-0.148036453983103,0.3212607253943139,0.0384543311387066
1725,2024 8 08,15:40:23.779,0.785347,-0.474784,-0.324155,-0.229639,-0.956965,-0.216551,-0.05458,0.562452,0.164716,-0.448113,0,0,0.7861440705906563,-0.475104076695254,-0.3219452949124044,-0.2293524040571428,-0.9603016729742894,-0.2144244433763255,-0.0543333234857565,0.3574133741544774,0.6360039697420625,-0.3999111820445726,0.82405,-0.221345,-0.497401,-0.15665,-1.045781,-0.094689,0.003198,0.001369,0.1116,0.079656,0,0,0.8250058286055798,-0.2218659686302768,-0.4958224944605173,-0.1558831633923158,-1.0478257553767247,-0.0963187967259043,0.0014509273355002,-0.1405661812839478,0.3107776891245981,0.0405144145817712
1726,2024 8 08,15:40:23.787,0.785286,-0.474732,-0.324347,-0.229682,-0.958802,-0.21641,-0.052211,0.625643,0.055098,-0.393683,0,0,0.7861011670611234,-0.4750854728604913,-0.3220653801667842,-0.2293688838542856,-0.9602266893255748,-0.2145237212075092,-0.0542272073114687,0.3708248554467535,0.6069586712549594,-0.399599772942344,0.823942,-0.221291,-0.497583,-0.156721,-1.046312,-0.097161,0.007852,-0.10137,0.018715,0.013358,0,0,0.8249526371753008,-0.221837220198763,-0.4959105197374914,-0.1559250552227,-1.0477500676078884,-0.0963609068896091,0.0017709809687252,-0.1386063722197504,0.2961745546683682,0.0391565938526827
1727,2024 8 08,15:40:23.795,0.785226,-0.474682,-0.324529,-0.229733,-0.956602,-0.216679,-0.057336,0.576497,0.009832,-0.371113,0,0,0.7860574087080672,-0.4750652992174667,-0.3221885611584449,-0.2293870896615713,-0.960045454859296,-0.2146314851471337,-0.0543826469458952,0.3811084626744158,0.5771023376922114,-0.3981754342952268,0.823822,-0.221238,-0.497784,-0.156787,-1.045196,-0.09396,0.007017,-0.118376,-0.247378,-0.097903,0,0,0.8248961053165357,-0.2218072591888248,-0.4960041937506169,-0.155968152461565,-1.047622364227494,-0.0962408615451286,0.002033281920289,-0.1375948536087629,0.2689969269349498,0.0323036141600485
1728,2024 8 08,15:40:23.804,0.785162,-0.474635,-0.324715,-0.229788,-0.960923,-0.217122,-0.05367,0.640073,0.001858,-0.281516,0,0,0.7860126382726638,-0.4750437842565933,-0.3223148831005227,-0.2294071351784928,-0.9600893321163312,-0.214756010889777,-0.0543470145986004,0.394056689540695,0.5483401208076008,-0.3923424625804654,0.823699,-0.221183,-0.497993,-0.156845,-1.046584,-0.096168,-0.000258,-0.071868,-0.294256,-0.018496,0,0,0.8248362500507088,-0.2217760462293836,-0.496103634063086,-0.1560119948384867,-1.0475704460161193,-0.0962372184678722,0.0019187178242745,-0.1343085109283247,0.2408342805882023,0.0297636334520461
1729,2024 8 08,15:40:23.812,0.785143,-0.474621,-0.32477,-0.229804,-0.962522,-0.217258,-0.05214,0.665151,0.00037,-0.251583,0,0,0.7859691563590305,-0.4750226450437637,-0.3224376389454965,-0.2294269784195681,-0.9602109655105148,-0.2148811103452882,-0.0542366638686704,0.4076114050636603,0.5209416147672207,-0.3853044894514421,0.823676,-0.221172,-0.498032,-0.156856,-1.046843,-0.09658,-0.001616,-0.063192,-0.303001,-0.003683,0,0,0.8247782375481734,-0.2217458439179144,-0.4962000523599317,-0.1560541950965624,-1.0475340737153134,-0.0962543575444786,0.0017419819330608,-0.1307526853819085,0.2136425165587921,0.0280913017794438
1730,2024 8 08,15:40:23.820,0.785099,-0.474577,-0.324905,-0.229855,-0.958829,-0.264772,0.019391,0.586591,-0.125161,-0.203951,0,0,0.7859256485410789,-0.4750003627915755,-0.3225610069982217,-0.2294483794985897,-0.960141867234989,-0.2173756548280237,-0.0505552806752369,0.4165603848104772,0.4886364840288596,-0.37623681497887,0.823568,-0.22113,-0.498215,-0.156905,-1.048052,-0.097434,0.003138,-0.061486,-0.304721,-0.097316,0,0,0.8247177256707647,-0.2217150517220187,-0.4963007997419351,-0.1560967353417343,-1.0475599700295477,-0.0963133396672546,0.0018117828364077,-0.1272893511128131,0.1877243407308525,0.0218209366904716
1731,2024 8 08,15:40:23.829,0.785045,-0.474519,-0.325076,-0.229915,-0.958107,-0.21655,-0.052899,0.681172,-0.129193,-0.2289,0,0,0.785881616114025,-0.4749762946519967,-0.3226867566483106,-0.2294717105236602,-0.9600401238732394,-0.2173343720866225,-0.050672466641475,0.4297909655699534,0.4577450098274166,-0.3688699742299264,0.823444,-0.221078,-0.498427,-0.156957,-1.046013,-0.097991,-0.000458,-0.061134,-0.352757,-0.021293,0,0,0.8246540393872265,-0.2216831991359177,-0.4964071097548383,-0.1561397485746475,-1.0474826215280704,-0.0963972226838919,0.0016982936945874,-0.1239815835571724,0.1607002736943099,0.019665239855948
1732,2024 8 08,15:40:23.837,0.784991,-0.474452,-0.325256,-0.229983,-0.959357,-0.218925,-0.055278,0.679989,-0.205163,-0.118462,0,0,0.7858370853083236,-0.4749500799193968,-0.3228152188158951,-0.2294972749974771,-0.9600059676795776,-0.2174139034822914,-0.0509027433094013,0.4423008672914557,0.4245996093360457,-0.3563495755184301,0.823311,-0.221027,-0.498653,-0.157007,-1.04821,-0.099242,0.001026,-0.061058,-0.504445,-0.004861,0,0,0.8245868874178651,-0.2216503891791218,-0.4965194042670964,-0.1561831111459151,-1.0475189904516669,-0.0965394615496973,0.001664679009858,-0.1208354043793138,0.1274430100095944,0.0184389278631506
1733,2024 8 08,15:40:23.845,0.784938,-0.474378,-0.325444,-0.230053,-0.96145,-0.212904,-0.04786,0.713675,-0.154392,-0.034431,0,0,0.7857921310429073,-0.4749214759234269,-0.3229466578751003,-0.2295250612476033,-0.9600781692955984,-0.2171884083081768,-0.0507506061439312,0.4558695739268829,0.3956500288692434,-0.3402536467425086,0.823176,-0.220981,-0.498879,-0.157062,-1.046472,-0.096174,0.003594,-0.154115,-0.538658,-0.001155,0,0,0.8245163430469719,-0.2216169197201657,-0.4966373840537415,-0.1562270555886194,-1.0474666409290834,-0.0965211884722124,0.0017611450593651,-0.1224993841603481,0.0941379595091146,0.0174592314699931
1734,2024 8 08,15:40:23.854,0.78488,-0.474308,-0.325632,-0.230129,-0.960599,-0.212708,-0.052038,0.688031,-0.13004,-0.048258,0,0,0.785746524490762,-0.4748908021272555,-0.3230809249813453,-0.2295552581852231,-0.9601042108308184,-0.2169643878927679,-0.0508149758367347,0.4674776452305387,0.3693655274257812,-0.3256538644053831,0.823043,-0.220942,-0.499102,-0.157107,-1.048639,-0.097293,0.004197,-0.175957,-1.09139,-0.297324,0,0,0.8244426758946233,-0.2215831737341574,-0.4967606148510544,-0.1562710528091884,-1.0475252588826292,-0.0965597790486018,0.0018829378063968,-0.1251722649523307,0.0348615615336589,0.0017200698964934
1735,2024 8 08,15:40:23.862,0.78486,-0.474284,-0.325697,-0.230155,-0.960146,-0.216215,-0.054398,0.675637,-0.124106,-0.057772,0,0,0.7857021982662239,-0.4748604620208927,-0.323211728732278,-0.229585245275962,-0.9601063002892776,-0.2169269184981296,-0.0509941270448979,0.4778856129690117,0.3446919510544922,-0.312259771185114,0.822911,-0.220906,-0.499321,-0.157149,-1.048804,-0.09902,0.001436,-0.090384,-0.469494,0.262398,0,0,0.8243660920998921,-0.2215493150474495,-0.4968886341085017,-0.1563149501687289,-1.0475891959384975,-0.0966827900961717,0.001860590916077,-0.1234328517047141,0.0096437834569759,0.0147539664016687
1736,2024 8 08,15:40:23.870,0.784819,-0.474237,-0.325831,-0.230202,-0.957856,-0.213802,-0.052699,0.672509,-0.08376,-0.176717,0,0,0.7856580383529127,-0.4748292889198481,-0.3233426922956641,-0.2296160830121638,-0.9599937852748136,-0.2167706725732231,-0.051079370692653,0.4876167823205611,0.3232693535017675,-0.3054826326258583,0.822878,-0.220897,-0.499377,-0.15716,-1.048845,-0.099456,0.000738,-0.068783,-0.438399,0.293883,0,0,0.8242916874948975,-0.221516699295077,-0.4970130524030766,-0.1563572026602925,-1.0476519861415725,-0.0968214505913631,0.0018044613702731,-0.1207003591194784,-0.0127583557158728,0.0287104180815853
1737,2024 8 08,15:40:23.879,0.78476,-0.47419,-0.326002,-0.230256,-0.958765,-0.214632,-0.053244,0.518078,-0.028822,-0.264177,0,0,0.785613136435267,-0.4747973244738557,-0.3234756576808809,-0.2296480788615556,-0.9599323460110728,-0.2166637389445619,-0.0511876021580204,0.489139843204533,0.3056647858266791,-0.3034173509945653,0.822766,-0.220875,-0.499558,-0.157199,-1.048146,-0.099925,0.001978,-0.151962,-0.607917,0.213283,0,0,0.8242154031201525,-0.2214846143303231,-0.4971402997829227,-0.1563992925272779,-1.0476766868344938,-0.096976628061795,0.0018131383017595,-0.1222634411635045,-0.0425162879300791,0.037939047177506
1738,2024 8 08,15:40:23.887,0.784701,-0.47414,-0.326176,-0.230315,-0.958688,-0.215444,-0.051455,0.528676,-0.197935,-0.331639,0,0,0.7855675296135036,-0.4747644582501629,-0.3236106747968368,-0.2296814249184778,-0.9598701287105192,-0.2166027519973338,-0.0512009720501193,0.4911166510443063,0.2804847965353452,-0.304828433444837,0.82264,-0.220852,-0.49976,-0.15725,-1.044444,-0.097944,0.006175,-0.349989,-0.521856,0.147669,0,0,0.8241366329641449,-0.221452983613807,-0.4972712847937766,-0.156441827900914,-1.047515052492769,-0.0970249966587052,0.0020312313866715,-0.1336497191053293,-0.0664832735335752,0.0434255448186307
1739,2024 8 08,15:40:23.895,0.784638,-0.474096,-0.32635,-0.230372,-0.957971,-0.21842,-0.053032,0.430724,-0.161582,-0.35623,0,0,0.7855210531328284,-0.4747310353376547,-0.3237476410569949,-0.2297159536725539,-0.9597751722749932,-0.2166936143974671,-0.0512925234476134,0.488097018492091,0.2583814567085779,-0.3073985117725952,0.822505,-0.220836,-0.499973,-0.157299,-1.043417,-0.093921,0.00734,-0.361528,-0.584804,0.21629,0,0,0.8240550513159376,-0.2214221344331166,-0.4974063705540877,-0.1564846865058683,-1.0473101498681303,-0.0968697968257699,0.0022966698173379,-0.1450436331500628,-0.0923993098568964,0.0520687675776992
1740,2024 8 08,15:40:23.904,0.784581,-0.474046,-0.326524,-0.230424,-0.96005,-0.217905,-0.054151,0.645249,-0.133788,-0.363251,0,0,0.7854740504761869,-0.474696783570772,-0.3238864590041452,-0.2297513559889262,-0.9597889136612434,-0.2167541836775937,-0.0514354472752327,0.4959546175674864,0.238772983873149,-0.3101911361839654,0.822366,-0.220821,-0.500196,-0.15734,-1.044498,-0.09552,0.00252,-0.364822,-0.73158,0.235881,0,0,0.8239705987501408,-0.2213920777114607,-0.4975458520263833,-0.1565274521805749,-1.0471695423747238,-0.0968023069844814,0.002307836326471,-0.1560325514925596,-0.1243583443640516,0.0612593791988142
1741,2024 8 08,15:40:23.912,0.784559,-0.474026,-0.326592,-0.230444,-0.961028,-0.217478,-0.054526,0.748365,-0.125635,-0.36531,0,0,0.7854282979523776,-0.4746632443922333,-0.3240217360539379,-0.2297859881894799,-0.9598508679781812,-0.216790374493714,-0.0515899749114711,0.5085751366891121,0.2205525846794915,-0.3129470793747671,0.822226,-0.220798,-0.500429,-0.157363,-1.045834,-0.093611,-0.001272,-0.153462,-0.774631,0.369023,0,0,0.8238833688126337,-0.2213623738258877,-0.4976900094250641,-0.1565692295715461,-1.0471027652559877,-0.0966427416352574,0.0021288445101475,-0.1559040239179316,-0.156871977145849,0.0766475602388735
1742,2024 8 08,15:40:23.920,0.784522,-0.473979,-0.326718,-0.230487,-0.96045,-0.215316,-0.056091,0.706746,-0.159508,-0.293278,0,0,0.7853829830547587,-0.4746290321726216,-0.324156549251241,-0.2298210387800059,-0.959880824579272,-0.2167166557690283,-0.0518150261658975,0.5184836798546565,0.2015495554455169,-0.3119636254060287,0.822184,-0.220791,-0.500499,-0.15737,-1.046237,-0.093037,-0.002413,-0.089852,-0.787587,0.409094,0,0,0.8237984003720019,-0.2213338051345933,-0.4978304589538109,-0.1566092680929688,-1.0470594769931882,-0.0964624545534945,0.0019017522846401,-0.1526014227220351,-0.1884077282885566,0.0932698822269298
1743,2024 8 08,15:40:23.929,0.784474,-0.473922,-0.326879,-0.23054,-0.960424,-0.19003,-0.070482,0.682671,-0.1037,-0.331697,0,0,0.7853375339020208,-0.4745936805639905,-0.324292671788679,-0.2298569868410056,-0.9599079833503084,-0.2153823229805769,-0.0527483748576026,0.5266930458619237,0.1862870776732411,-0.3129502941357273,0.822081,-0.500739,-0.203489,-0.178983,-1.05168,-0.094189,-0.001767,0.054437,-0.625359,0.463009,0,0,0.8237125303534019,-0.2353040648778636,-0.4831133860061203,-0.1577279546883203,-1.047290503143529,-0.0963487818258198,0.0017183146704081,-0.1422495015859333,-0.2102552918741287,0.1117568381155834
1744,2024 8 08,15:40:23.937,0.784417,-0.473872,-0.327046,-0.2306,-0.960176,-0.216446,-0.057315,0.497286,-0.181629,-0.283834,0,0,0.7852915072069196,-0.474557596535791,-0.324430338199245,-0.2298941374989553,-0.9599213841827928,-0.215435506831548,-0.0529767061147225,0.5252226935688274,0.167891273789579,-0.3114944794289409,0.821963,-0.22072,-0.500882,-0.157405,-1.050767,-0.096856,-0.002879,0.141114,-0.491901,0.192221,0,0,0.8236250538357317,-0.2345748616339704,-0.4840018167058142,-0.1577118069539043,-1.0474643279863525,-0.0963741427345288,0.0014884489368877,-0.1280813265066366,-0.2243375772804223,0.1157800462098042
1745,2024 8 08,15:40:23.945,0.784356,-0.473823,-0.327218,-0.230663,-0.962304,-0.21569,-0.056717,0.480281,-0.117746,-0.292559,0,0,0.7852447318465736,-0.4745208667090014,-0.3245697212892827,-0.2299325806240075,-0.9600405149736532,-0.2154482314899706,-0.0531637208089864,0.5229756088903861,0.1536094101001,-0.3105477054574938,0.821853,-0.220652,-0.501084,-0.157433,-1.051449,-0.098693,0.000667,0.331846,-0.164006,0.145459,0,0,0.823536451143945,-0.2338787185522719,-0.4848559258705235,-0.1576978666062091,-1.0476635615870349,-0.0964900855978023,0.0014473764900433,-0.1050849601813048,-0.2213209984164012,0.117263993899314
1746,2024 8 08,15:40:23.954,0.784318,-0.473791,-0.327327,-0.230704,-0.963884,-0.214857,-0.056159,0.488217,-0.061487,-0.305075,0,0,0.7851983952542448,-0.4744843733735513,-0.3247075852248186,-0.2299711515928071,-0.9602326892249704,-0.2154186699154721,-0.053313484768537,0.5212376784458668,0.142854589595095,-0.3102740701846191,0.821785,-0.220605,-0.50121,-0.157454,-1.051984,-0.099867,0.002886,0.434672,0.006879,0.089509,0,0,0.8234488785867478,-0.2332150326246583,-0.4856736295769973,-0.1576856732758986,-1.047879583507683,-0.0966589313179122,0.0015193076655411,-0.0780971121722395,-0.2099109984955811,0.1158762442043483
1747,2024 8 08,15:40:23.962,0.78426,-0.473747,-0.327492,-0.230759,-0.962942,-0.210558,-0.057108,0.547898,-0.120664,-0.543648,0,0,0.7851514754915325,-0.4744475047048737,-0.3248468059635776,-0.2300105440131668,-0.9603681547637218,-0.2151756364196984,-0.0535032105301102,0.5225706945235734,0.1296786601153403,-0.3219427666753881,0.821685,-0.220512,-0.501398,-0.157504,-1.052967,-0.101526,0.004823,0.478976,0.075901,-0.084915,0,0,0.8233606846574104,-0.2325798809934254,-0.4864598480981473,-0.1576765896121037,-1.0481339543322987,-0.0969022847520166,0.0016844922822641,-0.0502434565636275,-0.195620398570802,0.1058366819941308
1748,2024 8 08,15:40:23.970,0.784258,-0.473746,-0.327496,-0.23076,-0.962921,-0.21046,-0.05713,0.549263,-0.122017,-0.549101,0,0,0.7851068017169559,-0.47441242946963,-0.3249792656653987,-0.2300480168125084,-0.9604957970255358,-0.2149398545987135,-0.0536845500036047,0.5239053097973947,0.1170938771095733,-0.3333006783416187,0.821602,-0.220437,-0.501555,-0.157544,-1.051365,-0.101564,-0.001226,0.429211,0.179034,0.114209,0,0,0.8232727504245398,-0.2319727369437541,-0.48721460569324,-0.1576699601314985,-1.0482955066156838,-0.0971353705144158,0.0015389676681509,-0.0262707337354461,-0.1768876786422619,0.1062552978944243
1749,2024 8 08,15:40:23.979,0.784187,-0.47372,-0.327662,-0.230817,-0.959681,-0.216472,-0.054354,0.144419,0.109301,-0.317937,0,0,0.7850608116311081,-0.4743778079961485,-0.3251134023821287,-0.230086465971883,-0.9604550571742588,-0.2150164618687778,-0.0537180225034244,0.5049309943075249,0.1167042332540946,-0.3325324944245377,0.821586,-0.220422,-0.501585,-0.157553,-1.050491,-0.100627,-0.001014,0.427349,0.16725,0.082554,0,0,0.8231884129033129,-0.2313952000965664,-0.487933125408578,-0.1576641121249236,-1.0484052812848996,-0.097309951988695,0.0014113192847433,-0.0035897470486738,-0.1596807947101488,0.1050702329997031
1750,2024 8 08,15:40:23.987,0.784099,-0.473726,-0.327836,-0.230857,-0.959514,-0.213134,-0.050563,-0.047429,0.292204,-0.704972,0,0,0.7850127210495527,-0.474345217596341,-0.3252495322630223,-0.2301249926732888,-0.960408004315546,-0.2149223387753389,-0.0535602713782532,0.4773129945921486,0.1254792215913898,-0.3511544697033109,0.821488,-0.220333,-0.501768,-0.157607,-1.045074,-0.094849,0.002496,0.411841,0.044951,-0.165512,0,0,0.8231033922581472,-0.230842090091738,-0.488624869138149,-0.1576612565186774,-1.0482387172206546,-0.0971869043892602,0.0014655533205061,0.0171817903037598,-0.1494492049746414,0.0915411213497179
1751,2024 8 08,15:40:23.995,0.784007,-0.47375,-0.328002,-0.230885,-0.957256,-0.217859,-0.063347,-0.340793,0.304141,-0.786402,0,0,0.784962434997075,-0.474315456716524,-0.3253871556498712,-0.2301629930396244,-0.9602504040997686,-0.215069171836572,-0.0540496078093405,0.4364076948625411,0.1344123105118204,-0.3729168462181453,0.821379,-0.22024,-0.501971,-0.157658,-1.043652,-0.095152,0.006113,0.298491,-0.131537,-0.181703,0,0,0.8230171726452398,-0.2303119855871511,-0.4892921756812416,-0.1576610936927435,-1.0480093813596218,-0.0970851591697972,0.0016979256544808,0.0312472507885718,-0.1485535947259093,0.077878915282232
1752,2024 8 08,15:40:24.004,0.783918,-0.473767,-0.328178,-0.230902,-0.95885,-0.214244,-0.061252,-0.197748,0.52655,-0.848169,0,0,0.7849102132472212,-0.4742880338806978,-0.3255266978673776,-0.2301999433876431,-0.96018038389478,-0.2150279132447434,-0.0544097274188735,0.404699910119414,0.1540191949862293,-0.3966794539072381,0.821263,-0.220151,-0.502183,-0.157712,-1.047383,-0.092171,-0.001108,0.186334,-0.289052,-0.220407,0,0,0.8229294640129778,-0.2298039363077935,-0.4899367168971795,-0.1576636390081063,-1.0479780622916408,-0.0968394512113073,0.0015576293717568,0.0390015882491432,-0.1555785149896139,0.0629646195181204
1753,2024 8 08,15:40:24.012,0.783817,-0.473809,-0.328349,-0.230918,-0.958123,-0.221774,-0.054509,-0.512186,0.546912,-0.853824,0,0,0.7848555525848601,-0.4742640821866628,-0.3256678129740087,-0.230235846218261,-0.960077514700041,-0.2153652175825062,-0.0544146910479298,0.3588556146134433,0.1736638352369179,-0.4195366812118761,0.821138,-0.220064,-0.502403,-0.157782,-1.052162,-0.092689,0.001512,0.195288,-0.266567,-0.504277,0,0,0.8228398908123289,-0.2293169394924038,-0.4905600310523205,-0.157669557057701,-1.048187259177059,-0.096631928650742,0.0015553479031689,0.046815908836686,-0.1611279392401332,0.0346025385422144
1754,2024 8 08,15:40:24.020,0.783806,-0.473814,-0.328367,-0.23092,-0.958047,-0.222558,-0.053807,-0.544935,0.549033,-0.854413,0,0,0.7848030749556171,-0.4742415780773297,-0.3258027723253083,-0.2302700539073479,-0.9599759889650388,-0.2157248567033809,-0.0543843064955333,0.3136660838827711,0.1924322934750719,-0.4412804971512823,0.821036,-0.219956,-0.502595,-0.157853,-1.049681,-0.09535,0.00104,0.6152,-0.031459,-0.813162,0,0,0.8227496962717123,-0.2288488925177836,-0.4911617794997045,-0.1576787292048159,-1.0482619462182057,-0.0965678322182048,0.0015295805080105,0.0752351133948517,-0.1546444922781265,-0.0077856883848962
1755,2024 8 08,15:40:24.029,0.783717,-0.473849,-0.328522,-0.230927,-0.962711,-0.209056,-0.0533,-0.283267,0.655471,-1.01377,0,0,0.7847487712078361,-0.4742219491734631,-0.3259387337090429,-0.2303029012119805,-0.9601127395167868,-0.2153914138682118,-0.0543300911707567,0.2838194296886325,0.2155842288013184,-0.4699049722937182,0.821009,-0.219927,-0.502646,-0.157871,-1.048702,-0.095487,0.001904,0.678437,-0.047167,-0.849116,0,0,0.8226626614581266,-0.2284027978918945,-0.4917359905247193,-0.1576883427445751,-1.0482839489072953,-0.0965137906072946,0.00154830148261,0.1053952077251091,-0.1492706176642202,-0.0498522039656514
1756,2024 8 08,15:40:24.037,0.783602,-0.473933,-0.32867,-0.230936,-0.959957,-0.209,-0.048206,-1.192522,0.66913,-1.400876,0,0,0.7846914326474443,-0.47420750171479,-0.3260752970235907,-0.2303345561513815,-0.9601049525409476,-0.2150718431748012,-0.0540238866122188,0.2100023582042008,0.2382615173612524,-0.5164535236790323,0.8209,-0.219797,-0.50286,-0.157936,-1.044851,-0.094701,0.007756,0.812558,-0.363461,-0.839565,0,0,0.8225745283852203,-0.2279725079972997,-0.4922921909984833,-0.1577007256073464,-1.0481123014619305,-0.0964231510769299,0.0018586864084795,0.1407533473388537,-0.1599801367810091,-0.0893378437673689
1757,2024 8 08,15:40:24.045,0.783521,-0.473973,-0.328826,-0.230906,-0.948408,-0.208579,-0.024339,-0.182738,0.360947,-1.920183,0,0,0.7846329110150722,-0.4741957766290504,-0.3262128321724111,-0.2303631283438124,-0.9595201049139002,-0.2147472010160611,-0.0525396422816079,0.1903653402939908,0.2443957914931898,-0.5866399974950807,0.82078,-0.219637,-0.503111,-0.157986,-1.048078,-0.096099,0.006988,1.124677,-0.668895,-0.797757,0,0,0.8224848019659593,-0.2275557325974347,-0.4928331314485591,-0.157714989326979,-1.0481105863888338,-0.0964069435230834,0.0021151520880555,0.189949529971911,-0.1854258799419587,-0.1247588015790004
1758,2024 8 08,15:40:24.054,0.783397,-0.474084,-0.328986,-0.23087,-0.956454,-0.193418,-0.019098,0.377992,0.72237,-2.100721,0,0,0.7845711154643185,-0.4741901877975979,-0.3263514905637906,-0.2303884719266218,-0.9593667996682052,-0.2136807409652581,-0.0508675601675275,0.1997466732792913,0.2682945019185303,-0.6623440476203266,0.820659,-0.219434,-0.503381,-0.158036,-1.046845,-0.09394,0.000157,1.668118,-0.643392,-1.120873,0,0,0.8223935118676613,-0.227149645967563,-0.4933605248761311,-0.1577310398606301,-1.048047307069392,-0.0962835963469292,0.0020172444836527,0.2638579534733154,-0.2083241859448607,-0.1745645115000504
1759,2024 8 08,15:40:24.062,0.783249,-0.474252,-0.329113,-0.23085,-0.961385,-0.218748,-0.067383,-1.293013,0.932029,-1.878299,0,0,0.7845050096911025,-0.4741932784077179,-0.326489566035601,-0.2304115483302907,-0.9594677096847948,-0.2139341039169952,-0.0516933321591511,0.1251086896153267,0.3014812268226038,-0.7231417952393102,0.820548,-0.219183,-0.503659,-0.15807,-1.04301,-0.09003,0.00523,2.090948,-0.485535,-1.297091,0,0,0.8223012362742782,-0.2267513136691848,-0.4938754486323245,-0.1577479878675986,-1.0477954417159223,-0.0959709165295827,0.0021778822594701,0.3552124557996496,-0.2221847266476176,-0.2306908359250479
1760,2024 8 08,15:40:24.070,0.783223,-0.474281,-0.329135,-0.230847,-0.962237,-0.223129,-0.075734,-1.582019,0.96829,-1.839831,0,0,0.7844409092065473,-0.474197664487332,-0.326621837733821,-0.2304333209137761,-0.9596061742005548,-0.2143938487211454,-0.0528953655511935,0.0397523051345603,0.3348216654814736,-0.7789762554773447,0.820456,-0.21894,-0.50391,-0.15809,-1.045786,-0.091073,0.003357,2.078121,-0.587166,-1.28459,0,0,0.8222089744605643,-0.2263607479857256,-0.4943771762007082,-0.1577650884742187,-1.0476949696301263,-0.0957260207031036,0.0022368381464966,0.4413578830096671,-0.2404337903152368,-0.2833857941287955
1761,2024 8 08,15:40:24.079,0.783108,-0.474415,-0.329247,-0.230801,-0.97103,-0.226287,-0.087472,-2.174789,1.367497,-1.685566,0,0,0.7843742637462199,-0.4742085312629654,-0.3267530958471299,-0.2304517048680873,-0.9601773654905272,-0.2149885062850881,-0.0546241972736339,-0.0709747601221676,0.3864554322073999,-0.8243057427034775,0.820426,-0.218866,-0.503989,-0.158097,-1.046507,-0.093016,0.001899,2.122213,-0.645615,-1.282297,0,0,0.8221198257375361,-0.2259860105864393,-0.4948577673906728,-0.1577816840505077,-1.04763557114862,-0.0955905196679484,0.0022199462391717,0.5254006388591838,-0.2606928507994749,-0.3333313544223557
1762,2024 8 08,15:40:24.087,0.782981,-0.474595,-0.32935,-0.230711,-0.970019,-0.220696,-0.070749,-2.580291,1.396326,-2.576387,0,0,0.7843046005589088,-0.4742278546998171,-0.3268829410547734,-0.2304646696246829,-0.9606694472160008,-0.2152738809708337,-0.0554304374099522,-0.1964405721160592,0.4369489605970299,-0.9119098055683036,0.820322,-0.218636,-0.50425,-0.15812,-1.047725,-0.104194,-0.003746,2.41098,-0.947673,-1.30151,0,0,0.8220299344506592,-0.2256185100571173,-0.4953273790211392,-0.1577985998479823,-1.047640042591189,-0.096020693684551,0.0019216489272132,0.6196796069162245,-0.2950418582595012,-0.3817402867012379
1763,2024 8 08,15:40:24.095,0.782841,-0.474837,-0.329427,-0.230581,-0.968664,-0.204626,-0.044372,-2.423527,1.450053,-3.714898,0,0,0.7842314205309634,-0.4742583119648262,-0.3270101440020347,-0.2304704861434488,-0.9610691748552006,-0.214741486922292,-0.0548775155394545,-0.3077948935102563,0.4876041625671784,-1.0520592152898884,0.820189,-0.218385,-0.504563,-0.158161,-1.044972,-0.103985,0.006011,2.354622,-1.289841,-1.429586,0,0,0.8219378877281261,-0.2252568345542614,-0.4957891600700822,-0.1578167198555832,-1.0475066404616296,-0.0964189090003234,0.0021261164808525,0.7064267265704132,-0.3447818153465261,-0.434132572366176
1764,2024 8 08,15:40:24.104,0.782657,-0.47514,-0.329525,-0.230443,-0.973292,-0.209141,-0.055011,-2.673761,1.792449,-3.863117,0,0,0.7841526995044152,-0.4743023963665849,-0.327135886801933,-0.2304691118362763,-0.9616803161124404,-0.2144614625761774,-0.0548841897624818,-0.4260931988347434,0.5528464044388195,-1.192612104525394,0.820036,-0.218133,-0.504908,-0.158199,-1.036392,-0.098349,0.009594,2.176537,-1.643936,-1.431326,0,0,0.8218427933417198,-0.2249006428265483,-0.4962451020665781,-0.157835833862804,-1.046950908438548,-0.0965154135503072,0.0024995106568099,0.7799322402418926,-0.4097395245791998,-0.4839922437478672
1765,2024 8 08,15:40:24.112,0.782436,-0.475536,-0.329614,-0.230245,-0.973576,-0.208279,-0.058128,-4.224152,2.616033,-4.643457,0,0,0.7840668645291944,-0.4743640765482556,-0.3272597924618364,-0.2304579062444625,-0.9622751003068184,-0.2141523394473685,-0.0550463802743577,-0.6159961388930063,0.6560057342168785,-1.3651543492991245,0.819864,-0.217878,-0.505296,-0.158201,-1.037915,-0.094276,0.007029,2.385548,-2.289608,-1.282774,0,0,0.8217438536746338,-0.2245495106852209,-0.4966976469632492,-0.1578540921696638,-1.0464991130166206,-0.0964034428727919,0.0027259851239694,0.8602130282297978,-0.5037329483502399,-0.5239313315604739
1766,2024 8 08,15:40:24.120,0.782385,-0.475628,-0.329635,-0.230199,-0.973641,-0.208079,-0.058851,-4.583753,2.807056,-4.82445,0,0,0.7839827713027346,-0.4744272727208428,-0.3273785528387445,-0.2304449609322393,-0.9628433952914776,-0.2138486724750001,-0.0552366112606398,-0.8143839819483559,0.7635582475060345,-1.538119131834168,0.819689,-0.21764,-0.505688,-0.15818,-1.039545,-0.089819,0.00356,2.473939,-2.958229,-1.328144,0,0,0.8216411109909021,-0.2242040351509598,-0.4971471646150867,-0.1578703875611806,-1.0461514073657896,-0.0960742207291523,0.0027676858677709,0.940899326818308,-0.6264577509327278,-0.5641419649824502
1767,2024 8 08,15:40:24.129,0.782172,-0.476053,-0.329705,-0.229946,-0.973292,-0.209141,-0.055011,-4.579182,3.537248,-5.962723,0,0,0.7838922327375979,-0.4745085590848006,-0.3274948751968073,-0.2304200128856274,-0.9633658255269036,-0.21361328885125,-0.0552253306976078,-1.0026238828509382,0.9022427351307328,-1.7593493252424597,0.819626,-0.217552,-0.505832,-0.158171,-1.040678,-0.088794,0.001984,2.526074,-3.119344,-1.351411,0,0,0.821540355441357,-0.2238714333934118,-0.4975814063843323,-0.1578854181831215,-1.0458777369975,-0.0957102096926947,0.0027285015743823,1.0201580604773923,-0.7511020633860914,-0.6035054167333277
1768,2024 8 08,15:40:24.137,0.781919,-0.4766,-0.329774,-0.229575,-0.974648,-0.198123,-0.035936,-4.758366,3.990121,-7.419149,0,0,0.7837935711007179,-0.4746131311305606,-0.3276088314369669,-0.230377762241346,-0.9639299342505584,-0.2128387744086875,-0.0542608641627274,-1.1904109887083911,1.056636648374196,-2.042339308980337,0.819453,-0.217305,-0.506229,-0.158137,-1.046566,-0.089533,-0.0046,2.819362,-3.171777,-1.483958,0,0,0.8214359876692892,-0.2235431117237412,-0.4980137860651157,-0.1578979972739654,-1.0459121501476252,-0.0954013492080599,0.0023620764956632,1.1101182574535229,-0.8721358102167868,-0.6475280458966614
1769,2024 8 08,15:40:24.145,0.781612,-0.477296,-0.329845,-0.229071,-1.013146,-0.190014,-0.056402,-5.517684,5.444051,-8.954132,0,0,0.783684492545682,-0.4747472745740326,-0.3277206398651185,-0.2303124241292787,-0.9663907375380304,-0.2116975356882531,-0.0543679209545911,-1.4067746392729714,1.2760073659554865,-2.38792894353132,0.819252,-0.21699,-0.506698,-0.158108,-1.052595,-0.09539,-0.015039,3.464807,-3.226249,-1.892793,0,0,0.8213267882858246,-0.2232154561375542,-0.4984479967618599,-0.1579084974102672,-1.0462462926402438,-0.0954007817476569,0.0014920226708801,1.2278526945808463,-0.9898414697059474,-0.7097912936018282
1770,2024 8 08,15:40:24.154,0.781328,-0.478104,-0.329828,-0.228375,-1.007908,-0.170227,-0.028025,-7.086074,5.611677,-12.095272,0,0,0.7835666679183979,-0.4749151108453309,-0.3278260078718626,-0.2302155529228148,-0.9684666006611288,-0.2096240089038405,-0.0530507749068615,-1.6907396073093228,1.492790847657712,-2.873296096354754,0.819042,-0.216621,-0.507196,-0.158105,-1.04648,-0.105392,-0.012166,3.672632,-3.04792,-2.397153,0,0,0.8212125488715334,-0.2228857333306765,-0.4988853969237669,-0.1579183225397538,-1.0462579780082315,-0.0959003426602741,0.0008091215373361,1.350091659851804,-1.09274539622065,-0.7941593789217368
1771,2024 8 08,15:40:24.162,0.781058,-0.479048,-0.329785,-0.227382,-1.035395,-0.172801,-0.06971,-4.685792,7.182508,-16.095772,0,0,0.7834412345224779,-0.4751217553030644,-0.3279239574782694,-0.230073875276674,-0.9718130206280724,-0.2077828584586484,-0.0538837361615184,-1.8404922269438568,1.7772767052748262,-3.534419891537016,0.818813,-0.216296,-0.507692,-0.158147,-1.048366,-0.107069,-0.008079,2.809188,-3.254366,-2.420517,0,0,0.8210925714279567,-0.2225562466641426,-0.4993257270775785,-0.1579297564127661,-1.04636337910782,-0.0964587755272603,0.0003647154604693,1.4230464768592137,-1.2008264264096178,-0.87547725997565
1772,2024 8 08,15:40:24.170,0.780982,-0.479315,-0.329772,-0.227101,-1.043176,-0.17353,-0.08151,-4.006329,7.627174,-17.228218,0,0,0.7833182727963539,-0.4753314175379111,-0.328016359604356,-0.2299252315128403,-0.9753811695966688,-0.206070215535716,-0.0552650493534425,-1.948784065596664,2.069771570011085,-4.219109796960165,0.818594,-0.216007,-0.508152,-0.1582,-1.039065,-0.104563,-0.005134,2.93732,-3.499082,-2.650663,0,0,0.8209676428565588,-0.2222287843309355,-0.4997670407236996,-0.1579432685921278,-1.0459984601524288,-0.0968639867508973,8.977968744583762e-05,1.4987601530162529,-1.315739205089137,-0.9642365469768674
1773,2024 8 08,15:40:24.179,0.78094,-0.480065,-0.329568,-0.22595,-1.040667,-0.189763,-0.077104,-3.893858,7.586117,-21.392374,0,0,0.7831993591565363,-0.4755680966610155,-0.3280939416241382,-0.2297264699371983,-0.9786454611168351,-0.2052548547589302,-0.0563569968857704,-2.0460377623168307,2.3455888415105304,-5.077773007112157,0.818502,-0.215898,-0.50834,-0.15822,-1.037603,-0.103742,-0.003724,2.865139,-3.656697,-2.677295,0,0,0.8208443607137308,-0.2219122451143887,-0.5001956886875146,-0.1579571051625214,-1.0455786871448072,-0.0972078874133524,-0.0001009092969264,1.5670790953654403,-1.43278709483468,-1.049889469628024
1774,2024 8 08,15:40:24.187,0.780972,-0.481045,-0.329255,-0.224205,-1.071275,-0.190564,-0.078148,-2.300904,8.964641,-26.429012,0,0,0.7830879911987094,-0.4758419418279647,-0.3281519945429313,-0.2294503964403383,-0.9832769380609936,-0.2045203120209837,-0.0574465470414818,-2.058781074200989,2.676541449435004,-6.145334956756549,0.818267,-0.215684,-0.508795,-0.158262,-1.044309,-0.10378,0.000424,2.202387,-4.324545,-2.424424,0,0,0.8207154926780442,-0.2216008328586692,-0.5006256542531389,-0.1579723499043953,-1.0455152027875667,-0.0975364930426848,-7.466383208013154e-05,1.5988444905971682,-1.577374990092946,-1.1186161961466228
1775,2024 8 08,15:40:24.195,0.781158,-0.482102,-0.328776,-0.221976,-1.077644,-0.200483,-0.063791,-1.104414,8.803013,-31.765104,0,0,0.7829914916387739,-0.4761549447365665,-0.3281831948157847,-0.2290766766183214,-0.9879952911579436,-0.2043184464199345,-0.0577637696894077,-2.0110627204909397,2.9828650269632533,-7.426323408918721,0.817968,-0.21545,-0.509363,-0.158297,-1.043597,-0.108776,0.001062,2.256318,-5.020288,-2.282761,0,0,0.8205781180441419,-0.2212932912157358,-0.5010625215404819,-0.1579885824091755,-1.0454192926481882,-0.0980984683905506,-1.7830640476124946e-05,1.6317181660673097,-1.7495206405882986,-1.1768234363392915
1776,2024 8 08,15:40:24.204,0.781462,-0.483358,-0.328028,-0.219257,-1.130132,-0.196333,-0.06193,-1.224255,9.329828,-39.419376,0,0,0.7829150170568352,-0.4765150974997382,-0.3281754350749954,-0.2285856927874053,-0.9951021266000464,-0.2039191740989377,-0.0579720812049374,-1.971722334466392,3.3002131756150908,-9.025976038472784,0.817634,-0.215253,-0.509973,-0.15833,-1.054003,-0.106623,-0.01026,1.772656,-5.336502,-2.071137,0,0,0.8204309121419349,-0.220991276654949,-0.5015080454634577,-0.1580056532887167,-1.0458484780157788,-0.098524694971023,-0.0005299391084523,1.638765057763944,-1.928869708558884,-1.2215391145223269
1777,2024 8 08,15:40:24.212,0.781887,-0.484919,-0.326879,-0.215979,-1.153499,-0.198593,-0.030638,-2.895329,8.355967,-48.405098,0,0,0.7828636162039935,-0.4769352926247512,-0.3281106133212457,-0.227955358148035,-1.0030219702700442,-0.2036528653939908,-0.0566053771446905,-2.0179026677430723,3.553000866834336,-10.994932136549144,0.817295,-0.21508,-0.510574,-0.158375,-1.050917,-0.124981,-0.036027,1.13658,-5.100367,-2.029701,0,0,0.8202741165348381,-0.2206957128222015,-0.5019613431902848,-0.1580241206242809,-1.0461019041149895,-0.0998475102224719,-0.0023047921530297,1.6136558048757468,-2.0874445731309392,-1.2619472087962105
1778,2024 8 08,15:40:24.220,0.782695,-0.487457,-0.324432,-0.210985,-1.195343,-0.213599,-0.050544,-4.720098,1.982553,-60.470802,0,0,0.7828551853937937,-0.4774613779935137,-0.3279266826551834,-0.2271068402406333,-1.012638021756542,-0.2041501721242913,-0.056302308287456,-2.1530124343559187,3.474478473492619,-13.468725629721686,0.816848,-0.214883,-0.511352,-0.158439,-1.052761,-0.112766,-0.01267,0.612051,-4.457649,-1.588344,0,0,0.8201028107080961,-0.2204050771810914,-0.5024308760307705,-0.1580448645930668,-1.0464348589092405,-0.1004934347113483,-0.0028230525453782,1.5635755646319591,-2.205954794474392,-1.2782670483563998
1779,2024 8 08,15:40:24.229,0.78279,-0.487737,-0.324135,-0.210449,-1.200141,-0.215785,-0.05605,-4.879785,1.055181,-61.683548,0,0,0.782851926124104,-0.477975159093838,-0.3277370985224241,-0.2262739482286016,-1.022013170668715,-0.2047319135180767,-0.0562896928730832,-2.2893510626381226,3.353513599817988,-15.8794667482356,0.816847,-0.214882,-0.511355,-0.158439,-1.052766,-0.112796,-0.012695,0.610383,-4.455605,-1.586941,0,0,0.8199400201726913,-0.2201289233220368,-0.502877082229232,-0.1580645713634135,-1.046751415963778,-0.1011085629757809,-0.0033166499181093,1.5159159364003612,-2.318437304750673,-1.2937007459385796
1780,2024 8 08,15:40:24.237,0.783734,-0.489364,-0.32163,-0.206965,-1.142276,-0.215009,-0.045948,-3.097248,-4.981373,-67.623306,0,0,0.7828960298178989,-0.478544601139146,-0.3274317435963029,-0.2253085008171715,-1.0280263121352793,-0.2052457678421728,-0.055772608229429,-2.329745909506216,2.936769269827088,-18.46665871082382,0.816543,-0.214826,-0.511831,-0.158543,-1.044744,-0.109493,-0.016471,-0.274487,-3.865674,-1.468936,0,0,0.8197701691640568,-0.219863777155935,-0.5033247781177703,-0.1580884927952428,-1.0466510451655893,-0.1015277848269918,-0.0039743674222038,1.4263957895803432,-2.3957991395131386,-1.3024625086416506
1781,2024 8 08,15:40:24.245,0.784922,-0.491402,-0.318441,-0.202511,-1.131842,-0.224506,-0.061329,-2.713158,-4.550036,-74.25827,0,0,0.782997328327004,-0.4791874710821887,-0.3269822064164878,-0.2241686257763129,-1.0332170965285152,-0.2062087794500642,-0.0560504278179575,-2.348916514030905,2.5624290063357336,-21.256239275282624,0.816244,-0.214797,-0.512288,-0.158646,-1.046803,-0.107989,-0.000325,-0.478023,-3.671877,-1.232614,0,0,0.8195938607058538,-0.2196104382981382,-0.5037729392118818,-0.1581163681554807,-1.0466586429073097,-0.1018508455856422,-0.0037918990510936,1.331174850101326,-2.4596030325374816,-1.298970083209568
1782,2024 8 08,15:40:24.254,0.786045,-0.493804,-0.315027,-0.197586,-1.119132,-0.247038,-0.066304,-6.152874,-2.804413,-80.770393,0,0,0.7831497119106537,-0.4799182975280792,-0.3263844460956633,-0.2228394944874973,-1.0375128417020894,-0.208250240477561,-0.0565631064270596,-2.5391143883293594,2.294086906018947,-24.23194696151849,0.815972,-0.214761,-0.512706,-0.158746,-1.043694,-0.10059,-0.01147,-0.430395,-3.204718,-1.164192,0,0,0.8194127676705611,-0.2193679663832313,-0.5042195922512877,-0.1581478497477066,-1.0465104107619445,-0.1017878033063601,-0.0041758040985389,1.2430963575962597,-2.4968587809106078,-1.2922311790490897
1783,2024 8 08,15:40:24.262,0.7872,-0.496388,-0.311337,-0.192286,-1.083286,-0.274227,-0.055923,-4.994314,-3.054341,-85.846642,0,0,0.7833522263151211,-0.4807417826516753,-0.3256320737908802,-0.2213118197631224,-1.0398014996169849,-0.2115490784536829,-0.0565311011057067,-2.6618743689128914,2.0266655107179994,-27.312681713442565,0.815716,-0.2147,-0.51311,-0.158839,-1.051629,-0.093819,-0.01486,-0.03256,-2.442734,-1.385681,0,0,0.819227929287033,-0.2191345680640697,-0.5046641126387232,-0.1581824072603213,-1.046766340223847,-0.1013893631410421,-0.004710013893612,1.1793135397164467,-2.494152541865077,-1.2969036700966352
1784,2024 8 08,15:40:24.270,0.788303,-0.49907,-0.307699,-0.186591,-1.043566,-0.289747,-0.049232,-5.384124,1.405394,-88.88707,0,0,0.783599764999365,-0.4816581935190915,-0.3247354201013362,-0.2195757787749662,-1.0399897246361356,-0.2154589745309988,-0.0561661460504213,-2.7979868504672467,1.9956019351820995,-30.39140112777044,0.815484,-0.214599,-0.513488,-0.158947,-1.050441,-0.097763,-0.014223,-0.002894,-2.163476,-1.735855,0,0,0.8190407328226813,-0.2189077896608662,-0.505105307006787,-0.1582206368973052,-1.0469500732126549,-0.10120804498399,-0.0051856631989314,1.120203162730624,-2.4776187147718227,-1.3188512365918037
1785,2024 8 08,15:40:24.279,0.788534,-0.499638,-0.306934,-0.185379,-1.035163,-0.292649,-0.047993,-5.536893,2.500458,-89.472282,0,0,0.7838464767493968,-0.4825571838431369,-0.3238453490962694,-0.2178659398362179,-1.0397483884043288,-0.2193184758044488,-0.0557574887479003,-2.9349321579438845,2.020844738422994,-33.34544517138191,0.815463,-0.21459,-0.513521,-0.158957,-1.050337,-0.098108,-0.014167,-0.000295,-2.139003,-1.766543,0,0,0.8188618461815472,-0.2186919001778229,-0.5055260916564476,-0.1582574550524399,-1.047119419552022,-0.1010530427347905,-0.0056347300389848,1.0641782545940928,-2.4606879290332317,-1.3412358247622134
1786,2024 8 08,15:40:24.287,0.789225,-0.501966,-0.30433,-0.180348,-1.037686,-0.326976,-0.038893,-5.972983,8.688004,-91.775055,0,0,0.7841154029119269,-0.48352762465098,-0.3228695816414559,-0.215990042844407,-1.0396452689841125,-0.2247013520142264,-0.0549142643105052,-3.0868347000466905,2.354202701501844,-36.26692566281282,0.815268,-0.214485,-0.513837,-0.159078,-1.055949,-0.099008,-0.014594,0.054027,-1.704059,-1.769622,0,0,0.8186821538724698,-0.2184815551689317,-0.5059416370736252,-0.1582984822998179,-1.0475608985744207,-0.100950790598051,-0.0060826935370356,1.013670691864388,-2.4228564825815697,-1.3626551335241028
1787,2024 8 08,15:40:24.295,0.789956,-0.504835,-0.3014,-0.173933,-1.010085,-0.35712,-0.032425,-4.334862,13.642389,-92.288399,0,0,0.7844074327663306,-0.484592993418431,-0.321796102559383,-0.2138871907021867,-1.0381672555349069,-0.231322284413515,-0.05378980109498,-3.149236065044356,2.918612016426752,-39.067999329672176,0.81508,-0.214331,-0.514153,-0.159225,-1.053169,-0.103802,-0.012509,0.220105,-1.335132,-1.983244,0,0,0.8185020461788463,-0.2182740274104851,-0.5063522052199438,-0.158344808184827,-1.0478413036456995,-0.1010933510681484,-0.0064040088601838,0.9739924072711684,-2.3684702584524917,-1.3936845768478978
1788,2024 8 08,15:40:24.304,0.79066,-0.507571,-0.298823,-0.167076,-0.990618,-0.368489,-0.002609,-0.994789,19.912079,-91.701416,0,0,0.7847200611280141,-0.4857418937475095,-0.3206474474314139,-0.2115466311670773,-1.0357897927581614,-0.2381806201928393,-0.051230761040231,-3.041513711792138,3.768285365605414,-41.69967016318856,0.814918,-0.214164,-0.514433,-0.159379,-1.047352,-0.114498,-0.010145,0.556395,-0.605369,-1.7995,0,0,0.818322843869904,-0.2180685260399609,-0.5067562449589467,-0.1583965177755857,-1.0478168384634146,-0.101763583514741,-0.0065910584171746,0.95311253690761,-2.2803151955298664,-1.4139753480055028
1789,2024 8 08,15:40:24.312,0.791209,-0.510192,-0.296837,-0.159873,-1.018119,-0.37933,0.042816,0.800426,27.66346,-90.490944,0,0,0.7850445080716133,-0.486964399060134,-0.3194569250598432,-0.2089629496087234,-1.0349062531202533,-0.2452380891831973,-0.0465284229882194,-2.849416726202531,4.963044097325144,-44.13923385502913,0.814759,-0.214053,-0.51468,-0.159542,-1.046143,-0.103918,-0.001935,-0.072343,-0.713392,-1.411182,0,0,0.8181446516764087,-0.2178677497379628,-0.5071524327109993,-0.1584537918868064,-1.0477331465402435,-0.1018713043390039,-0.0063582554963158,0.9018397600622295,-2.2019690357533728,-1.4138356806052277
1790,2024 8 08,15:40:24.320,0.791539,-0.512807,-0.295338,-0.152475,-1.06892,-0.405999,0.106608,1.912805,33.072182,-89.001373,0,0,0.7853692326680326,-0.4882565291071272,-0.318250978806851,-0.2061385521282873,-1.0366069404642406,-0.2532761347240375,-0.0388716018388084,-2.611305639892404,6.368500992458886,-46.38234081227768,0.814621,-0.213944,-0.514897,-0.159692,-1.03859,-0.104812,-0.008095,-0.3189,-0.268479,-1.302578,0,0,0.8179684690925882,-0.2176715622510646,-0.5075396610754493,-0.1585157022924661,-1.0472759892132315,-0.1020183391220537,-0.0064450927215001,0.8408027720591181,-2.105294533965704,-1.4082727965749662
1791,2024 8 08,15:40:24.329,0.79162,-0.513521,-0.294946,-0.150452,-1.083444,-0.4139,0.124672,2.198904,34.444168,-88.587006,0,0,0.7856817710346309,-0.4895197526517709,-0.3170857298665085,-0.2033542245218729,-1.0389487934410284,-0.2613073279878356,-0.030694421746868,-2.370795157897784,7.772284342835942,-48.4925740716638,0.814481,-0.213853,-0.515119,-0.159811,-1.042242,-0.108998,-0.01514,-0.105366,-0.248325,-0.880984,0,0,0.8177940956379588,-0.2174806341385114,-0.5079186280216769,-0.1585804671778428,-1.04702428975257,-0.102367322165951,-0.006879838085425,0.7934943334561622,-2.0124460572674185,-1.3819083567462178
1792,2024 8 08,15:40:24.337,0.79198,-0.515021,-0.294114,-0.144928,-1.149422,-0.340681,0.130499,10.013839,32.001919,-83.641121,0,0,0.7859966824828993,-0.4907948150191823,-0.315937143373183,-0.2004329132957792,-1.044472453768977,-0.2652760115884438,-0.0226347506595246,-1.7515634500028945,8.983766075694145,-50.2500014180806,0.814458,-0.213837,-0.515157,-0.159831,-1.042862,-0.109708,-0.016335,-0.069128,-0.244904,-0.809436,0,0,0.8176272908560608,-0.2172984524315858,-0.508280546620593,-0.1586429938189506,-1.0468161752649414,-0.1027343560576535,-0.0073525961811538,0.7503632167833539,-1.9240689544040477,-1.3532847389089069
1793,2024 8 08,15:40:24.345,0.79312,-0.515755,-0.292686,-0.138837,-1.125792,-0.232818,0.08324,23.398895,15.301893,-74.116188,0,0,0.7863528483587544,-0.4920428242682231,-0.3147745862045238,-0.1973531176309902,-1.048538431080528,-0.2636531110090216,-0.0173410131265484,-0.4940405275027497,9.299672421909438,-51.44331074717657,0.814335,-0.213814,-0.515324,-0.159947,-1.047309,-0.107077,-0.020097,-0.850751,-0.195028,-0.69802,0,0,0.8174626763132576,-0.2171242298100065,-0.5086327192895633,-0.158708194128003,-1.0468408165016942,-0.1029514882547708,-0.0079898163720961,0.6703075059441862,-1.837616906683845,-1.3205215019634615
1794,2024 8 08,15:40:24.354,0.795297,-0.514935,-0.290679,-0.133539,-0.96689,-0.11597,0.086568,39.980148,-0.001392,-63.597164,0,0,0.7868000559408166,-0.4931874330548119,-0.3135698068942977,-0.1941624117494407,-1.0444560095265014,-0.2562689554585705,-0.012145562470221,1.5296688988723877,8.834619200813966,-52.05100340981774,0.814204,-0.213813,-0.515491,-0.160079,-1.047767,-0.102685,-0.009918,-0.99966,0.057686,-0.530867,0,0,0.8172997424975947,-0.2169586683195062,-0.5089756333250851,-0.1587767344216029,-1.0468871256766097,-0.1029381638420322,-0.0080862255534913,0.5868091306469768,-1.7428517613496526,-1.2810387768652884
1795,2024 8 08,15:40:24.362,0.798079,-0.51283,-0.288927,-0.128758,-0.894316,-0.011847,0.101602,53.025349,-1.406741,-53.310467,0,0,0.7873640031437757,-0.4941695614020713,-0.3123376665495828,-0.1908921911619686,-1.0369490090501765,-0.2440478576856419,-0.0064581843467099,4.1044529039287685,8.322551190773268,-52.11397658932685,0.814084,-0.213807,-0.515634,-0.160234,-1.056314,-0.07463,0.048549,-1.173643,0.540728,-0.593429,0,0,0.817138955372715,-0.2168010849035309,-0.5093085516588308,-0.1588495977005228,-1.0473584693927789,-0.1015227556499306,-0.0052544642758167,0.498786524114628,-1.6286727732821698,-1.2466582880220238
1796,2024 8 08,15:40:24.370,0.801119,-0.509676,-0.288013,-0.124372,-0.934392,0.071738,0.063829,63.746151,1.165507,-40.624275,0,0,0.7880517529865869,-0.4949448833319677,-0.3111214332221036,-0.1875661816038702,-1.0318211585976675,-0.2282585648013598,-0.0029438251293744,7.08653780873233,7.964698981234604,-51.5394915098605,0.813976,-0.213793,-0.515751,-0.160426,-1.052417,-0.099266,-0.015393,-1.257684,0.879579,-0.93876,0,0,0.8169808076040792,-0.2166506806583543,-0.5096306740758892,-0.1589284178154966,-1.04761139592314,-0.1014099178674341,-0.0057613910620259,0.4109629979088965,-1.503260184618061,-1.2312633736209224
1797,2024 8 08,15:40:24.379,0.802118,-0.508606,-0.287754,-0.122962,-0.952178,0.098024,0.048933,67.14888,2.098631,-36.377464,0,0,0.7887550653372576,-0.4956279391653693,-0.3099530615609985,-0.1843359725236766,-1.0278390006677842,-0.2119444365612918,-0.0003499838729057,10.089654918295713,7.671395582172873,-50.78139013436748,0.813881,-0.213766,-0.515843,-0.160649,-1.053061,-0.101032,-0.020072,-1.416801,1.375995,-1.249078,0,0,0.8168258172238753,-0.2165064466254366,-0.5099412903720948,-0.1590144469247218,-1.0478838761269829,-0.1013910219740624,-0.0064769215089246,0.3195747980134517,-1.359297425387158,-1.232154104939876
1798,2024 8 08,15:40:24.387,0.804755,-0.505,-0.287617,-0.12086,-0.948563,0.204355,0.048403,75.539597,-5.498845,-20.582901,0,0,0.7895550620703946,-0.4960965422071008,-0.3088362584829485,-0.1811621738974928,-1.023875200634395,-0.1911294647332272,0.0020876653207395,13.362152022380927,7.0128835530642295,-49.2714656776491,0.813859,-0.21376,-0.515864,-0.1607,-1.053208,-0.101437,-0.021144,-1.453262,1.489746,-1.320186,0,0,0.8166774763626814,-0.2163691242941647,-0.51023742585349,-0.1590987245784857,-1.0481500823206336,-0.1013933208753593,-0.0072102754334784,0.2309329581127791,-1.2168452541178003,-1.236555699692882
1799,2024 8 08,15:40:24.395,0.808242,-0.499735,-0.287654,-0.119343,-0.853721,0.298073,0.056957,79.149956,-12.395126,-4.039867,0,0,0.7904894089668748,-0.4962784650967458,-0.3077771455588011,-0.1780712152026181,-1.015367490602675,-0.1666693414965658,0.0048311320547025,16.65154222126188,6.042483075411018,-47.009885743766645,0.813797,-0.213726,-0.515914,-0.160901,-1.053609,-0.105196,-0.018836,-1.461948,1.883045,-1.382901,0,0,0.8165334525445473,-0.2162369680794565,-0.5105212545608154,-0.1591888383495614,-1.048423028204602,-0.1015834548315913,-0.0077915616618044,0.1462889102071401,-1.0618507414119105,-1.2438729647082378
1800,2024 8 08,15:40:24.404,0.81165,-0.494068,-0.288176,-0.118536,-0.769621,0.350376,0.062534,76.001343,-10.199448,7.185667,0,0,0.791547438518531,-0.4961679418419084,-0.306797088280861,-0.1750944544424872,-1.0030801660725412,-0.1408170744217375,0.0077162754519674,19.619032260198782,5.230386521640467,-44.30010810657832,0.81374,-0.213674,-0.515953,-0.16113,-1.056966,-0.10902,-0.012837,-1.05692,2.025474,-1.172191,0,0,0.81639377991732,-0.2161088196754836,-0.5107928418327746,-0.1592858964320833,-1.0488501767943716,-0.1019552820900117,-0.0080438335787142,0.0861284646967831,-0.9074845043413148,-1.2402888664728258
1801,2024 8 08,15:40:24.412,0.814512,-0.4887,-0.289429,-0.118105,-0.752708,0.370708,0.065228,68.10257,-2.135884,14.506196,0,0,0.7926956665926045,-0.495794544749813,-0.305928683866818,-0.1722449817203629,-0.990561557768914,-0.1152408207006506,0.010591861679369,22.043209147188847,4.862072995558443,-41.3597929012494,0.813701,-0.213617,-0.515957,-0.161388,-1.058898,-0.108567,-0.01166,-1.400526,2.464389,-1.341897,0,0,0.8162591409214539,-0.2159842286917094,-0.5110510497411358,-0.1593910016104791,-1.049352567954653,-0.1022858679855111,-0.0082246418997785,0.0117957414619439,-0.738890829124249,-1.2453692731491843
1802,2024 8 08,15:40:24.420,0.816666,-0.483903,-0.291454,-0.11802,-0.803278,0.367173,0.063942,57.829094,5.826238,21.316999,0,0,0.7938941832629742,-0.4951999675123223,-0.305204949673477,-0.1695337326343447,-0.9811973798804684,-0.0911201296656181,0.0132593685954006,23.832503389829405,4.910281245780521,-38.22595330618692,0.813678,-0.213553,-0.515932,-0.161674,-1.046322,-0.107386,-0.01241,-1.402904,3.066699,-1.563588,0,0,0.8161300838753812,-0.215862667257124,-0.511295097254079,-0.1595051515299552,-1.0492010395569202,-0.1025408745862355,-0.0084339098047896,-0.0589392456111532,-0.5486113376680365,-1.261280209491725
1803,2024 8 08,15:40:24.429,0.817429,-0.482153,-0.292243,-0.118005,-0.825288,0.364743,0.06326,53.917969,8.735058,23.841114,0,0,0.7950709240998255,-0.4945476191367061,-0.3045568521898031,-0.1669572960026275,-0.9734019108864448,-0.0683269731823372,0.0157594001656305,25.336776670337937,5.101520083491494,-35.12259994087758,0.813671,-0.213465,-0.51589,-0.161956,-1.04814,-0.111611,-0.009817,-1.010131,3.449419,-1.624008,0,0,0.8160071296816122,-0.2157427838942678,-0.511524842391375,-0.1596276939534574,-1.049147987579074,-0.1029943808569238,-0.0085030643145501,-0.1064988333305955,-0.3487098207846346,-1.279416599017139
1804,2024 8 08,15:40:24.437,0.818354,-0.479249,-0.294213,-0.118512,-0.850306,0.349706,0.062471,45.979458,10.37379,29.483896,0,0,0.7962350778948342,-0.4937826881798708,-0.304039659580313,-0.1645350312024961,-0.9672471153421226,-0.0474253245232203,0.018094980157349,26.36891073682104,5.365133579316919,-31.8922751438337,0.813669,-0.21344,-0.515878,-0.162035,-1.04865,-0.112796,-0.009089,-0.899903,3.556825,-1.640964,0,0,0.8158902231975315,-0.2156276446995544,-0.5117425002718062,-0.1597480592557845,-1.0491230882001203,-0.1034844618140776,-0.0085323610988226,-0.1461690416640658,-0.1534330797454028,-1.2974939690662817
1805,2024 8 08,15:40:24.445,0.819079,-0.476008,-0.296954,-0.119714,-0.850087,0.315049,0.057714,36.01321,11.972032,36.422546,0,0,0.7973772740000924,-0.4928939537708772,-0.3036853766012973,-0.1622939796423713,-0.9613891095750164,-0.0293016082970593,0.0200759311494816,26.851125699979985,5.695478500351073,-28.47653408664201,0.81367,-0.213342,-0.515846,-0.162262,-1.049823,-0.102194,-0.002381,-0.868096,3.374065,-1.902361,0,0,0.8157792120376548,-0.2155133624645767,-0.5119476752582159,-0.1598737562929953,-1.0491580837901142,-0.1034199387233737,-0.0082247930438815,-0.1822653895808625,0.0229418242418672,-1.3277373206129677
1806,2024 8 08,15:40:24.454,0.819322,-0.473089,-0.300196,-0.121506,-0.841692,0.266499,0.058544,26.112732,15.452254,42.619141,0,0,0.7984745103000878,-0.4919037060823333,-0.3035109077712324,-0.1602545806602527,-0.9554042540962656,-0.0145115778822063,0.0219993345920075,26.814206014980986,6.183317275333519,-24.921750332309912,0.813693,-0.213211,-0.515783,-0.16252,-1.048141,-0.110554,-0.008512,-0.774101,3.827333,-1.810675,0,0,0.815674901435772,-0.2153982443413478,-0.5121394414953051,-0.1600060684783455,-1.0491072296006083,-0.103776641787205,-0.0082391533916874,-0.2118571701018193,0.2131613830297739,-1.3518842045823192
1807,2024 8 08,15:40:24.462,0.819044,-0.498006,-0.219964,-0.181035,-0.856622,0.217846,0.060696,17.810802,20.206654,47.49369,0,0,0.7995029847850833,-0.4922088207782166,-0.2993335623826708,-0.16129360162724,-0.9504651413914524,-0.002893698988096,0.0239341678624071,26.364035814231933,6.884484111566843,-21.30097831569441,0.813725,-0.213057,-0.515707,-0.162803,-1.044953,-0.096641,0.006908,-0.494559,4.090566,-1.908301,0,0,0.8155774063639835,-0.2152811821242804,-0.5123178194205399,-0.1601459150544282,-1.0488995181205778,-0.1034198596978447,-0.007481795722103,-0.2259922615967284,0.4070316138782852,-1.379705044353203
1808,2024 8 08,15:40:24.470,0.818327,-0.468544,-0.308011,-0.126159,-0.88704,0.1662,0.059871,11.865151,24.122908,51.503185,0,0,0.8004441855458292,-0.4910255797393058,-0.2997674342635373,-0.159536871545878,-0.9472938843218796,0.0055609859613087,0.0257310094692867,25.639091573520336,7.746405305988501,-17.660770149909695,0.813758,-0.212902,-0.515623,-0.163104,-1.051575,-0.111345,0.001087,-0.366151,4.172513,-2.062844,0,0,0.8154864360457843,-0.2151622230180664,-0.5124830784495129,-0.1602938193017068,-1.0490332922145489,-0.1038161167129525,-0.0070533559359979,-0.2330001985168919,0.5953056831843709,-1.4138619921355429
1809,2024 8 08,15:40:24.479,0.818009,-0.467707,-0.309719,-0.127186,-0.900274,0.144787,0.059343,9.555781,25.669497,53.107162,0,0,0.8013224262685377,-0.4898596507523405,-0.3002650125503605,-0.1579193279685841,-0.9449428901057856,0.0125222866632433,0.0274116089958224,24.83492604484432,8.642559890689077,-14.12237354241421,0.813815,-0.212717,-0.515516,-0.1634,-1.049098,-0.076117,0.017659,-0.325244,4.403355,-1.989236,0,0,0.8154028642434951,-0.215039961867163,-0.5126347245270372,-0.1604491283366215,-1.0490365276038214,-0.1024311608773049,-0.005817738139198,-0.2376123885910473,0.7857081490251524,-1.4426306925287655
1810,2024 8 08,15:40:24.487,0.817213,-0.466398,-0.312937,-0.129197,-0.912994,0.108377,0.053564,7.542174,26.944103,55.732021,0,0,0.8021169549551108,-0.4886865682147234,-0.3008986119228424,-0.1564832115701549,-0.9433454456004964,0.0173150223300811,0.0287192285460313,23.9702884426021,9.557637046154625,-10.629653815293498,0.813834,-0.212656,-0.515481,-0.163496,-1.048292,-0.097484,0.007222,-0.311921,4.478537,-1.965263,0,0,0.8153244210313203,-0.2149207637738049,-0.5127770383006853,-0.1606014719197904,-1.0489993012236305,-0.1021838028334396,-0.0051657512322381,-0.2413278191614949,0.9703495915738948,-1.468762307902327
1811,2024 8 08,15:40:24.495,0.816655,-0.465504,-0.315162,-0.13059,-0.921297,0.083365,0.049377,6.243969,27.759451,57.530682,0,0,0.8028438572073552,-0.4875274398039873,-0.3016117813267003,-0.1551885509916471,-0.9422430233204716,0.020617521213577,0.0297521171187297,23.083972470471995,10.467727743846892,-7.221637024528821,0.813851,-0.212599,-0.51545,-0.163582,-1.047889,-0.109967,-0.005101,-0.20762,4.540483,-1.953295,0,0,0.8152507499797543,-0.2148046755851146,-0.5129106863856511,-0.1607504983238009,-1.0489437861624489,-0.1025729626917676,-0.0051625136706261,-0.2396424282034202,1.1488562619952,-1.492988942507211
1812,2024 8 08,15:40:24.504,0.815347,-0.463644,-0.319943,-0.133708,-0.919515,0.040349,0.053587,6.640969,29.252268,62.474346,0,0,0.8034690143469874,-0.4863332678137879,-0.3025283422603653,-0.1541145234420648,-0.941106622154448,0.0216040951528982,0.0309438612627932,22.26182229694839,11.406954756654548,-3.7368378733023793,0.813914,-0.212397,-0.515346,-0.163861,-1.047948,-0.113406,-0.003275,0.32068,4.655021,-1.985183,0,0,0.8151839124807666,-0.2146842918058589,-0.5130324520663685,-0.1609060234076108,-1.048893996854326,-0.1031146145571792,-0.0050681379870948,-0.2116263067932492,1.3241644988954402,-1.5175986453818502
1813,2024 8 08,15:40:24.512,0.81388,-0.461573,-0.325209,-0.137064,-0.939545,0.000359,0.049971,7.819779,33.205936,68.277832,0,0,0.8039895636296379,-0.4850952544230984,-0.303662375147347,-0.1532619972699615,-0.9410285410467256,0.0205418403952533,0.0318952181996536,21.53972013210097,12.49690381882182,-0.1361043796372598,0.813977,-0.212196,-0.515232,-0.164167,-1.048227,-0.10077,0.023952,-0.219507,4.469035,-2.156445,0,0,0.8151235668567282,-0.2145598772155659,-0.5131424294630501,-0.1610690722372303,-1.0488606470116095,-0.1029973838293203,-0.0036171310877401,-0.2120203414535867,1.4814080239506682,-1.5495409631127577
1814,2024 8 08,15:40:24.520,0.812282,-0.459206,-0.330943,-0.140715,-0.947307,-0.036786,0.048435,10.170773,35.676155,75.543236,0,0,0.804404185448156,-0.4838007917019434,-0.3050264063899796,-0.1526346474064635,-0.9413424639943891,0.0176754483754906,0.0327222072896709,20.97127277549592,13.65586637788073,3.647862639344603,0.814055,-0.211998,-0.515098,-0.164456,-1.048376,-0.110987,-0.008726,-0.3127,4.944439,-1.9882,0,0,0.8150701385138918,-0.2144317833547876,-0.5132402079898976,-0.1612384186253687,-1.0488364146610292,-0.1033968646378542,-0.0038725745333531,-0.2170543243809073,1.6545595727531346,-1.5714739149571195
1815,2024 8 08,15:40:24.529,0.810548,-0.456455,-0.337214,-0.144712,-0.993086,-0.059756,0.040187,12.061374,38.820267,83.380562,0,0,0.8047113761757481,-0.4824335021168462,-0.3066357860704806,-0.1522385150361403,-0.9439296407946696,0.0138038759567161,0.0330954469251873,20.52577783672112,14.914086408986694,7.634497607377373,0.814144,-0.48685,-0.251271,-0.192377,-1.053408,-0.109384,-0.009962,-0.774392,5.663829,-2.117979,0,0,0.8150238315881972,-0.2280526941870482,-0.5001417475904026,-0.1627953476941003,-1.0490649939279777,-0.1036962214059615,-0.0041770458066854,-0.244921208161862,1.8550230441154776,-1.5987991692092636
1816,2024 8 08,15:40:24.537,0.810426,-0.456261,-0.337656,-0.144994,-0.996313,-0.061375,0.039606,12.194667,39.041939,83.933121,0,0,0.8049971073669606,-0.4811248770110039,-0.3081867967669566,-0.1518762892843332,-0.9465488087549362,0.0100449321588803,0.033420974578928,20.109222294885065,16.12047903853736,11.449428777008505,0.814255,-0.211666,-0.514717,-0.165086,-1.048352,-0.114294,-0.023188,-0.903547,6.680584,-2.078827,0,0,0.8149853900087873,-0.2272333594776958,-0.5008705102108825,-0.1629098803093953,-1.0490293442315788,-0.1042261103356635,-0.0051275935163512,-0.2778524977537688,2.096301091909704,-1.6228005607488003
1817,2024 8 08,15:40:24.545,0.808739,-0.453364,-0.343789,-0.14901,-1.032264,-0.068999,0.045284,14.628541,39.005424,89.37542,0,0,0.8051842019986126,-0.4797368331604537,-0.3099669069286087,-0.1517329748201166,-0.9508345683171894,0.0060927355509363,0.0340141258499816,19.83518823014081,17.264726286610493,15.34572833815808,0.814281,-0.211635,-0.514664,-0.16516,-1.048346,-0.114705,-0.020661,-0.99625,6.788007,-2.082996,0,0,0.814950170508348,-0.226453441503811,-0.5015601847003383,-0.1630223862939255,-1.0489951770199997,-0.1047500548188803,-0.0059042638405336,-0.3137723728660804,2.330886387314218,-1.6458103327113602
1818,2024 8 08,15:40:24.554,0.806942,-0.449952,-0.350437,-0.153533,-1.036602,-0.075381,0.038014,16.76362,38.350399,92.452309,0,0,0.8052720918986819,-0.4782475915024309,-0.3119904115821783,-0.1518229760791107,-0.95512293990133,0.0020190487733894,0.0342141195574825,19.68160981863377,18.319009922279967,19.201057371250176,0.814407,-0.211506,-0.514401,-0.165523,-1.050094,-0.113746,0.002906,-1.492292,6.968589,-2.167054,0,0,0.8149230119829305,-0.2257060694286204,-0.5022022254653213,-0.1631474169792292,-1.0490501181689995,-0.1051998520779362,-0.0054637506485069,-0.3726983542227764,2.562771517948507,-1.671872516075792
1819,2024 8 08,15:40:24.562,0.805068,-0.446374,-0.357218,-0.158108,-1.043929,-0.090641,0.028226,17.692318,39.296349,93.48362,0,0,0.8052618873037477,-0.4766539119273094,-0.3142517910030694,-0.1521372272751552,-0.9595632429062632,-0.0026139536652799,0.0339147135796083,19.58214522770208,19.367876876165965,22.915185502687667,0.814555,-0.211347,-0.514098,-0.165938,-1.044844,-0.107692,0.008009,-1.28149,7.122801,-2.458407,0,0,0.8149046113837839,-0.2249881159571894,-0.5027970141920552,-0.1632869461302677,-1.0488398122605496,-0.1053244594740394,-0.0047901131160816,-0.4181379365116375,2.7907729920510813,-1.7111992402720024
1820,2024 8 08,15:40:24.570,0.803071,-0.442796,-0.364097,-0.162562,-1.062985,-0.108967,0.009294,17.487875,41.681919,92.869087,0,0,0.8051523429385603,-0.4749610163309439,-0.3167440514529159,-0.1526584659113974,-0.96473433076095,-0.0079316059820159,0.0326836779006279,19.47743171631697,20.483578982357663,26.41288057755328,0.814697,-0.21114,-0.513828,-0.166342,-1.045739,-0.10898,0.008205,-0.739275,6.757487,-2.82054,0,0,0.8148942308145947,-0.2242957101593299,-0.5033485634824525,-0.1634396988237543,-1.048684771647522,-0.1055072365003375,-0.0041403574602775,-0.4341947896860557,2.989108692448527,-1.7666662782584022
1821,2024 8 08,15:40:24.579,0.800943,-0.439305,-0.371005,-0.166855,-1.085526,-0.138915,0.012615,16.522802,43.249443,91.27636,0,0,0.8049418757916322,-0.4731782155143967,-0.3194570988802701,-0.1533682926158276,-0.9707739142229026,-0.0144807756829151,0.0316802440055965,19.329700230501125,21.621872183239777,29.656054548675616,0.814825,-0.210907,-0.513591,-0.166743,-1.051074,-0.109253,0.00787,-0.619379,6.303401,-2.955992,0,0,0.814890769273865,-0.2236262746513634,-0.5038606853083298,-0.1636048638825666,-1.048804233065146,-0.1056945246753206,-0.0035398395872636,-0.4434540002017528,3.1548233078261,-1.826132564345482
1822,2024 8 08,15:40:24.587,0.800635,-0.438801,-0.372002,-0.167475,-1.08878,-0.143239,0.013094,16.383486,43.475731,91.046432,0,0,0.8047265320020506,-0.4714593547386768,-0.3220843439362565,-0.1540736279850362,-0.9766742185117574,-0.0209186868987694,0.0307509318053167,19.182389518976063,22.714565124077787,32.72557342124183,0.814924,-0.210701,-0.513394,-0.167122,-1.052911,-0.116763,0.007822,-0.868854,6.23785,-3.242328,0,0,0.8148924308101716,-0.2229800109187953,-0.5043373510429133,-0.1637807206884383,-1.0490095714118886,-0.1062479484415545,-0.0029717476079004,-0.4647240001916652,3.3089746424347948,-1.896942336128208
1823,2024 8 08,15:40:24.595,0.79866,-0.435921,-0.377926,-0.171101,-1.110396,-0.178012,-0.010377,14.687268,43.409439,89.742073,0,0,0.804423205401948,-0.469682437001743,-0.3248764267394437,-0.1549249965857844,-0.9833603075861695,-0.0287733525538309,0.0286945352150508,18.957633443027262,23.749308817873896,35.57639840017974,0.814951,-0.21064,-0.513341,-0.167231,-1.053581,-0.118315,0.007101,-0.859629,6.234515,-3.300588,0,0,0.8148953592696629,-0.2223630103728555,-0.5047875334907677,-0.1639532346540163,-1.049238142841294,-0.1068513010194768,-0.0024681102275054,-0.484469250182082,3.455251660313055,-1.9671246193217973
1824,2024 8 08,15:40:24.604,0.796433,-0.432708,-0.384401,-0.175145,-1.095561,-0.198226,-0.030313,13.753796,41.94582,88.072395,0,0,0.8040236951318506,-0.4678337151516558,-0.3278526554024715,-0.1559359967564952,-0.9889703422068612,-0.0372459849261394,0.0257441584542983,18.6974415708759,24.6591343769802,38.201198230170746,0.81504,-0.210427,-0.513161,-0.167618,-1.055306,-0.120132,0.002909,-0.656469,6.304367,-3.430781,0,0,0.8149025913061798,-0.2217662098542127,-0.5052062068162293,-0.1641364729213155,-1.0495415356992293,-0.107515335968503,-0.0021992547161301,-0.4930692376729778,3.597707427297402,-2.040307438355708
1825,2024 8 08,15:40:24.612,0.794076,-0.429587,-0.39089,-0.179115,-1.095307,-0.223959,-0.047293,12.500593,43.170216,85.650368,0,0,0.803526310375258,-0.465921379394073,-0.3310045226323479,-0.1570949469186704,-0.994287175096518,-0.0465816356798324,0.0220923005315834,18.387599142332107,25.58468845813119,40.57365671866221,0.815144,-0.210202,-0.512935,-0.168086,-1.051228,-0.114926,0.00576,-1.302089,6.527913,-3.667657,0,0,0.8149146617408708,-0.221187999361502,-0.5055926464754178,-0.1643339492752497,-1.0496258589142675,-0.1078858691700778,-0.0018012919803236,-0.5335202257893289,3.744217705932532,-2.121674916437922
1826,2024 8 08,15:40:24.620,0.791563,-0.426704,-0.397338,-0.182901,-1.103073,-0.261206,-0.06532,9.970761,45.01104,82.852661,0,0,0.8029281448564951,-0.4639605104243693,-0.3343211965007305,-0.1583852495727369,-0.999726466341692,-0.0573128538958408,0.0177216855050042,17.9667572352155,26.556006035224627,42.687606932729096,0.815257,-0.209992,-0.512676,-0.168592,-1.055457,-0.114669,0.008953,-1.610419,6.961817,-3.758264,0,0,0.8149317786538273,-0.2206281993934269,-0.5059468141516469,-0.1645468518114872,-1.0499174159685545,-0.1082250257115739,-0.0012635773813074,-0.5873651644998624,3.9050976706359055,-2.203504370616026
1827,2024 8 08,15:40:24.629,0.788902,-0.424045,-0.403748,-0.186507,-1.130069,-0.279364,-0.071967,7.97622,46.531944,80.515877,0,0,0.8022268376136703,-0.4619647349031509,-0.337792536675694,-0.1597913370941,-1.0062435930246074,-0.0684154112010487,0.013237251229754,17.467230373454722,27.554802933463392,44.57902043609264,0.815407,-0.209743,-0.512362,-0.169129,-1.056344,-0.120561,-0.005366,-1.29341,7.936304,-4.107198,0,0,0.8149555397211358,-0.2200839394237556,-0.5062675734440645,-0.1647759592209129,-1.0502387451701265,-0.1088418244259952,-0.0014686985122421,-0.6226674062748693,4.10665798710411,-2.298689052085225
1828,2024 8 08,15:40:24.637,0.786132,-0.421622,-0.409957,-0.190113,-1.150528,-0.311708,-0.092398,4.561902,44.894413,78.983482,0,0,0.8014220957329867,-0.4599475981579933,-0.3414007598419093,-0.161307420239395,-1.013457813373377,-0.0805800406409963,0.0079554886682663,16.821963954781985,28.42178343679022,46.29924351428801,0.815551,-0.209515,-0.512056,-0.169645,-1.046312,-0.097161,0.007852,-1.474826,8.220738,-4.426692,0,0,0.814985312735079,-0.2195554924525678,-0.5065569947718612,-0.1650194112598672,-1.0500424079116202,-0.1082577832046954,-0.00100266358663,-0.6652753359611258,4.312361987748904,-2.405089199480963
1829,2024 8 08,15:40:24.645,0.785532,-0.421097,-0.411303,-0.190895,-1.154966,-0.318726,-0.09683,3.821169,44.539154,78.651031,0,0,0.8006275909463374,-0.4580050682500937,-0.3448958718498138,-0.1627867992274252,-1.020533222704708,-0.0924873386089465,0.002716214234853,16.171924207042885,29.22765196495071,47.91683288857361,0.815598,-0.209438,-0.511953,-0.169822,-1.044186,-0.115313,0.011352,-1.552358,8.269722,-4.540542,0,0,0.815015947098325,-0.2190496178299394,-0.5068267950332681,-0.1652595406968738,-1.049749587516039,-0.1086105440444607,-0.0003849304072985,-0.7096294691630695,4.510229988361459,-2.5118618395069148
1830,2024 8 08,15:40:24.654,0.783207,-0.419312,-0.416091,-0.193954,-1.154483,-0.340026,-0.098206,0.771113,41.948261,77.552994,0,0,0.7997565613990204,-0.456070414837589,-0.348455628257323,-0.164345159266054,-1.0272307115694728,-0.1048642716784991,-0.0023298964768896,15.40188364669074,29.86368241670317,49.39864094414492,0.81573,-0.209213,-0.511666,-0.17033,-1.045234,-0.109024,0.022869,-1.660265,8.18154,-4.866599,0,0,0.8150516497434088,-0.2185577869384424,-0.5070687552816047,-0.1655130636620302,-1.049523808140237,-0.1086312168422376,0.0007777661130664,-0.7571612457049159,4.693795488943386,-2.629598697531569
1831,2024 8 08,15:40:24.662,0.78047,-0.417408,-0.421347,-0.197694,-1.155472,-0.353863,-0.091179,-2.749478,38.214214,76.789085,0,0,0.7987922333290693,-0.4541372940957096,-0.3521001968444568,-0.1660126013027512,-1.0336427759909992,-0.1173142080945742,-0.0067723516530451,14.494315564356205,30.281208995868013,50.76816314693768,0.815883,-0.208896,-0.511362,-0.170897,-1.054699,-0.115519,0.014744,-0.688706,8.066436,-5.099834,0,0,0.8150932172562383,-0.2180746975915203,-0.5072834175175244,-0.1657822604789286,-1.049782567733225,-0.1089756060001257,0.0014760778074131,-0.7537384834196701,4.862427514496216,-2.7531104626549907
1832,2024 8 08,15:40:24.670,0.777675,-0.415677,-0.426279,-0.201735,-1.13392,-0.381219,-0.087282,-6.969816,32.625011,74.241409,0,0,0.7977363716626158,-0.452214279390924,-0.355809137002234,-0.1677987212376137,-1.0386566371914492,-0.1305094476898455,-0.0107978340703928,13.421108986138393,30.398399096074613,51.94182543959079,0.816048,-0.208513,-0.511057,-0.17149,-1.067064,-0.118913,0.00203,-0.200944,8.281305,-5.490652,0,0,0.8151409563934263,-0.2175966127119443,-0.5074720966416482,-0.1660676474549822,-1.050646639346564,-0.1094724757001194,0.0015037739170424,-0.7260987592486866,5.033371388771405,-2.889987539522241
1833,2024 8 08,15:40:24.679,0.774951,-0.414224,-0.430656,-0.205869,-1.097586,-0.413276,-0.082346,-10.820669,27.574936,70.365211,0,0,0.796597103079485,-0.4503147654213778,-0.3595514801521223,-0.169702235175733,-1.0416031053318766,-0.1446477753053532,-0.0143752423668732,12.209020086831472,30.25722594127088,52.86299471761125,0.816222,-0.208082,-0.510733,-0.172146,-1.069418,-0.117045,0.007708,-0.275183,8.879044,-6.295506,0,0,0.8151950085737549,-0.2171208820763471,-0.5076351418095657,-0.1663715650822331,-1.0515852073792358,-0.1098511019151135,0.0018139852211903,-0.7035529712862523,5.225655019332835,-3.060263462546129
1834,2024 8 08,15:40:24.687,0.772218,-0.413128,-0.434598,-0.21002,-1.07885,-0.464258,-0.078215,-15.022709,25.011154,67.088219,0,0,0.7953781479255106,-0.4484554271503089,-0.3633038061445162,-0.1717181234169464,-1.043465450065283,-0.1606282865400855,-0.0175672302485295,10.8474336324899,29.99492234420734,53.57425593173068,0.816372,-0.207681,-0.51044,-0.172789,-1.065123,-0.115022,0.00459,-0.563177,9.035465,-7.043261,0,0,0.8152538581450672,-0.2166488879725297,-0.5077753847190875,-0.1666924368281214,-1.0522620970102738,-0.1101096468193578,0.0019527859601308,-0.6965341727219396,5.416145518366193,-3.2594133394188223
1835,2024 8 08,15:40:24.695,0.771479,-0.412832,-0.435662,-0.211141,-1.073791,-0.478024,-0.077099,-16.157387,24.318855,66.203331,0,0,0.794183190529235,-0.4466742557927934,-0.3669217158372904,-0.173689267246099,-1.0449817275620186,-0.1764980722130812,-0.0205438187361031,9.497192600865404,29.71111897699697,54.20570968514414,0.81643,-0.20752,-0.510329,-0.17304,-1.063726,-0.113621,0.005978,-0.581634,9.11329,-7.351935,0,0,0.8153126652378138,-0.2161924435739032,-0.507903065483133,-0.1670098149867153,-1.05283529215976,-0.1102852144783899,0.0021540466621242,-0.6907891640858426,5.601002742447883,-3.464039422447881
1836,2024 8 08,15:40:24.704,0.76935,-0.412213,-0.438369,-0.21448,-1.058503,-0.524188,-0.0813,-18.294754,20.309338,64.178825,0,0,0.7929415310027732,-0.4449511930031538,-0.3704940800454258,-0.1757288038837941,-1.0456577911839176,-0.1938825686024272,-0.0235816277992979,8.107595270822133,29.24102992814712,54.70436545088693,0.816572,-0.207085,-0.510058,-0.173682,-1.06057,-0.108393,0.01906,-0.229268,9.38932,-8.247864,0,0,0.815375631975923,-0.2157370713952081,-0.5080108122089764,-0.1673434242373796,-1.053222027551772,-0.1101906037544704,0.002999344329018,-0.6677131058815504,5.790418605325488,-3.703230651325487
1837,2024 8 08,15:40:24.712,0.767047,-0.411483,-0.441152,-0.218381,-1.019811,-0.564852,-0.078727,-18.091377,15.5159,60.768421,0,0,0.7916468044526346,-0.443277783352996,-0.3740269760431545,-0.1778614136896044,-1.0443654516247216,-0.2124310401723058,-0.026338896409333,6.7976466572810255,28.55477343173976,55.00756822834258,0.816747,-0.206515,-0.509732,-0.174491,-1.051097,-0.111061,0.017567,-0.152721,9.630585,-9.427028,0,0,0.8154442003771268,-0.2152759678254477,-0.5080968715985276,-0.1677008030255106,-1.0531157761741834,-0.1102341235667469,0.0037277271125671,-0.6419635005874729,5.982426925059214,-3.989420518759213
1838,2024 8 08,15:40:24.720,0.764821,-0.410794,-0.44373,-0.222226,-0.98332,-0.606336,-0.074237,-16.843658,13.258293,56.074814,0,0,0.7903055142300028,-0.4416535941853462,-0.3775121272409968,-0.1800796430051241,-1.0413131790434855,-0.2321262881636905,-0.0287338015888663,5.615581424416974,27.78994941015277,55.060930516925445,0.816914,-0.205854,-0.509429,-0.175374,-1.046351,-0.11456,0.038985,0.466018,9.405597,-10.35161,0,0,0.8155176903582705,-0.2148048694341753,-0.5081634780186012,-0.168084462874235,-1.0527775373654742,-0.1104504173884095,0.0054905907569387,-0.5865644255580993,6.153585428806253,-4.307529992821252
1839,2024 8 08,15:40:24.729,0.762847,-0.410069,-0.446011,-0.225756,-0.929674,-0.653093,-0.072212,-13.697491,10.437065,51.008072,0,0,0.7889325885185027,-0.4400743644760789,-0.3809370708789469,-0.1823634608548679,-1.0357312200913111,-0.253174623755506,-0.030907711509423,4.6499278031961255,26.922305189645133,54.858287591079176,0.817048,-0.205104,-0.509197,-0.176301,-1.056017,-0.111371,0.033529,0.977018,8.405471,-11.541213,0,0,0.8155942058403569,-0.2143198259624665,-0.508215154117671,-0.1684952897305233,-1.0529395104972004,-0.110496446518989,0.0068925112190918,-0.5083853042801942,6.26617970736594,-4.669214143180189
1840,2024 8 08,15:40:24.737,0.761137,-0.409302,-0.448091,-0.228789,-0.894826,-0.695446,-0.063614,-10.150963,10.187916,45.041138,0,0,0.7875428090925776,-0.4385357462522749,-0.3842947673349995,-0.1846847378121245,-1.0286859590867456,-0.2752881925677307,-0.0325430259339519,3.90988326303632,26.08558573016288,54.367430111525216,0.817142,-0.204375,-0.50904,-0.177161,-1.06676,-0.12762,0.009725,1.350378,8.16818,-12.160208,0,0,0.815671595548339,-0.2138225846643432,-0.5082563964117874,-0.1689285752439971,-1.0536305349723405,-0.1113526241930396,0.0070341356581372,-0.4154471390661845,6.361279721997643,-5.04376383602118
1841,2024 8 08,15:40:24.745,0.760595,-0.409059,-0.44875,-0.229749,-0.883801,-0.708845,-0.060894,-9.028941,10.109092,43.153366,0,0,0.7861954186379486,-0.4370619089396612,-0.3875175289682496,-0.1869379509215183,-1.0214417111324083,-0.2969660329393441,-0.0339605746372543,3.2629420498845034,25.28676104365473,53.80672690594895,0.817172,-0.204071,-0.508986,-0.17753,-1.071403,-0.133205,0.00326,1.451835,7.970911,-12.383813,0,0,0.815746615770922,-0.213335005431126,-0.508292876591198,-0.1693586464817972,-1.0545191582237232,-0.1124452429833876,0.0068454288752303,-0.3220830321128752,6.44176128589776,-5.410766294220121
1842,2024 8 08,15:40:24.754,0.759479,-0.408399,-0.450288,-0.231596,-0.880884,-0.735619,-0.048631,-5.170081,10.368136,39.778454,0,0,0.7848595977060512,-0.4356287634926781,-0.3906560525198371,-0.1891708533754423,-1.014413825575788,-0.3188986812923769,-0.0346940959053915,2.841290897390278,24.540829791472,53.1053132606515,0.81717,-0.203444,-0.508944,-0.178376,-1.078361,-0.136637,0.008314,1.104384,7.018296,-12.91773,0,0,0.8158177849823759,-0.2128404551595697,-0.5083254327616381,-0.1698095141577074,-1.055711250312537,-0.1136548308342182,0.0069188574314688,-0.2507596805072314,6.470588021602872,-5.786114479509115
1843,2024 8 08,15:40:24.762,0.757962,-0.407147,-0.452627,-0.234206,-0.879853,-0.771931,-0.024549,0.198525,8.248245,35.696156,0,0,0.7835147178207487,-0.4342046753180442,-0.3937545998938452,-0.1914226107066702,-1.0076857842969986,-0.341550297227758,-0.034186841110122,2.709152602520764,23.726200551898398,52.23485539761892,0.817068,-0.202487,-0.508959,-0.179887,-1.058809,-0.127047,0.01459,-1.682894,5.446838,-15.90224,0,0,0.8158802957332572,-0.2123227824015912,-0.5083571111235562,-0.170313388449822,-1.05586613779691,-0.1143244392925073,0.0073024145598954,-0.3223663964818699,6.419400520522728,-6.291920755533658
1844,2024 8 08,15:40:24.770,0.757193,-0.405856,-0.454144,-0.235989,-0.858075,-0.786928,-0.003023,4.280288,3.042551,32.713993,0,0,0.7821986319297112,-0.432787241552142,-0.3967740698991529,-0.1936509301713367,-1.0002052450821486,-0.3638191823663701,-0.0326286490546159,2.7877093723947257,22.692018074303476,51.25881227773797,0.816913,-0.201716,-0.509037,-0.181231,-1.089117,-0.128388,0.04037,-1.17247,4.777529,-16.941702,0,0,0.8159319309465942,-0.2117924432815116,-0.5083911055673784,-0.1708592690273309,-1.0575286809070643,-0.1150276173278819,0.0089557938319006,-0.3648715766577763,6.337306944496591,-6.824409817756975
1845,2024 8 08,15:40:24.779,0.75679,-0.404438,-0.45525,-0.237584,-0.824977,-0.823082,0.002785,6.844938,-1.682447,29.000023,0,0,0.7809282003332256,-0.4313697794745348,-0.3996978664041953,-0.1958475836627699,-0.9914438328280412,-0.3867823232480516,-0.0308579666018851,2.9905708037749896,21.473294820588297,50.14587281385107,0.81666,-0.200957,-0.509194,-0.182766,-1.07155,-0.130297,0.033485,-2.333019,4.174976,-18.901953,0,0,0.8159683343992645,-0.2112506711174361,-0.5084312502890095,-0.1714546055759643,-1.0582297468617112,-0.1157910864614878,0.0101822541403056,-0.4632789478248875,6.229190397271761,-7.428286976869126
1846,2024 8 08,15:40:24.787,0.756727,-0.40295,-0.455965,-0.238935,-0.790022,-0.849312,0.011778,9.538906,-5.90572,24.459902,0,0,0.7797181403165643,-0.4299487905008081,-0.4025112230839855,-0.1980019544796314,-0.981372741186639,-0.409908807085649,-0.0287261682717908,3.3179875635862404,20.10434407955888,48.86157427315851,0.816325,-0.200141,-0.509462,-0.184403,-1.080115,-0.128984,0.028597,-2.320068,2.765229,-20.595211,0,0,0.8159861676793012,-0.2106951875615642,-0.508482787774559,-0.1721020252971661,-1.0593240095186256,-0.1164507321384134,0.0111029914332903,-0.5561184004336431,6.055992327408172,-8.08663317802567
1847,2024 8 08,15:40:24.795,0.756723,-0.40268,-0.456086,-0.239174,-0.783685,-0.853712,0.013545,10.034965,-6.659418,23.62023,0,0,0.778568383300736,-0.4285853509757676,-0.4051899619297862,-0.2000605567556498,-0.971488354127307,-0.4320989667313665,-0.0266126098582013,3.653836435406928,18.766155975580936,47.59950705950058,0.815931,-0.199259,-0.509806,-0.186143,-1.086487,-0.126183,0.044734,-2.660923,2.520147,-22.790617,0,0,0.8159834092953362,-0.210123378183486,-0.5085489483858311,-0.1728040740323078,-1.0606821590426945,-0.1169373455314927,0.0127845418616258,-0.661358630411961,5.879200061037763,-8.821832369124387
1848,2024 8 08,15:40:24.804,0.757025,-0.401475,-0.456257,-0.239917,-0.725821,-0.874187,0.014438,11.668895,-9.717388,17.645658,0,0,0.7774912141356991,-0.4272298334269793,-0.4077433138332969,-0.2020533789178673,-0.9592049864209417,-0.4542033683947982,-0.0245600793652912,4.054589363636581,17.34197877680189,46.10181460652555,0.815905,-0.199201,-0.509829,-0.186259,-1.08691,-0.125997,0.045806,-2.683556,2.503873,-22.936396,0,0,0.8159794888305694,-0.2095772592743117,-0.5086129509665395,-0.1734768203306924,-1.0619935510905594,-0.1173903282549181,0.0144356147685445,-0.7624684988913629,5.7104337079858745,-9.527560550668166
1849,2024 8 08,15:40:24.812,0.757627,-0.400229,-0.456166,-0.240273,-0.664913,-0.904947,0.013099,13.337118,-9.994294,8.509773,0,0,0.7764980034289142,-0.4258797917556303,-0.410164448141632,-0.2039643599719739,-0.9444903870998944,-0.4767405499750583,-0.0226771253970266,4.518715795454752,15.975165137961795,44.22221252619927,0.815427,-0.198336,-0.51028,-0.18803,-1.077653,-0.145891,0.02023,-2.298251,-0.096585,-24.828259,0,0,0.8159518643890409,-0.2090151963105961,-0.5086963034182125,-0.1742044793141578,-1.0627765235360314,-0.1188153618421722,0.0147253340301173,-0.8392576239467947,5.42008277258658,-10.292595473134757
1850,2024 8 08,15:40:24.820,0.758372,-0.399376,-0.455875,-0.239892,-0.650826,-0.930668,0.002931,13.643539,-7.454522,-1.640948,0,0,0.7755917032574684,-0.4245546021678487,-0.4124499757345504,-0.2057607419733752,-0.9298071677448998,-0.4994369224763054,-0.0213967191271753,4.974956955682014,14.803680781063708,41.9290544998893,0.814804,-0.197384,-0.510914,-0.190003,-1.099478,-0.145116,0.034874,-3.025907,-0.773648,-26.257557,0,0,0.8158944711695888,-0.2084336364950663,-0.5088071882473018,-0.1749944053484499,-1.0646115973592298,-0.1201303937500636,0.0157327673286114,-0.9485900927494548,5.110396233957252,-11.090843549478018
1851,2024 8 08,15:40:24.829,0.75924,-0.399025,-0.455324,-0.238774,-0.649169,-0.947814,-0.008579,12.459522,-6.011549,-12.468561,0,0,0.774774118094595,-0.4232781220594562,-0.4145936769478229,-0.2074114048747064,-0.9157752593576548,-0.52185577635249,-0.0207558331708165,5.349185207897913,13.76291929201052,39.20917372489484,0.814126,-0.196358,-0.511582,-0.19216,-1.106076,-0.151918,0.018777,-3.962763,-1.167486,-28.827536,0,0,0.8158060476111093,-0.207829854670313,-0.5089459288349366,-0.1758526850810274,-1.0666848174912682,-0.1217197740625604,0.0158849789621808,-1.0992987381119823,4.796502122259389,-11.977678172004117
1852,2024 8 08,15:40:24.837,0.760272,-0.399126,-0.454471,-0.236937,-1.878535,-0.836025,-0.140098,12.63856,-4.023247,-22.665596,0,0,0.7740490121898651,-0.4220705159564834,-0.4165875431004317,-0.2088876846309711,-0.963913246389772,-0.5375642375348655,-0.0267229415122757,5.713653947503018,12.873610977409994,36.1154352386501,0.81331,-0.195336,-0.512371,-0.19454,-1.109396,-0.167566,0.004158,-5.186498,-2.592638,-31.038548,0,0,0.8156812452305539,-0.2072051619367973,-0.5091171823931897,-0.176787050826976,-1.0688203766167048,-0.1240120853594324,0.0152986300140718,-1.3036587012063832,4.427045116146419,-12.930721663403911
1853,2024 8 08,15:40:24.845,0.760533,-0.399165,-0.454251,-0.236461,-2.227157,-0.803742,-0.176969,12.73953,-3.504393,-25.158497,0,0,0.7733732115803719,-0.4209252401586592,-0.4184707159454101,-0.2102663503994225,-1.0270754340702832,-0.5508731256581222,-0.0342352444366619,6.064947750127868,12.054710778539492,33.051738626717594,0.812457,-0.194349,-0.513109,-0.197129,-1.127406,-0.159963,0.024453,-7.908433,-1.207312,-33.155659,0,0,0.8155200329690261,-0.2065623538399574,-0.5093167732735302,-0.1778041482856272,-1.0717496577858696,-0.1258096310914607,0.0157563485133682,-1.633897416146064,4.145327260339098,-13.941968530233716
1854,2024 8 08,15:40:24.854,0.762856,-0.398963,-0.452625,-0.232378,-1.409789,0.063362,0.761467,27.12923,-34.414467,-71.22551,0,0,0.7728473510013533,-0.4198271281507262,-0.4201784301481396,-0.2113719328794513,-1.046211112366769,-0.5201613693752161,0.0055498677851711,7.1181618626214735,9.731251889612516,27.83787619538171,0.812336,-0.194211,-0.513213,-0.197494,-1.129943,-0.158892,0.027312,-8.291913,-1.01214,-33.45393,0,0,0.8153608313205748,-0.2059447861479595,-0.5095115846098537,-0.1787886408713458,-1.074659324896576,-0.1274637495368877,0.0163341310876998,-1.9667981953387603,3.887453897322143,-14.91756660372203
1855,2024 8 08,15:40:24.862,0.767862,-0.397085,-0.448372,-0.227263,-1.475295,0.071083,0.072087,78.547333,-52.225517,-84.495987,1,0,0.7725980834512856,-0.4186900217431899,-0.4215881086407326,-0.2121664862354788,-1.0676653067484303,-0.4905991509064553,0.0088767243959125,10.6896204194904,6.633413445131891,22.221183035612626,0.811563,-0.193326,-0.513791,-0.200022,-1.107096,-0.179923,-0.013012,-8.75784,-0.727707,-35.944778,0,0,0.815170939754546,-0.2053138468405616,-0.5097255553793609,-0.1798503088277785,-1.0762811586517471,-0.1300867120600433,0.0148668245333148,-2.3063502855718223,3.656695852456036,-15.968927173535928
1856,2024 8 08,15:40:24.870,0.774052,-0.39401,-0.441859,-0.224331,-1.206445,-0.054346,0.471845,42.04882,-88.901733,-59.576084,0,0,0.7726707792787213,-0.4174560206560304,-0.4226016532086959,-0.2127747119237048,-1.074604291411009,-0.4687864933611325,0.0320251381761169,12.25758039851588,1.856656122875297,18.13131968383199,0.810643,-0.19232,-0.514433,-0.203043,-1.146819,-0.179331,0.02225,-9.688736,0.626166,-37.658607,0,0,0.8149445427668187,-0.2046641544985334,-0.5099609276103929,-0.1810099433863896,-1.0798080507191596,-0.1325489264570411,0.015235983306649,-2.675469571293231,3.505169359833234,-17.05341116485913
1857,2024 8 08,15:40:24.879,0.779288,-0.392543,-0.434946,-0.222281,-1.102326,-0.034278,0.246307,29.888004,-87.884544,-57.822502,0,0,0.7730016403147852,-0.4162103696232289,-0.4232188705482612,-0.2132500263275196,-1.0759903768404584,-0.4470610686930758,0.0427392312673111,13.139101578590084,-2.6304038832684684,14.333628599640388,0.809695,-0.191245,-0.514983,-0.206416,-1.158093,-0.155795,0.026791,-11.53847,1.506901,-41.133778,0,0,0.8146820656284777,-0.2039931967736067,-0.5102120312298732,-0.1822802462170701,-1.0837222981832015,-0.1337112301341891,0.0158137341413166,-3.118619592728569,3.405255941841572,-18.257429506616177
1858,2024 8 08,15:40:24.887,0.784096,-0.39207,-0.427395,-0.220847,-0.945803,0.007461,-0.047871,6.203428,-90.783661,-61.125702,0,0,0.773556358299046,-0.4150033511420674,-0.4234276770208481,-0.2136298750111436,-1.0694810079984354,-0.424334965258422,0.0382087197039455,12.79231789966058,-7.038066739105044,10.560662069658369,0.808672,-0.18998,-0.51559,-0.210047,-1.188798,-0.151459,0.029981,-11.14406,1.669195,-45.352432,0,0,0.8143815623470537,-0.2032925369349264,-0.5104809296683795,-0.1836685839062166,-1.0889760832740416,-0.1345986186274796,0.0165220974342508,-3.5198916130921405,3.3184528947494933,-19.612179631285365
1859,2024 8 08,15:40:24.895,0.785542,-0.39196,-0.425076,-0.220436,-0.894318,0.020132,-0.134604,-1.766054,-92.119705,-62.167236,0,0,0.7741556403840937,-0.413851183584964,-0.4235100931698056,-0.2139701812605864,-1.0607228575985137,-0.4021116169955008,0.0295680837187482,12.06439930467755,-11.292148652149791,6.924267166175449,0.807706,-0.188383,-0.516102,-0.213908,-1.201351,-0.173464,-0.012385,-8.93749,5.524857,-48.738255,0,0,0.8140477842297009,-0.2025470600881801,-0.5107619831849606,-0.1851805547109057,-1.0945948291103396,-0.1365418876961056,0.0150767425625382,-3.7907715324375335,3.4287731000120187,-21.068483399721096
1860,2024 8 08,15:40:24.904,0.787542,-0.394034,-0.419596,-0.220078,-0.891735,-0.185998,-0.275046,-26.920439,-70.479492,-59.320503,0,0,0.774824958364889,-0.4128603244057158,-0.4233143885113153,-0.2142755721975571,-1.0522734647185876,-0.3913059361457258,0.0143373795328108,10.115157389443674,-14.251515819542302,3.612028657866676,0.807508,-0.188057,-0.516207,-0.214697,-1.203917,-0.177961,-0.021043,-8.486551,6.312806,-49.430187,0,0,0.8137207950182159,-0.2018225570837711,-0.5110342340257126,-0.1866563769753604,-1.1000609376548225,-0.1386128433113003,0.0132707554344113,-4.0255605058156565,3.5729747450114178,-22.48656857973504
1861,2024 8 08,15:40:24.912,0.789284,-0.396923,-0.413769,-0.219674,-0.881626,-0.298625,-0.341705,-30.791885,-54.743793,-51.295353,0,0,0.7755479104466445,-0.41206345818543,-0.4228371190857496,-0.2145454935876792,-1.043741091482658,-0.3866718893384395,-0.0034647394438296,8.06980526997149,-16.276129678565187,0.8666595749733421,0.806787,-0.186476,-0.516388,-0.21831,-1.292125,-0.152852,0.000908,-10.515324,8.984581,-54.726215,0,0,0.8133741052673051,-0.2010552292295825,-0.511301922324427,-0.1882390581265924,-1.1096641407720813,-0.1393248011457353,0.0126526176626907,-4.350048680524873,3.843555057760847,-24.09855090074829
1862,2024 8 08,15:40:24.920,0.790843,-0.399185,-0.408918,-0.21906,-0.861237,-0.260959,-0.293795,-21.016273,-41.116871,-42.497551,0,0,0.7763126649243122,-0.4114195352761585,-0.4221411631314621,-0.2147712189082952,-1.0346158869085251,-0.3803862448715175,-0.0179812524716381,6.615501356472914,-17.518166744636925,-1.3015509537753254,0.805778,-0.184442,-0.516632,-0.223124,-1.295413,-0.167399,0.005067,-11.855288,11.121502,-63.002293,0,0,0.8129943000039398,-0.2002245677681034,-0.5115684262082055,-0.1899833052202628,-1.1189515837334771,-0.1407285110884485,0.0122733367795562,-4.725310646498629,4.207452404872804,-26.043738005710875
1863,2024 8 08,15:40:24.929,0.792024,-0.400978,-0.405379,-0.21811,-0.906263,-0.18165,-0.166297,-14.508913,-26.958687,-36.583221,0,0,0.7770982316780966,-0.4108974585123505,-0.421303054974889,-0.2149381579628805,-1.0281982425630989,-0.3704494326279416,-0.0253970398480562,5.559280638649268,-17.990192757405076,-3.065634456086559,0.804776,-0.181948,-0.516648,-0.228673,-1.293228,-0.157136,0.021158,-12.997033,15.814514,-70.599358,0,0,0.8125833850037428,-0.1993107393796982,-0.5118224048977952,-0.1919177899592496,-1.1276654045468033,-0.1415488855340261,0.0127175699405784,-5.138896764173698,4.787805484629163,-28.27151900542533
1864,2024 8 08,15:40:24.937,0.792711,-0.402894,-0.402658,-0.217126,-0.936579,-0.130515,-0.0557,-18.270144,-18.308197,-34.027847,0,0,0.7778788700941917,-0.410497285586733,-0.4203708022261445,-0.2150475500647364,-1.023617280434944,-0.3584527109965445,-0.0269121878556534,4.3678094067168045,-18.00609296953482,-4.613745083282231,0.803704,-0.179011,-0.516574,-0.234831,-1.300719,-0.157572,0.038535,-11.997164,18.22472,-78.951584,0,0,0.8121394157535556,-0.1982957524107133,-0.5120599846529054,-0.1940634504612871,-1.1363180843194631,-0.1423500412573247,0.0140084414435495,-5.481810125965012,5.4596512103977055,-30.80552225515406
1865,2024 8 08,15:40:24.945,0.79293,-0.403578,-0.401735,-0.216781,-0.945927,-0.114198,-0.018203,-20.101448,-15.562657,-33.28418,0,0,0.778631426589482,-0.4101513213073963,-0.4194390121148372,-0.2151342225614996,-1.0197327664131968,-0.3462399754467172,-0.0264767284628707,3.1443465363809637,-17.883921171058077,-6.047266829118119,0.802561,-0.17555,-0.516437,-0.241548,-1.310162,-0.15696,0.040366,-10.710831,21.080362,-87.574295,0,0,0.8116604949658778,-0.1971584647901776,-0.5122788354202601,-0.1964376779382227,-1.1450102801034898,-0.1430805391944585,0.015326319371372,-5.743261169666761,6.2406867498778205,-33.64396089239635
1866,2024 8 08,15:40:24.954,0.792962,-0.405588,-0.400006,-0.216101,-0.955126,-0.147856,-0.017419,-26.351105,-12.502714,-34.323528,0,0,0.7793479552600079,-0.4099231552420265,-0.4184673615090953,-0.2151825614334246,-1.016502428092537,-0.3363207766743813,-0.0260238420397272,1.6695739595619148,-17.614860812505174,-7.461079887662213,0.802264,-0.174654,-0.516402,-0.243288,-1.312609,-0.156802,0.040841,-10.377537,21.820269,-89.808472,0,0,0.8111906702175838,-0.1960332415506687,-0.512484993649247,-0.1987801940413116,-1.1533902160983154,-0.1437666122347355,0.0166020534028034,-5.974974961183422,7.019665862383929,-36.452186447776526
1867,2024 8 08,15:40:24.962,0.792875,-0.408337,-0.397865,-0.215188,-0.945235,-0.203218,-0.037167,-28.002087,-10.445641,-34.753941,0,0,0.7800243074970075,-0.4098438474799251,-0.4174372434336405,-0.2151828333617534,-1.0129390566879102,-0.3296656378406623,-0.0265809999377408,0.1859909115838189,-17.256399821879917,-8.825722943279102,0.801205,-0.171336,-0.5163,-0.249255,-1.324532,-0.152886,0.055758,-9.540106,22.854502,-97.58075,0,0,0.8106913867067046,-0.1947983794731353,-0.5126757439667847,-0.2013039343392459,-1.1619473052933995,-0.1442225816229987,0.0185598507326632,-6.1532315131242505,7.8114076692647325,-39.5086146253877
1868,2024 8 08,15:40:24.970,0.7928,-0.410928,-0.395882,-0.214187,-0.940135,-0.239499,-0.045784,-23.724232,-8.087059,-31.667509,0,0,0.780663092122157,-0.4098980551059288,-0.4163594812619585,-0.2151330416936657,-1.0092988538535146,-0.3251573059486291,-0.0275411499408538,-1.009520233995372,-16.79793278078592,-9.967812246115146,0.799891,-0.166897,-0.516069,-0.256816,-1.335131,-0.165734,0.050817,-7.785921,27.056696,-107.035484,0,0,0.8101513673713693,-0.1934033104994785,-0.5128454067684455,-0.2040795376222836,-1.1706064900287294,-0.1452981525418488,0.02017270819603,-6.234865987468037,8.773672085801497,-42.88495809411832
1869,2024 8 08,15:40:24.979,0.792726,-0.413158,-0.394201,-0.21327,-0.933579,-0.250585,-0.065547,-19.939398,-6.454573,-26.612249,0,0,0.7812662375160491,-0.4100610523506324,-0.4152515571988605,-0.2150398896089824,-1.0055128611608388,-0.3214286906511976,-0.0294414424438111,-1.9560141222956036,-16.280764791746623,-10.80003408380939,0.798414,-0.16171,-0.51567,-0.265359,-1.361209,-0.168346,0.023246,-7.589463,30.530172,-117.508484,0,0,0.8095644990028008,-0.1918186449745046,-0.5129866364300232,-0.2071435107411694,-1.1801366155272928,-0.1464505449147563,0.0203263727862285,-6.302595838094635,9.861497081511422,-46.6161343894124
1870,2024 8 08,15:40:24.987,0.792702,-0.41488,-0.392901,-0.212419,-0.934713,-0.225315,-0.078987,-13.872774,-4.580748,-22.359577,0,0,0.7818380256402466,-0.4103019997331007,-0.4141340293389174,-0.2149088451285333,-1.0019728681027968,-0.3166230061186378,-0.0319187203216205,-2.551852116180823,-15.695763952159291,-11.37801122961892,0.796684,-0.155899,-0.515192,-0.274768,-1.388225,-0.175238,0.007033,-7.915291,33.586304,-129.288879,0,0,0.8089204740526608,-0.1900226627257793,-0.513096904608522,-0.210524735204111,-1.190541034750928,-0.1478899176690185,0.0196617041469171,-6.383230596189903,11.04773742743585,-50.749771619941775
1871,2024 8 08,15:40:24.995,0.792696,-0.41553,-0.39241,-0.212086,-0.935645,-0.21338,-0.083784,-11.334101,-3.820682,-20.745237,0,0,0.7823809243582343,-0.4105633997464456,-0.4130478278719716,-0.2147677028721066,-0.998656474697657,-0.3114608558127059,-0.0345119843055395,-2.990964560371782,-15.102009854551326,-11.846372518137974,0.794659,-0.149512,-0.514568,-0.285119,-1.428986,-0.196839,-0.014325,-9.402323,36.690487,-142.372711,0,0,0.8082074003500277,-0.1879971295894903,-0.5131704593780959,-0.2142544484439054,-1.2024632830133817,-0.1503373717855676,0.0179623689395713,-6.534185216380408,12.329874906064058,-55.33091858894469
1872,2024 8 08,15:40:25.004,0.792635,-0.416566,-0.391722,-0.211553,-0.931608,-0.212023,-0.084103,-11.996146,-2.218637,-19.313375,0,0,0.7828936281403225,-0.4108635297591233,-0.411981536478373,-0.2146069677285013,-0.995304050962774,-0.3064889630220705,-0.0369915350902625,-3.441223632353193,-14.45784121182376,-12.219722642231076,0.794037,-0.147553,-0.514377,-0.288295,-1.441491,-0.203466,-0.020878,-9.858541,37.642845,-146.38681,0,0,0.8074988803325263,-0.1859749231100158,-0.5132307864091911,-0.2179564760217101,-1.2144146688627124,-0.1529938031962892,0.0160203504925927,-6.700403005561388,13.595523410760856,-59.88371315949745
1873,2024 8 08,15:40:25.012,0.792455,-0.417893,-0.391023,-0.210902,-0.925679,-0.201119,-0.084595,-13.282396,-0.256183,-17.685095,0,0,0.7833716967333063,-0.4112150032711671,-0.4109336096544543,-0.2144217193420762,-0.9918227984146352,-0.301220464870967,-0.0393717083357494,-3.933282250735533,-13.74775830123257,-12.492991260119522,0.792145,-0.14196,-0.513632,-0.297435,-1.488283,-0.19137,-0.035795,-11.567947,41.733604,-157.456482,0,0,0.8067311863158999,-0.183774176954515,-0.5132508470887315,-0.2219304022206246,-1.2281080854195767,-0.1549126130364747,0.013429582967963,-6.943780205283318,15.002427440222812,-64.76235160152257
1874,2024 8 08,15:40:25.020,0.792053,-0.419466,-0.390481,-0.210291,-0.924285,-0.215124,-0.094434,-15.697171,3.036071,-16.085014,0,0,0.783805761896641,-0.4116275531076088,-0.4099109791717316,-0.2142151833749724,-0.9884459084939036,-0.2969156416274186,-0.0421248229189619,-4.5214766881987565,-12.90856683617094,-12.672592397113547,0.789496,-0.134751,-0.512721,-0.309088,-1.554214,-0.232506,-0.038958,-11.750264,43.170547,-171.82048,0,0,0.8058694270001049,-0.1813230181067892,-0.5132243547342948,-0.2262882821095934,-1.2444133811485978,-0.158792282384651,0.0108102038195649,-7.184104395019151,16.41083341821167,-70.11525802144644
1875,2024 8 08,15:40:25.029,0.791779,-0.42048,-0.390154,-0.20991,-0.923858,-0.226517,-0.101533,-17.326553,5.238977,-15.080265,0,0,0.7842044238018089,-0.4120701754522283,-0.4089231302131451,-0.2139999242062237,-0.9852165130692082,-0.2933957095460477,-0.0450952317730138,-5.161730503788819,-12.001189644362393,-12.792976027257868,0.787715,-0.129974,-0.5121,-0.31675,-1.599367,-0.248967,-0.045911,-11.741826,44.907944,-181.157242,0,0,0.8049617056500996,-0.1787555672014498,-0.5131681369975801,-0.2308113680041137,-1.262161062091168,-0.1633010182654184,0.0079741436285866,-7.411990475268193,17.835688947301087,-75.6673572203741
1876,2024 8 08,15:40:25.037,0.791117,-0.422163,-0.390019,-0.209276,-0.935342,-0.214604,-0.081464,-15.240069,8.419386,-13.759692,0,0,0.7845500526117184,-0.4125748166796169,-0.4079779237024878,-0.2137637279959125,-0.9827227874157478,-0.2894561240687453,-0.0469136701843631,-5.665647428599378,-10.980160862144274,-12.841311825894977,0.78424,-0.120969,-0.510775,-0.33075,-1.691562,-0.231611,-0.088034,-10.926861,52.668465,-197.333023,0,0,0.8039256203675946,-0.1758662388413773,-0.5130484801477011,-0.235808299603908,-1.2836311089866097,-0.1667165173521475,0.0031737364471573,-7.587734001504783,19.577327749936032,-81.75064050935539
1877,2024 8 08,15:40:25.045,0.790395,-0.423611,-0.390322,-0.208515,-0.967618,-0.191747,-0.037238,-11.958945,13.018036,-11.612931,0,0,0.7848422999811324,-0.413126625845636,-0.4070951275173634,-0.2135012915961169,-0.9819675480449604,-0.284570667865308,-0.046429886675145,-5.980312307169409,-9.78025101903706,-12.779892784600223,0.780516,-0.110831,-0.508825,-0.345757,-1.777372,-0.285106,-0.136137,-9.664252,62.307228,-212.704651,0,0,0.8027551393492148,-0.1726144768993084,-0.512837306140316,-0.2413057346237126,-1.308318153537279,-0.1726359914845401,-0.0037918003752005,-7.691559901429543,21.713822762439232,-88.29834103388761
1878,2024 8 08,15:40:25.054,0.789621,-0.425049,-0.390769,-0.207678,-0.974294,-0.183071,-0.000903,-12.02073,14.162022,-12.584049,0,0,0.7850812349820758,-0.4137227445533541,-0.4062788211414951,-0.213210127016311,-0.9815838706427122,-0.2794956844720426,-0.0441535423413877,-6.282333191810938,-8.583137368085206,-12.770100595370211,0.777029,-0.10119,-0.506658,-0.359535,-1.795968,-0.348769,-0.112087,-9.470472,71.369652,-226.229187,0,0,0.801468832381754,-0.169043253054343,-0.5125283408333001,-0.2472171978925269,-1.332700645860415,-0.1814426419103131,-0.0092065603564404,-7.7805055063580655,24.19661422431727,-95.19488333219324
1879,2024 8 08,15:40:25.062,0.789584,-0.425119,-0.390791,-0.207638,-0.974617,-0.182651,0.000858,-12.023724,14.217453,-12.631104,0,0,0.785306373232972,-0.4142925573256865,-0.4055044300844204,-0.2129315206654955,-0.9812355271105766,-0.2746534502484405,-0.0419029652243183,-6.569402732220391,-7.443107849680945,-12.7631507656017,0.776297,-0.099152,-0.506131,-0.362367,-1.797549,-0.360822,-0.110736,-9.499739,73.092155,-228.80188,0,0,0.8002102407626662,-0.1655486904016258,-0.5122084737916351,-0.2529746879979005,-1.355943063567394,-0.1904116098147974,-0.0142830323386184,-7.866467181040162,26.641391263101404,-101.87523316558357
1880,2024 8 08,15:40:25.070,0.788814,-0.426592,-0.391239,-0.206699,-0.985908,-0.206067,0.00818,-12.305655,15.291535,-13.591967,0,0,0.7854817545713234,-0.4149075294594021,-0.4047911585801993,-0.2126198946322207,-0.9814691507550476,-0.2712241277360184,-0.0393988169631024,-6.856215345609371,-6.3063757071968976,-12.804591577321617,0.772082,-0.087488,-0.502954,-0.378388,-1.799681,-0.434924,-0.092903,-9.493781,81.875244,-242.258514,0,0,0.7988038287245329,-0.1616456558815445,-0.5117457501020534,-0.2592453535980055,-1.3781299603890242,-0.2026372293240575,-0.0182140307216875,-7.947832871988154,29.40308389994633,-108.8943972073044
1881,2024 8 08,15:40:25.079,0.788078,-0.428038,-0.391725,-0.205591,-0.97121,-0.201174,0.019399,-10.216363,14.872935,-14.664455,0,0,0.7856115668427572,-0.4155640529864319,-0.4041378506511893,-0.2122684499006096,-0.9809561932172952,-0.2677216213492175,-0.0364589261149473,-7.024222728328903,-5.2474101718370525,-12.897584748455534,0.767229,-0.074605,-0.499103,-0.395692,-1.772045,-0.543828,-0.000489,-8.238693,87.237312,-251.462357,0,0,0.7972250872883062,-0.1572936230874672,-0.5111136125969507,-0.2660676859181052,-1.397825712369573,-0.2196967678578547,-0.0173277791856031,-7.9623758783887455,32.29479530494902,-116.02279519693916
1882,2024 8 08,15:40:25.087,0.787377,-0.429586,-0.392125,-0.204281,-0.994,-0.177521,0.027404,-10.688122,15.328634,-17.826134,0,0,0.7856998385006193,-0.4162651503371103,-0.4035372081186298,-0.2118690774055791,-0.9816083835564304,-0.2632115902817566,-0.0332657798091999,-7.2074176919124575,-4.2186079632452,-13.144012211032756,0.762073,-0.061284,-0.494452,-0.413368,-1.685217,-0.527059,-0.064241,-10.544167,93.840973,-256.083832,0,0,0.7954674829238909,-0.1524931419330939,-0.5102805319671031,-0.2734327016222,-1.412195276751094,-0.2350648794649619,-0.019673440226323,-8.091465434469308,35.37210418970157,-123.0258470370922
1883,2024 8 08,15:40:25.095,0.786697,-0.431289,-0.392352,-0.202872,-0.989831,-0.207954,0.009208,-11.653917,14.078889,-20.900591,0,0,0.7857496965755884,-0.4170163428202548,-0.4029779477126983,-0.2114192235353002,-0.9820195143786088,-0.2604487107676688,-0.0311420908187399,-7.429742657316835,-3.30373311508294,-13.531841150481116,0.756436,-0.047905,-0.489439,-0.43106,-1.670882,-0.476109,0.017162,-12.667536,94.575485,-258.550018,0,0,0.7935159087776964,-0.1472637348364392,-0.5092384553687479,-0.28131406654109,-1.4251296129135396,-0.2471170854917138,-0.0178316682150068,-8.320268962745843,38.33227323021649,-129.80205558523758
1884,2024 8 08,15:40:25.104,0.786117,-0.432982,-0.39243,-0.201355,-0.976575,-0.229736,-0.018852,-10.858374,13.0314,-21.569752,0,0,0.7857680617468089,-0.417814625679242,-0.4024505503270634,-0.2109160123585352,-0.9817472886596784,-0.2589130752292854,-0.0305275862778029,-7.601174224450993,-2.4869764593287926,-13.933736692957062,0.751414,-0.03591,-0.484491,-0.446402,-1.584875,-0.517846,0.06695,-11.573372,101.843773,-257.586945,0,0,0.7914108133388115,-0.1416960480946172,-0.5080010826003105,-0.2895684632140354,-1.4331168822678626,-0.2606535312171281,-0.0135925848042565,-8.48292411460855,41.50784821870566,-136.1913000559757
1885,2024 8 08,15:40:25.112,0.786044,-0.433195,-0.392439,-0.201164,-0.974909,-0.232474,-0.022379,-10.758366,12.899719,-21.653873,0,0,0.7857818586594684,-0.4185836443952798,-0.4019499728107102,-0.2104284117406084,-0.9814053742266944,-0.2575911214678211,-0.0301201569639128,-7.759033813228443,-1.7176416863623527,-14.319743508309209,0.750091,-0.032748,-0.483143,-0.450323,-1.554172,-0.526446,0.071219,-11.016712,102.906647,-257.089386,0,0,0.7893448226718708,-0.1362486456898864,-0.5067581784702949,-0.2976061900533336,-1.4391696381544694,-0.2739431546562717,-0.0093520055640436,-8.609613508878121,44.57778815777037,-142.2362043531769
1886,2024 8 08,15:40:25.120,0.785648,-0.434465,-0.392498,-0.199852,-0.965142,-0.246121,-0.040281,-7.738191,12.000432,-20.369553,0,0,0.785775165726495,-0.4193777121755158,-0.4014773741701747,-0.2098995911535779,-0.9805922055153596,-0.2570176153944301,-0.0306281991157171,-7.757991672567021,-1.031738002044235,-14.622233982893745,0.744801,-0.020262,-0.477693,-0.465325,-1.406886,-0.541104,0.047984,-7.987098,102.970741,-254.25975,0,0,0.7871176315382772,-0.130449313405392,-0.5053049195467801,-0.3059921305506669,-1.437555456246746,-0.2873011969234581,-0.0064852052858414,-8.578487733434216,47.49743579988185,-147.83738163551806
1887,2024 8 08,15:40:25.129,0.785421,-0.435341,-0.392745,-0.198349,-0.974329,-0.230554,0.011484,-0.127643,11.917817,-17.262838,0,0,0.7857574574401701,-0.42017587656674,-0.401040755461666,-0.209322061595899,-0.9802790452395916,-0.2556944346247085,-0.0285225891599313,-7.376474238938671,-0.3842602519420233,-14.754264183749058,0.738511,-0.006746,-0.471931,-0.481315,-1.25888,-0.479086,-0.041933,-6.150306,95.076317,-251.039307,0,0,0.7846872999613632,-0.1242641477351224,-0.5036362235694412,-0.3147582740231335,-1.4286216834344083,-0.2968904370772852,-0.0082575950215494,-8.457078646762504,49.87637985988776,-152.99747790374212
1888,2024 8 08,15:40:25.137,0.785276,-0.43594,-0.393121,-0.196858,-0.974586,-0.229681,-0.000439,2.451803,11.197796,-15.453671,0,0,0.7857333845681616,-0.4209640827384029,-0.4006447676885826,-0.2086988585161041,-0.979994392977612,-0.2543937628934731,-0.0271184097019347,-6.885060376991737,0.1948425606550778,-14.789234524561603,0.731443,0.006138,-0.466423,-0.497214,-1.117391,-0.35654,-0.157045,-10.779032,82.819153,-248.108215,0,0,0.782025084963295,-0.1177440403483663,-0.5017755623909691,-0.3238810603219769,-1.4130601492626875,-0.2998729152234209,-0.0156969652704719,-8.57317631442438,51.52351851689336,-157.75301475855505
1889,2024 8 08,15:40:25.145,0.785254,-0.436169,-0.393646,-0.195385,-0.975028,-0.223153,-0.002872,6.779298,11.423831,-13.051787,0,0,0.7857094153397535,-0.4217243286014828,-0.4002948293041535,-0.2080331655902988,-0.9797460733287314,-0.2528317247487994,-0.025906089216838,-6.20184245814215,0.756291982622324,-14.702362148333522,0.72349,0.017696,-0.461228,-0.513159,-0.921932,-0.252373,-0.219322,-21.834255,67.072189,-246.462997,0,0,0.7790983307151302,-0.110972038330948,-0.4997481842714206,-0.333344957305878,-1.3885037417995534,-0.2974979194622498,-0.0258782170069483,-9.23623024870316,52.30095204104869,-162.18851387062725
1890,2024 8 08,15:40:25.154,0.785318,-0.43625,-0.394193,-0.193837,-0.966447,-0.225907,-0.002131,8.547215,11.169526,-14.24061,0,0,0.7856898445727657,-0.4224506121714086,-0.3999897378389458,-0.2073233573107839,-0.9790811196622948,-0.2514854885113594,-0.0247173347559961,-5.464389585235042,1.276953683491208,-14.679274540916849,0.715757,0.026764,-0.456767,-0.527462,-0.645159,-0.24338,-0.340904,-33.411121,52.560448,-243.016037,0,0,0.7759312641793736,-0.1040852364144006,-0.4975991250578496,-0.3430508094405841,-1.3513365047095756,-0.2947920234891373,-0.0416295061566009,-10.444974786268002,52.31392683899625,-166.22989002709588
1891,2024 8 08,15:40:25.162,0.78533,-0.436265,-0.394298,-0.19354,-0.964805,-0.226434,-0.001989,8.885529,11.120861,-14.468107,0,0,0.7856718523441274,-0.4231413315628382,-0.3997051509469985,-0.2066341894452447,-0.97836731367918,-0.2502329140857914,-0.0235809180181963,-4.74689365597329,1.7691490493166473,-14.668716163871004,0.713225,0.029361,-0.455431,-0.531935,-0.568226,-0.251015,-0.35145,-36.671165,47.096233,-241.449738,0,0,0.7727959509704049,-0.0974129245936805,-0.4954907188049571,-0.3524950189685548,-1.3121809794740966,-0.2926031723146804,-0.0571205308487708,-11.7562842969546,52.05304214704644,-169.99088242574106
1892,2024 8 08,15:40:25.170,0.785438,-0.436329,-0.394727,-0.192077,-0.977529,-0.193906,0.009941,9.769494,11.542978,-15.665694,0,0,0.785660159726921,-0.4238007149846963,-0.3994562433996486,-0.2059063299729824,-0.9783253979952208,-0.2474165683815018,-0.0219048221172864,-4.021074273174625,2.257840496850815,-14.718565055677452,0.704958,0.035893,-0.451684,-0.545517,-0.308718,-0.274016,-0.311795,-46.982685,26.698687,-233.921127,0,0,0.7694040534218846,-0.0907476283639965,-0.4933003828647092,-0.3621461180201271,-1.2620078305003917,-0.2916738136989464,-0.0698542543063323,-13.51760433210687,50.78532438969411,-173.18739465445398
1893,2024 8 08,15:40:25.179,0.785517,-0.436514,-0.395189,-0.190377,-0.980215,-0.21169,-0.003848,8.48656,11.774306,-17.530279,0,0,0.785653001740575,-0.4244363792354614,-0.3992428812296661,-0.2051298634743333,-0.9784198780954598,-0.2456302399624267,-0.0210019810114221,-3.395692559515893,2.733663772008274,-14.859150752893578,0.695323,0.040827,-0.447735,-0.560567,0.322807,-0.027555,-0.585052,-70.115524,3.806395,-212.887039,0,0,0.7657000007507904,-0.0841688969457967,-0.4910221137214737,-0.3720671621191207,-1.182767088975372,-0.2784678730139991,-0.0956141415910157,-16.347500315501527,48.4363779202094,-175.17237687173127
1894,2024 8 08,15:40:25.187,0.78564,-0.436754,-0.395572,-0.188516,-0.97219,-0.215239,0.006223,7.407351,11.357014,-18.222652,0,0,0.7856523516535462,-0.4250522602736883,-0.3990593371681828,-0.2042991703006166,-0.9781083841906868,-0.2441106779643053,-0.019640731960851,-2.855540381540098,3.1648312834078607,-15.0273258152489,0.687196,0.040578,-0.444215,-0.573291,0.254606,0.145695,-0.717018,-88.420471,-33.52314,-134.56282,0,0,0.7617748007132509,-0.0779315520985068,-0.4886817580354,-0.3821283540131647,-1.1108984345266033,-0.2572597293632991,-0.1266843345114649,-19.95114884972645,44.33840202419893,-173.1418990281447
1895,2024 8 08,15:40:25.195,0.785728,-0.437059,-0.395918,-0.186703,-0.972936,-0.250114,0.013352,7.344323,10.983423,-18.890863,0,0,0.7856561340708688,-0.4256525972600039,-0.3989022703097736,-0.2034193617855858,-0.9778497649811524,-0.2444108440660901,-0.0179910953628085,-2.345547212463093,3.555760869237467,-15.220502674486452,0.681277,0.033184,-0.443748,-0.581171,-0.697423,0.430027,0.20348,-107.567673,-82.102142,-44.671417,0,0,0.7577499106775883,-0.0723757744935815,-0.48643507013363,-0.3920804863125064,-1.0902246628002732,-0.2228953928951342,-0.1101761177858916,-24.33197505724013,38.01637482298898,-166.71837492673748
1896,2024 8 08,15:40:25.204,0.785851,-0.437427,-0.396127,-0.184873,-0.963968,-0.234303,0.009933,5.820179,9.522248,-18.821907,0,0,0.7856658773673253,-0.4262413173970037,-0.3987635067942849,-0.2024920436963065,-0.9771556767320948,-0.2439054518627856,-0.016594890594668,-1.937260901839938,3.854085225775593,-15.400572890762128,0.680037,0.025057,-0.44225,-0.584198,-0.663297,0.711852,-0.2808,-95.019951,-44.0019,26.204918,0,0,0.7538642651437089,-0.0675041357689024,-0.4842258166269484,-0.4016863619968811,-1.0688782796602594,-0.1761580232503774,-0.118707311896597,-27.86637385437812,33.91546108183953,-157.07221028040058
1897,2024 8 08,15:40:25.212,0.785881,-0.437518,-0.396178,-0.184419,-0.961746,-0.230384,0.009086,5.442428,9.160104,-18.804817,0,0,0.785676633498959,-0.4268051515271535,-0.3986342314545707,-0.2015883915114912,-0.97638519289549,-0.2432293792696463,-0.0153108460649346,-1.568276456747941,4.119386164486813,-15.570785096224022,0.680131,0.022091,-0.44168,-0.58466,-0.667893,0.788448,-0.340738,-88.933884,-33.379471,49.246948,0,0,0.7501776018865234,-0.0630243789804573,-0.482098525795601,-0.410835043897037,-1.0488290156772464,-0.1279277220878585,-0.1298088463017672,-30.91974936165921,30.55071447774755,-146.75625236638055
