frame,date,time,quaternion_x,quaternion_y,quaternion_z,quaternion_w,accel_x,accel_y,accel_z,gyro_x,gyro_y,gyro_z,HS,TO
3985,2024 10 17,09:00:33.198,-0.51955,0.522245,0.482415,0.473923,-1.306192,0.084964,-0.065432,-5.187988,-3.417969,-80.993652,0,0
3986,2024 10 17,09:00:33.207,-0.51955,0.522245,0.482415,0.473923,-1.306192,0.084964,-0.065432,-5.187988,-3.417969,-80.993652,0,0
3987,2024 10 17,09:00:33.215,-0.523293,0.525923,0.477679,0.470524,-1.271523,0.034669,0.019044,-6.896973,-10.131836,-93.200684,0,0
3988,2024 10 17,09:00:33.223,-0.527454,0.529947,0.47228,0.466797,-1.247597,-0.035646,-0.005371,-8.056641,-10.559082,-101.806641,0,0
3989,2024 10 17,09:00:33.232,-0.532021,0.534165,0.466639,0.462459,-1.241737,-0.057619,0.107425,-3.845215,-9.643555,-110.534668,0,0
3990,2024 10 17,09:00:33.240,-0.536812,0.538609,0.460927,0.457471,-1.198279,-0.115726,0.161626,1.342773,-5.79834,-116.455078,0,0
3991,2024 10 17,09:00:33.248,-0.541946,0.543034,0.455529,0.451555,-1.15775,-0.166509,0.230964,9.887695,0.366211,-121.765137,0,0
3992,2024 10 17,09:00:33.257,-0.541946,0.543034,0.455529,0.451555,-1.15775,-0.166509,0.230964,9.887695,0.366211,-121.765137,0,0
3993,2024 10 17,09:00:33.265,-0.547288,0.547424,0.45068,0.444623,-1.179235,-0.172857,0.228523,20.019531,8.605957,-124.572754,0,0
3994,2024 10 17,09:00:33.273,-0.552887,0.551614,0.446415,0.436752,-1.198279,-0.199713,0.252449,29.602051,15.380859,-126.708984,0,0
3995,2024 10 17,09:00:33.282,-0.558697,0.55535,0.442569,0.42846,-1.233436,-0.106449,0.208502,39.0625,15.50293,-124.938965,0,0
3996,2024 10 17,09:00:33.290,-0.565347,0.557669,0.439074,0.42024,-1.154332,0.23487,0.246101,55.908203,2.319336,-118.164063,0,0
3997,2024 10 17,09:00:33.298,-0.572122,0.55839,0.435704,0.413569,-1.023469,0.505875,0.264657,56.091309,-14.831543,-99.060059,0,0
3998,2024 10 17,09:00:33.307,-0.572122,0.55839,0.435704,0.413569,-1.023469,0.505875,0.264657,56.091309,-14.831543,-99.060059,0,0
3999,2024 10 17,09:00:33.315,-0.578155,0.55807,0.432825,0.408604,-0.823267,0.769066,0.256355,50.048828,-21.179199,-77.392578,0,0
4000,2024 10 17,09:00:33.323,-0.58244,0.557928,0.430534,0.405117,-0.668966,0.66213,0.318857,28.442383,-13.427734,-56.945801,0,0
4001,2024 10 17,09:00:33.332,-0.584632,0.558013,0.429631,0.402795,-0.670919,0.818873,0.377453,18.310547,0.305176,-30.090332,0,0
4002,2024 10 17,09:00:33.340,-0.585292,0.558283,0.429665,0.401424,-0.72512,0.744652,0.351573,8.239746,5.249023,-15.625,0,0
4003,2024 10 17,09:00:33.348,-0.58534,0.558547,0.429908,0.400725,-0.597186,0.726585,0.331553,2.441406,6.225586,-7.93457,0,0
4004,2024 10 17,09:00:33.356,-0.58534,0.558547,0.429908,0.400725,-0.597186,0.726585,0.331553,2.441406,6.225586,-7.93457,0,0
4005,2024 10 17,09:00:33.365,-0.584653,0.558987,0.430867,0.400086,-0.571795,0.703146,0.348155,0.183105,17.456055,0.488281,0,0
4006,2024 10 17,09:00:33.373,-0.58317,0.559442,0.432882,0.399438,-0.617206,0.724143,0.316904,0.305176,27.46582,11.413574,0,0
4007,2024 10 17,09:00:33.381,-0.580968,0.559695,0.435879,0.399033,-0.696799,0.722678,0.242683,0.427246,34.362793,23.376465,0,0
4008,2024 10 17,09:00:33.390,-0.578351,0.559549,0.439431,0.399144,-0.688009,0.687521,0.240242,0.244141,34.301758,33.996582,0,0
4009,2024 10 17,09:00:33.398,-0.575276,0.559094,0.443691,0.399513,-0.670919,0.645527,0.214362,1.525879,39.794922,44.128418,0,0
4010,2024 10 17,09:00:33.406,-0.571616,0.558401,0.448951,0.399858,-0.719748,0.617695,0.186529,4.516602,49.316406,54.504395,0,0
4011,2024 10 17,09:00:33.415,-0.571616,0.558401,0.448951,0.399858,-0.719748,0.617695,0.186529,4.516602,49.316406,54.504395,0,0
4012,2024 10 17,09:00:33.423,-0.567435,0.557387,0.455088,0.40029,-0.790063,0.589373,0.154302,6.530762,54.504395,64.758301,0,0
4013,2024 10 17,09:00:33.431,-0.562837,0.555965,0.461853,0.401011,-0.843776,0.551775,0.124516,7.568359,56.762695,74.768066,0,0
4014,2024 10 17,09:00:33.440,-0.557811,0.554126,0.469147,0.402111,-0.906278,0.52443,0.101566,7.507324,58.105469,84.960938,0,0
4015,2024 10 17,09:00:33.448,-0.552373,0.551863,0.476804,0.403719,-0.933134,0.500504,0.10889,6.225586,57.067871,94.726563,0,0
4016,2024 10 17,09:00:33.456,-0.546393,0.549305,0.484804,0.405812,-0.962432,0.477554,0.099612,3.356934,58.59375,104.187012,0,0
4017,2024 10 17,09:00:33.465,-0.546393,0.549305,0.484804,0.405812,-0.962432,0.477554,0.099612,3.356934,58.59375,104.187012,0,0
4018,2024 10 17,09:00:33.473,-0.539787,0.546575,0.493082,0.408359,-0.980987,0.434584,0.106937,-1.220703,60.180664,112.365723,0,0
4019,2024 10 17,09:00:33.481,-0.532534,0.543823,0.501499,0.411293,-1.026399,0.390149,0.112308,-6.835938,62.5,118.591309,0,0
4020,2024 10 17,09:00:33.490,-0.524714,0.541165,0.509856,0.414563,-1.062044,0.342784,0.111332,-13.305664,62.866211,122.009277,0,0
4021,2024 10 17,09:00:33.498,-0.51648,0.538659,0.517929,0.418144,-1.072787,0.295419,0.129398,-19.958496,62.805176,122.86377,0,0
4022,2024 10 17,09:00:33.506,-0.507871,0.536448,0.525675,0.421849,-1.084994,0.241707,0.152837,-26.245117,63.964844,121.459961,0,0
4023,2024 10 17,09:00:33.515,-0.507871,0.536448,0.525675,0.421849,-1.084994,0.241707,0.152837,-26.245117,63.964844,121.459961,0,0
4024,2024 10 17,09:00:33.523,-0.498964,0.534598,0.533088,0.425507,-1.076693,0.175787,0.16895,-31.005859,66.101074,118.591309,0,0
4025,2024 10 17,09:00:33.531,-0.489715,0.533167,0.540372,0.428849,-1.078646,0.095218,0.167486,-33.935547,72.631836,115.905762,0,0
4026,2024 10 17,09:00:33.540,-0.479991,0.532053,0.547802,0.431789,-1.129429,0.02295,0.151372,-34.912109,80.444336,116.027832,0,0
4027,2024 10 17,09:00:33.548,-0.469937,0.530946,0.555414,0.434478,-1.174352,-0.047365,0.1377,-34.240723,84.16748,118.408203,0,0
4028,2024 10 17,09:00:33.556,-0.4598,0.529611,0.563097,0.437056,-1.216346,-0.129887,0.106937,-32.104492,83.862305,120.361328,0,0
4029,2024 10 17,09:00:33.565,-0.4598,0.529611,0.563097,0.437056,-1.216346,-0.129887,0.106937,-32.104492,83.862305,120.361328,0,0
4030,2024 10 17,09:00:33.573,-0.449954,0.52797,0.570701,0.439419,-1.212439,-0.202643,0.077151,-27.099609,81.115723,118.835449,0,0
4031,2024 10 17,09:00:33.581,-0.440646,0.526075,0.578128,0.441411,-1.166051,-0.256844,0.080569,-20.751953,78.24707,114.746094,0,0
4032,2024 10 17,09:00:33.590,-0.431787,0.524044,0.585574,0.442765,-1.168493,-0.302255,0.047853,-12.817383,79.223633,110.961914,0,0
4033,2024 10 17,09:00:33.598,-0.423336,0.521775,0.593131,0.443545,-1.203162,-0.333018,0.020508,-5.004883,79.223633,109.25293,0,0
4034,2024 10 17,09:00:33.606,-0.415324,0.519064,0.600729,0.444076,-1.238319,-0.365734,-0.046876,1.037598,74.401855,109.680176,0,0
4035,2024 10 17,09:00:33.615,-0.415324,0.519064,0.600729,0.444076,-1.238319,-0.365734,-0.046876,1.037598,74.401855,109.680176,0,0
4036,2024 10 17,09:00:33.623,-0.407927,0.515826,0.608078,0.444703,-1.244667,-0.417493,-0.089846,4.638672,65.673828,109.130859,0,0
4037,2024 10 17,09:00:33.631,-0.401143,0.512262,0.614992,0.445485,-1.231971,-0.477065,-0.130375,5.615234,57.006836,106.079102,0,0
4038,2024 10 17,09:00:33.640,-0.394991,0.50865,0.621249,0.446437,-1.196814,-0.533708,-0.146489,4.638672,48.583984,99.67041,0,0
4039,2024 10 17,09:00:33.648,-0.389543,0.505221,0.626642,0.44758,-1.141148,-0.600116,-0.14893,1.464844,39.489746,90.209961,0,0
4040,2024 10 17,09:00:33.656,-0.384775,0.502289,0.631058,0.448798,-1.089877,-0.662618,-0.162603,-2.685547,33.081055,77.331543,0,0
4041,2024 10 17,09:00:33.665,-0.384775,0.502289,0.631058,0.448798,-1.089877,-0.662618,-0.162603,-2.685547,33.081055,77.331543,0,0
4042,2024 10 17,09:00:33.673,-0.380713,0.500037,0.634397,0.450068,-1.057161,-0.721213,-0.173345,-7.69043,26.245117,62.866211,0,0
4043,2024 10 17,09:00:33.681,-0.377407,0.498416,0.636696,0.451401,-1.013703,-0.760277,-0.170904,-11.779785,18.859863,49.316406,0,0
4044,2024 10 17,09:00:33.690,-0.374902,0.497337,0.638057,0.452755,-0.943388,-0.810083,-0.183599,-14.038086,11.84082,36.132813,0,0
4045,2024 10 17,09:00:33.698,-0.373149,0.496878,0.638644,0.453879,-0.93704,-0.890652,-0.19483,-14.343262,8.728027,22.583008,0,0
4046,2024 10 17,09:00:33.706,-0.37224,0.4969,0.638618,0.454637,-0.964873,-0.950224,-0.212897,-11.59668,3.112793,10.437012,0,0
4047,2024 10 17,09:00:33.715,-0.37224,0.4969,0.638618,0.454637,-0.964873,-0.950224,-0.212897,-11.59668,3.112793,10.437012,0,0
4048,2024 10 17,09:00:33.723,-0.372485,0.497057,0.637968,0.455177,-0.973174,-0.995636,-0.192877,-6.713867,-6.286621,-0.549316,0,0
4049,2024 10 17,09:00:33.731,-0.374054,0.497243,0.636716,0.455441,-0.96878,-1.04886,-0.18067,-0.061035,-17.700195,-12.390137,0,0
4050,2024 10 17,09:00:33.740,-0.376987,0.497524,0.634925,0.455216,-0.955596,-1.116733,-0.161626,8.483887,-25.756836,-25.20752,0,0
4051,2024 10 17,09:00:33.748,-0.381318,0.498182,0.632909,0.453693,-3.750114,-0.821802,0.158696,28.564453,-21.789551,-45.593262,0,0
4052,2024 10 17,09:00:33.756,-0.393993,0.500402,0.628707,0.4462,-1.512253,-0.071291,-2.225166,30.700684,-168.823242,-126.220703,0,0
4053,2024 10 17,09:00:33.765,-0.393993,0.500402,0.628707,0.4462,-1.512253,-0.071291,-2.225166,30.700684,-168.823242,-126.220703,0,0
4054,2024 10 17,09:00:33.773,-0.418323,0.492986,0.615404,0.450831,-0.264657,0.940458,2.661702,111.572266,-236.38916,-133.056641,1,0
4055,2024 10 17,09:00:33.781,-0.429104,0.493603,0.60837,0.449568,-1.235878,0.195318,-1.524461,8.483887,-132.385254,-107.849121,0,0
4056,2024 10 17,09:00:33.790,-0.443305,0.492646,0.597523,0.451384,-0.72805,0.661641,0.604022,0.671387,-132.263184,-123.352051,0,0
4057,2024 10 17,09:00:33.798,-0.452964,0.495846,0.585971,0.453431,-1.200232,0.193365,-0.276376,-31.066895,-139.953613,-129.394531,0,0
4058,2024 10 17,09:00:33.806,-0.462379,0.497912,0.573459,0.45764,-1.00882,-0.291513,-0.444349,-53.100586,-125.793457,-105.224609,0,0
4059,2024 10 17,09:00:33.815,-0.470419,0.498989,0.563905,0.460138,-0.977569,-0.114261,-0.047853,-19.592285,-106.872559,-83.435059,0,0
4060,2024 10 17,09:00:33.823,-0.470419,0.498989,0.563905,0.460138,-0.977569,-0.114261,-0.047853,-19.592285,-106.872559,-83.435059,0,0
4061,2024 10 17,09:00:33.831,-0.476929,0.499281,0.556724,0.461861,-0.853542,-0.051759,-0.291513,-9.94873,-81.848145,-62.561035,0,0
4062,2024 10 17,09:00:33.840,-0.482054,0.499402,0.551439,0.46275,-0.887722,0.044923,-0.046388,-4.333496,-57.495117,-50.170898,0,0
4063,2024 10 17,09:00:33.848,-0.485948,0.499766,0.54719,0.463326,-0.95999,0.033204,-0.004395,-6.408691,-47.851563,-42.663574,0,0
4064,2024 10 17,09:00:33.856,-0.489533,0.499906,0.543378,0.463888,-1.006378,0.070803,0.083499,-2.258301,-45.349121,-37.414551,0,0
4065,2024 10 17,09:00:33.865,-0.493006,0.499692,0.539524,0.464937,-1.035676,0.007813,0.126469,-8.117676,-52.67334,-31.982422,0,0
4066,2024 10 17,09:00:33.873,-0.493006,0.499692,0.539524,0.464937,-1.035676,0.007813,0.126469,-8.117676,-52.67334,-31.982422,0,0
4067,2024 10 17,09:00:33.881,-0.496359,0.498896,0.535419,0.466966,-1.009308,0.027833,0.091311,-12.207031,-62.255859,-22.460938,0,0
4068,2024 10 17,09:00:33.890,-0.499331,0.497609,0.531099,0.470092,-0.858425,0.053224,-0.155766,-18.371582,-68.359375,-13.183594,0,0
4069,2024 10 17,09:00:33.898,-0.501469,0.496293,0.526812,0.474015,-0.818873,-0.017579,-0.178716,-28.930664,-62.561035,-3.479004,0,0
4070,2024 10 17,09:00:33.906,-0.502697,0.495293,0.523666,0.477237,-0.873074,0.082522,-0.183111,-22.766113,-43.945313,0.915527,0,0
4071,2024 10 17,09:00:33.915,-0.503191,0.494715,0.520997,0.480227,-0.924345,0.039064,-0.059572,-26.733398,-35.461426,2.807617,0,0
4072,2024 10 17,09:00:33.923,-0.503191,0.494715,0.520997,0.480227,-0.924345,0.039064,-0.059572,-26.733398,-35.461426,2.807617,0,0
4073,2024 10 17,09:00:33.931,-0.503549,0.494222,0.518918,0.482604,-0.817896,0.012696,-0.244636,-16.662598,-26.916504,2.868652,0,0
4074,2024 10 17,09:00:33.940,-0.503494,0.493983,0.517825,0.484078,-0.969756,0.053713,-0.021485,-16.296387,-10.864258,4.272461,0,0
4075,2024 10 17,09:00:33.948,-0.503538,0.493826,0.516785,0.485303,-0.900906,0.064455,-0.104495,-9.338379,-15.014648,0.732422,0,0
4076,2024 10 17,09:00:33.956,-0.503656,0.493728,0.516123,0.485983,-0.91702,0.049806,-0.107913,-5.187988,-5.065918,-0.305176,0,0
4077,2024 10 17,09:00:33.965,-0.503835,0.493718,0.515839,0.48611,-0.941923,0.069826,-0.06299,-0.244141,-2.258301,-2.746582,0,0
4078,2024 10 17,09:00:33.973,-0.503835,0.493718,0.515839,0.48611,-0.941923,0.069826,-0.06299,-0.244141,-2.258301,-2.746582,0,0
4079,2024 10 17,09:00:33.981,-0.504126,0.493804,0.515701,0.485866,-0.983917,0.066408,-0.060549,2.319336,-0.244141,-5.249023,0,0
4080,2024 10 17,09:00:33.990,-0.50469,0.493813,0.515464,0.485525,-0.935087,0.059572,-0.075198,4.333496,-2.13623,-7.263184,0,0
4081,2024 10 17,09:00:33.998,-0.505282,0.493868,0.515374,0.484947,-0.952666,0.060549,-0.082522,6.225586,0.366211,-7.93457,0,0
4082,2024 10 17,09:00:34.006,-0.505946,0.493904,0.515303,0.484293,-0.955596,0.066408,-0.075198,7.080078,0.305176,-8.300781,0,0
4083,2024 10 17,09:00:34.015,-0.506655,0.49393,0.515247,0.483584,-0.954131,0.063967,-0.074221,7.751465,0.12207,-8.911133,0,0
4084,2024 10 17,09:00:34.023,-0.506655,0.49393,0.515247,0.483584,-0.954131,0.063967,-0.074221,7.751465,0.12207,-8.911133,0,0
4085,2024 10 17,09:00:34.031,-0.50739,0.493949,0.515173,0.482872,-0.960967,0.063478,-0.080081,7.93457,-0.061035,-9.155273,0,0
4086,2024 10 17,09:00:34.040,-0.508195,0.493947,0.515041,0.482169,-0.966826,0.063478,-0.069826,7.8125,-1.403809,-9.82666,0,0
4087,2024 10 17,09:00:34.048,-0.509048,0.493925,0.514803,0.481546,-0.95706,0.061037,-0.080081,7.019043,-2.807617,-9.82666,0,0
4088,2024 10 17,09:00:34.056,-0.509927,0.493915,0.514483,0.480967,-0.958037,0.069826,-0.076174,6.713867,-3.356934,-10.498047,0,0
4089,2024 10 17,09:00:34.065,-0.510771,0.493976,0.514057,0.480465,-0.951689,0.077151,-0.079104,4.577637,-3.78418,-10.742188,0,0
4090,2024 10 17,09:00:34.073,-0.510771,0.493976,0.514057,0.480465,-0.951689,0.077151,-0.079104,4.577637,-3.78418,-10.742188,0,0
4091,2024 10 17,09:00:34.081,-0.511486,0.494162,0.513517,0.48009,-0.942412,0.056154,-0.078127,1.464844,-3.540039,-10.620117,0,0
4092,2024 10 17,09:00:34.090,-0.512101,0.494426,0.512952,0.479766,-0.92581,0.056154,-0.092288,0.427246,-2.807617,-10.375977,0,0
4093,2024 10 17,09:00:34.098,-0.512569,0.494796,0.512446,0.479425,-0.938017,0.046388,-0.08594,-0.549316,-0.610352,-9.82666,0,0
4094,2024 10 17,09:00:34.106,-0.512995,0.495193,0.512,0.479037,-0.938505,0.046876,-0.080569,0.0,-0.0,-9.82666,0,0
4095,2024 10 17,09:00:34.115,-0.513401,0.495618,0.511601,0.478589,-0.940458,0.044435,-0.072268,0.305176,0.915527,-9.82666,0,0
4096,2024 10 17,09:00:34.123,-0.513401,0.495618,0.511601,0.478589,-0.940458,0.044435,-0.072268,0.305176,0.915527,-9.82666,0,0
4097,2024 10 17,09:00:34.131,-0.513804,0.496062,0.511253,0.478067,-0.938017,0.047853,-0.087893,0.732422,1.77002,-10.192871,0,0
4098,2024 10 17,09:00:34.140,-0.514199,0.496547,0.510926,0.477489,-0.946318,0.0459,-0.078616,0.793457,2.380371,-10.742188,0,0
4099,2024 10 17,09:00:34.148,-0.514604,0.497053,0.510589,0.476885,-0.955596,0.0459,-0.070315,1.037598,2.258301,-11.047363,0,0
4100,2024 10 17,09:00:34.156,-0.515053,0.497517,0.510161,0.476375,-0.946318,0.044923,-0.080569,0.12207,0.488281,-10.925293,0,0
4101,2024 10 17,09:00:34.165,-0.515507,0.497962,0.509658,0.475956,-0.944365,0.036134,-0.055666,-0.610352,-0.366211,-10.620117,0,0
4102,2024 10 17,09:00:34.173,-0.515507,0.497962,0.509658,0.475956,-0.944365,0.036134,-0.055666,-0.610352,-0.366211,-10.620117,0,0
4103,2024 10 17,09:00:34.181,-0.515962,0.498388,0.509093,0.475624,-0.944853,0.033692,-0.080569,-1.281738,-1.708984,-10.375977,0,0
4104,2024 10 17,09:00:34.190,-0.516422,0.498752,0.508467,0.475412,-0.933622,0.027345,-0.077639,-1.89209,-2.624512,-9.58252,0,0
4105,2024 10 17,09:00:34.198,-0.516885,0.499071,0.507823,0.475263,-0.93997,0.016114,-0.071291,-2.01416,-3.845215,-9.033203,0,0
4106,2024 10 17,09:00:34.206,-0.517433,0.499267,0.507205,0.475121,-0.926298,0.025391,-0.087405,-0.12207,-4.516602,-8.728027,0,0
4107,2024 10 17,09:00:34.215,-0.51802,0.499394,0.506612,0.474979,-0.924833,0.02588,-0.086428,0.488281,-4.760742,-8.483887,0,0
4108,2024 10 17,09:00:34.223,-0.518593,0.499527,0.506091,0.47477,-0.931669,0.021973,-0.100589,0.549316,-3.78418,-8.300781,0,0
4109,2024 10 17,09:00:34.231,-0.518593,0.499527,0.506091,0.47477,-0.931669,0.021973,-0.100589,0.549316,-3.78418,-8.300781,0,0
4110,2024 10 17,09:00:34.240,-0.519149,0.499681,0.505587,0.474537,-0.926786,0.030274,-0.08594,0.915527,-3.112793,-8.483887,0,0
4111,2024 10 17,09:00:34.248,-0.519672,0.499872,0.505144,0.474234,-0.946806,0.024903,-0.083499,1.342773,-2.380371,-8.605957,0,0
4112,2024 10 17,09:00:34.256,-0.520237,0.500048,0.504663,0.473941,-0.950713,0.026368,-0.073733,1.037598,-2.990723,-9.033203,0,0
4113,2024 10 17,09:00:34.265,-0.520803,0.500248,0.50418,0.473623,-0.961943,0.016114,-0.062014,1.220703,-2.990723,-9.277344,0,0
4114,2024 10 17,09:00:34.273,-0.521501,0.500372,0.503624,0.473315,-0.948759,0.015137,-0.080081,2.197266,-5.004883,-9.94873,0,0
4115,2024 10 17,09:00:34.281,-0.521501,0.500372,0.503624,0.473315,-0.948759,0.015137,-0.080081,2.197266,-5.004883,-9.94873,0,0
4116,2024 10 17,09:00:34.290,-0.522297,0.500454,0.503019,0.472994,-0.950224,0.024415,-0.0918,2.685547,-5.249023,-10.620117,0,0
4117,2024 10 17,09:00:34.298,-0.523108,0.500602,0.502409,0.472588,-0.950224,0.027833,-0.093265,2.502441,-4.394531,-11.71875,0,0
4118,2024 10 17,09:00:34.306,-0.523923,0.500888,0.501783,0.472048,-0.978545,0.038575,-0.074221,2.746582,-2.929688,-13.85498,0,0
4119,2024 10 17,09:00:34.315,-0.524808,0.501337,0.501082,0.471333,-0.993194,0.031251,-0.08887,2.685547,-2.258301,-17.028809,0,0
4120,2024 10 17,09:00:34.323,-0.525949,0.501896,0.500241,0.470358,-1.021516,0.032716,-0.080569,5.126953,-1.89209,-21.911621,0,0
4121,2024 10 17,09:00:34.331,-0.525949,0.501896,0.500241,0.470358,-1.021516,0.032716,-0.080569,5.126953,-1.89209,-21.911621,0,0
4122,2024 10 17,09:00:34.340,-0.527447,0.502688,0.499328,0.468803,-1.051302,0.032716,-0.077151,8.850098,-0.671387,-29.907227,0,0
4123,2024 10 17,09:00:34.348,-0.52949,0.503625,0.498067,0.46683,-1.068392,0.048341,-0.102542,11.59668,-2.075195,-38.635254,0,0
4124,2024 10 17,09:00:34.356,-0.531934,0.504949,0.496617,0.46416,-1.129917,0.055666,-0.116703,14.343262,1.220703,-48.461914,0,0
4125,2024 10 17,09:00:34.365,-0.534884,0.506652,0.494761,0.460883,-1.151891,0.066408,-0.097171,15.686035,0.183105,-59.814453,0,0
4126,2024 10 17,09:00:34.373,-0.538154,0.508917,0.492411,0.457084,-1.181188,0.035157,-0.064455,13.671875,2.380371,-70.495605,0,0
4127,2024 10 17,09:00:34.381,-0.538154,0.508917,0.492411,0.457084,-1.181188,0.035157,-0.064455,13.671875,2.380371,-70.495605,0,0
4128,2024 10 17,09:00:34.390,-0.541705,0.511617,0.489486,0.452999,-1.257851,0.052736,-0.064943,10.253906,-1.159668,-78.979492,0,0
4129,2024 10 17,09:00:34.398,-0.545716,0.514548,0.485591,0.449038,-1.300333,0.067385,-0.04883,6.225586,-9.521484,-88.134766,0,0
4130,2024 10 17,09:00:34.406,-0.550165,0.517945,0.48085,0.444785,-1.374554,0.067385,-0.093265,4.02832,-12.512207,-101.379395,0,0
4131,2024 10 17,09:00:34.415,-0.55541,0.5217,0.475074,0.440061,-1.35844,0.079104,-0.028321,3.540039,-19.836426,-116.577148,0,0
4132,2024 10 17,09:00:34.423,-0.561192,0.525927,0.468162,0.435073,-1.412641,0.079104,-0.024903,-0.305176,-24.841309,-130.92041,0,0
4133,2024 10 17,09:00:34.431,-0.561192,0.525927,0.468162,0.435073,-1.412641,0.079104,-0.024903,-0.305176,-24.841309,-130.92041,0,0
4134,2024 10 17,09:00:34.440,-0.567415,0.530841,0.460094,0.429607,-1.544481,0.127445,-0.097171,-7.751465,-29.418945,-147.399902,0,0
4135,2024 10 17,09:00:34.448,-0.57425,0.536477,0.450158,0.424012,-1.678762,0.207038,-0.053224,-17.76123,-42.114258,-167.96875,0,0
4136,2024 10 17,09:00:34.456,-0.58172,0.543078,0.438,0.418119,-1.760308,0.182623,-0.003906,-26.794434,-51.391602,-194.335938,0,0
4137,2024 10 17,09:00:34.465,-0.590421,0.550395,0.423937,0.410787,-1.912656,0.145512,0.029786,-23.071289,-58.105469,-227.111816,0,0
4138,2024 10 17,09:00:34.473,-0.601202,0.557698,0.407776,0.401557,-2.085025,0.247078,0.115238,-9.521484,-75.134277,-265.258789,0,0
4139,2024 10 17,09:00:34.481,-0.601202,0.557698,0.407776,0.401557,-2.085025,0.247078,0.115238,-9.521484,-75.134277,-265.258789,0,0
4140,2024 10 17,09:00:34.490,-0.613805,0.565285,0.388525,0.390826,-2.339427,0.364757,0.145512,-12.023926,-92.834473,-305.969238,0,0
4141,2024 10 17,09:00:34.498,-0.627667,0.573618,0.365465,0.378724,-2.830653,0.352062,0.112796,-21.606445,-116.760254,-353.088379,0,0
4142,2024 10 17,09:00:34.506,-0.642949,0.582507,0.337818,0.36494,-3.18955,0.375011,0.039552,-26.794434,-142.76123,-406.555176,0,0
4143,2024 10 17,09:00:34.515,-0.658698,0.59192,0.30558,0.349811,-3.018647,0.044923,-0.046388,-41.748047,-164.978027,-449.279785,0,0
4144,2024 10 17,09:00:34.523,-0.674358,0.600515,0.270881,0.333536,-2.990326,-0.354015,-0.567888,-41.809082,-174.926758,-463.195801,0,0
4145,2024 10 17,09:00:34.531,-0.674358,0.600515,0.270881,0.333536,-2.990326,-0.354015,-0.567888,-41.809082,-174.926758,-463.195801,0,0
4146,2024 10 17,09:00:34.540,-0.689617,0.607401,0.235661,0.316158,-2.98056,-0.169439,-0.08301,-25.085449,-173.461914,-465.820313,0,0
4147,2024 10 17,09:00:34.548,-0.703253,0.612902,0.200278,0.299459,-2.756432,-0.027345,0.028809,-29.785156,-186.035156,-449.279785,0,0
4148,2024 10 17,09:00:34.556,-0.716345,0.616069,0.164894,0.283051,-2.118229,0.737815,0.543474,-14.709473,-192.687988,-443.115234,0,0
4149,2024 10 17,09:00:34.565,-0.7281,0.618433,0.131106,0.264996,-1.757866,1.156774,0.803735,-6.774902,-156.555176,-441.040039,0,0
4150,2024 10 17,09:00:34.573,-0.739158,0.620006,0.099683,0.24352,-1.272988,1.353557,0.991241,6.896973,-115.234375,-452.514648,0,0
4151,2024 10 17,09:00:34.581,-0.739158,0.620006,0.099683,0.24352,-1.272988,1.353557,0.991241,6.896973,-115.234375,-452.514648,0,0
4152,2024 10 17,09:00:34.590,-0.749667,0.621534,0.07091,0.216023,-1.093783,1.176305,0.85403,21.179199,-38.574219,-489.318848,0,0
4153,2024 10 17,09:00:34.598,-0.761134,0.621319,0.044317,0.180756,-0.058596,0.175787,0.767113,56.335449,24.047852,-528.991699,0,1
4154,2024 10 17,09:00:34.606,-0.771064,0.617884,0.028316,0.151251,1.821833,0.83694,1.292032,92.773438,70.861816,-321.350098,0,0
4155,2024 10 17,09:00:34.615,-0.776447,0.614415,0.032555,0.136252,0.141606,2.315989,0.25782,71.289063,161.315918,-37.658691,0,0
4156,2024 10 17,09:00:34.623,-0.776144,0.613813,0.049738,0.135499,-1.161656,1.837947,0.15772,24.047852,140.808105,150.634766,0,0
4157,2024 10 17,09:00:34.631,-0.771704,0.614844,0.068401,0.147513,-1.167028,1.346721,0.213874,-33.691406,68.969727,258.544922,0,0
4158,2024 10 17,09:00:34.640,-0.771704,0.614844,0.068401,0.147513,-1.167028,1.346721,0.213874,-33.691406,68.969727,258.544922,0,0
4159,2024 10 17,09:00:34.648,-0.764382,0.616978,0.086727,0.165944,-1.116245,0.900418,0.505387,-63.659668,30.212402,304.077148,0,0
4160,2024 10 17,09:00:34.656,-0.755823,0.619063,0.103675,0.186396,-0.688498,0.654317,0.571795,-61.889648,12.451172,304.077148,0,0
4161,2024 10 17,09:00:34.665,-0.747204,0.620719,0.120292,0.204753,-0.0918,0.579608,0.544939,-58.349609,33.508301,283.813477,0,0
4162,2024 10 17,09:00:34.673,-0.738298,0.622833,0.138673,0.218551,-0.044435,0.48439,0.467299,-53.833008,90.698242,259.277344,0,0
4163,2024 10 17,09:00:34.681,-0.729138,0.625325,0.159464,0.227813,-0.291025,0.470229,0.354015,-45.715332,140.74707,240.112305,0,0
4164,2024 10 17,09:00:34.690,-0.729138,0.625325,0.159464,0.227813,-0.291025,0.470229,0.354015,-45.715332,140.74707,240.112305,0,0
4165,2024 10 17,09:00:34.698,-0.719543,0.627806,0.181995,0.234512,-0.613788,0.535661,0.234382,-40.710449,168.579102,234.49707,0,0
4166,2024 10 17,09:00:34.706,-0.709395,0.6297,0.205241,0.241066,-0.883328,0.550798,0.087893,-39.18457,167.785645,243.103027,0,0
4167,2024 10 17,09:00:34.715,-0.698539,0.630525,0.228515,0.249526,-1.093295,0.513688,0.011231,-40.527344,150.32959,265.075684,0,0
4168,2024 10 17,09:00:34.723,-0.687017,0.629826,0.251578,0.260836,-1.168004,0.395032,0.007813,-42.724609,123.657227,292.785645,0,0
4169,2024 10 17,09:00:34.731,-0.675046,0.627351,0.2744,0.274678,-1.137242,0.284677,-0.003906,-38.146973,101.806641,316.589355,0,0
4170,2024 10 17,09:00:34.740,-0.675046,0.627351,0.2744,0.274678,-1.137242,0.284677,-0.003906,-38.146973,101.806641,316.589355,0,0
4171,2024 10 17,09:00:34.748,-0.66272,0.623171,0.297526,0.28972,-1.07474,0.185553,0.076662,-27.160645,96.618652,333.251953,0,0
4172,2024 10 17,09:00:34.756,-0.649949,0.617601,0.3218,0.304269,-1.113315,0.099124,0.051271,-13.977051,107.788086,342.773438,0,0
4173,2024 10 17,09:00:34.765,-0.637058,0.61067,0.34692,0.317625,-1.194372,0.055177,0.10596,2.807617,118.652344,343.87207,0,0
4174,2024 10 17,09:00:34.773,-0.624003,0.602625,0.372815,0.329351,-1.357952,0.06592,0.056154,18.981934,132.263184,342.224121,0,0
4175,2024 10 17,09:00:34.781,-0.610881,0.593391,0.39901,0.339856,-1.482467,0.102542,0.065432,32.714844,136.84082,341.247559,0,0
4176,2024 10 17,09:00:34.790,-0.610881,0.593391,0.39901,0.339856,-1.482467,0.102542,0.065432,32.714844,136.84082,341.247559,0,0
4177,2024 10 17,09:00:34.798,-0.597381,0.582986,0.425334,0.349791,-1.589404,0.159673,0.018067,39.733887,137.939453,346.191406,0,0
4178,2024 10 17,09:00:34.806,-0.583131,0.571422,0.45159,0.359864,-1.68804,0.196295,-0.000488,39.794922,135.375977,356.628418,0,0
4179,2024 10 17,09:00:34.815,-0.567746,0.558871,0.477712,0.370296,-1.824274,0.195807,0.028321,35.522461,134.399414,367.980957,0,0
4180,2024 10 17,09:00:34.823,-0.551143,0.545534,0.503279,0.381241,-1.955138,0.143071,0.059572,27.099609,130.004883,376.708984,0,0
4181,2024 10 17,09:00:34.831,-0.533523,0.531609,0.527934,0.392467,-2.036683,0.049806,0.151372,18.371582,126.953125,380.371094,0,0
4182,2024 10 17,09:00:34.840,-0.533523,0.531609,0.527934,0.392467,-2.036683,0.049806,0.151372,18.371582,126.953125,380.371094,0,0
4183,2024 10 17,09:00:34.848,-0.514877,0.517447,0.551719,0.40343,-2.081118,-0.036134,0.245125,12.329102,129.272461,379.516602,0,0
4184,2024 10 17,09:00:34.856,-0.495041,0.503397,0.574836,0.413631,-2.151921,-0.161138,0.288583,6.103516,139.953613,376.77002,0,0
4185,2024 10 17,09:00:34.865,-0.47392,0.489715,0.597282,0.422887,-2.254463,-0.34376,0.232917,-0.793457,151.550293,372.070313,0,0
4186,2024 10 17,09:00:34.873,-0.451877,0.47653,0.61863,0.431305,-2.329173,-0.647481,0.139164,-9.033203,159.118652,363.15918,0,0
4187,2024 10 17,09:00:34.881,-0.429126,0.464136,0.638613,0.438864,-2.509842,-1.076205,0.052736,-18.066406,166.015625,350.708008,0,0
4188,2024 10 17,09:00:34.890,-0.429126,0.464136,0.638613,0.438864,-2.509842,-1.076205,0.052736,-18.066406,166.015625,350.708008,0,0
4189,2024 10 17,09:00:34.898,-0.406658,0.452585,0.656627,0.445687,-2.634846,-1.566454,-0.020997,-25.512695,160.095215,329.711914,0,0
4190,2024 10 17,09:00:34.906,-0.385403,0.44228,0.672246,0.451596,-2.554765,-2.07477,-0.201178,-31.188965,152.038574,298.339844,0,0
4191,2024 10 17,09:00:34.915,-0.365994,0.43368,0.685348,0.456364,-2.375072,-2.521561,-0.491714,-33.081055,140.991211,258.300781,0,0
4192,2024 10 17,09:00:34.923,-0.34903,0.427224,0.695575,0.460253,-2.137272,-3.024506,-1.000519,-38.513184,125.915527,210.693359,0,0
4193,2024 10 17,09:00:34.931,-0.33606,0.423257,0.702501,0.463043,-1.624073,-3.457137,-1.528855,-36.254883,98.266602,146.728516,0,0
4194,2024 10 17,09:00:34.940,-0.33606,0.423257,0.702501,0.463043,-1.624073,-3.457137,-1.528855,-36.254883,98.266602,146.728516,0,0
4195,2024 10 17,09:00:34.948,-0.326511,0.42255,0.706628,0.46424,-1.987854,-4.342418,-2.110904,-31.616211,95.947266,88.439941,0,0
4196,2024 10 17,09:00:34.956,-0.321806,0.423155,0.708802,0.463659,-2.541093,-4.231575,-1.996643,-8.605957,47.302246,41.625977,0,0
4197,2024 10 17,09:00:34.965,-0.326325,0.421507,0.706869,0.464951,-2.043031,-3.878536,-1.410688,6.591797,-77.209473,-1.159668,0,0
4198,2024 10 17,09:00:34.973,-0.337648,0.418535,0.702152,0.466696,-1.228553,-3.164159,-0.92581,26.977539,-130.92041,-41.19873,0,0
4199,2024 10 17,09:00:34.981,-0.349962,0.417286,0.696778,0.466796,-0.910672,-2.183661,-0.731468,30.151367,-114.807129,-72.32666,0,0
4200,2024 10 17,09:00:34.990,-0.349962,0.417286,0.696778,0.466796,-0.910672,-2.183661,-0.731468,30.151367,-114.807129,-72.32666,0,0
4201,2024 10 17,09:00:34.998,-0.359087,0.422608,0.700386,0.449354,-7.245338,-1.257851,-2.75106,334.411621,219.421387,-186.401367,0,0
4202,2024 10 17,09:00:35.006,-0.392693,0.425505,0.682257,0.446389,0.451674,1.989319,3.629993,-17.089844,-515.563965,-274.658203,0,0
4203,2024 10 17,09:00:35.015,-0.415364,0.436792,0.664156,0.442247,-0.145512,0.72805,-2.133366,-45.349121,2.197266,-342.285156,0,0
4204,2024 10 17,09:00:35.023,-0.427082,0.459009,0.649691,0.429899,-3.049409,1.191443,1.50444,-25.20752,-49.194336,-363.037109,1,0
4205,2024 10 17,09:00:35.031,-0.4421,0.476672,0.618887,0.440807,-1.567919,-1.633839,-1.77691,-261.413574,-256.652832,-297.729492,0,0
4206,2024 10 17,09:00:35.040,-0.455439,0.486276,0.600542,0.44211,-2.367748,-0.715354,-0.01709,-13.122559,-111.877441,-197.265625,0,0
4207,2024 10 17,09:00:35.048,-0.455439,0.486276,0.600542,0.44211,-2.367748,-0.715354,-0.01709,-13.122559,-111.877441,-197.265625,0,0
4208,2024 10 17,09:00:35.056,-0.47119,0.486861,0.585541,0.445071,-0.998077,-0.229011,0.226569,-17.211914,-224.42627,-137.207031,0,0
4209,2024 10 17,09:00:35.065,-0.482733,0.486916,0.573522,0.44828,-1.288614,-0.074221,0.033692,-36.010742,-136.230469,-95.825195,0,0
4210,2024 10 17,09:00:35.073,-0.490516,0.486735,0.561187,0.455579,-0.821802,-0.174322,0.095706,-66.52832,-170.043945,-58.59375,0,0
4211,2024 10 17,09:00:35.081,-0.496751,0.485579,0.551094,0.462328,-0.749046,-0.22071,-0.513688,-46.264648,-129.394531,-37.597656,0,0
4212,2024 10 17,09:00:35.090,-0.502049,0.48372,0.543341,0.467699,-0.878933,0.017579,0.027345,-38.696289,-107.666016,-23.620605,0,0
4213,2024 10 17,09:00:35.098,-0.502049,0.48372,0.543341,0.467699,-0.878933,0.017579,0.027345,-38.696289,-107.666016,-23.620605,0,0
4214,2024 10 17,09:00:35.106,-0.505328,0.482598,0.536929,0.472705,-0.947783,0.032228,-0.078127,-41.931152,-89.660645,-16.235352,0,0
4215,2024 10 17,09:00:35.115,-0.508307,0.48147,0.531102,0.477223,-0.592303,-0.16895,-0.479507,-30.273438,-75.98877,-14.099121,0,0
4216,2024 10 17,09:00:35.123,-0.510692,0.48042,0.528261,0.478885,-0.898465,0.132328,-0.005371,-4.333496,-33.569336,-10.498047,0,0
4217,2024 10 17,09:00:35.131,-0.511887,0.480031,0.526324,0.480131,-0.901883,0.026856,-0.178228,-5.981445,-28.198242,-8.361816,0,0
4218,2024 10 17,09:00:35.140,-0.513301,0.479496,0.524914,0.480698,-0.889187,0.044923,-0.092776,-0.732422,-17.150879,-8.850098,0,0
4219,2024 10 17,09:00:35.148,-0.513301,0.479496,0.524914,0.480698,-0.889187,0.044923,-0.092776,-0.732422,-17.150879,-8.850098,0,0
4220,2024 10 17,09:00:35.156,-0.51435,0.479355,0.52422,0.480474,-0.978545,0.106937,-0.076662,5.493164,-8.605957,-11.169434,0,0
4221,2024 10 17,09:00:35.165,-0.515656,0.479275,0.523495,0.479945,-1.014679,0.064455,-0.014649,7.629395,-9.033203,-15.563965,0,0
4222,2024 10 17,09:00:35.173,-0.517402,0.47912,0.522725,0.479059,-0.964873,0.08301,-0.06299,12.084961,-11.71875,-19.165039,0,0
4223,2024 10 17,09:00:35.181,-0.519256,0.478967,0.52192,0.478083,-0.974151,0.077639,-0.04883,12.878418,-10.375977,-20.141602,0,0
4224,2024 10 17,09:00:35.190,-0.521103,0.478856,0.521067,0.477113,-0.959014,0.098148,-0.079592,11.169434,-11.84082,-20.324707,0,0
4225,2024 10 17,09:00:35.198,-0.521103,0.478856,0.521067,0.477113,-0.959014,0.098148,-0.079592,11.169434,-11.84082,-20.324707,0,0
4226,2024 10 17,09:00:35.206,-0.522748,0.478874,0.519929,0.476537,-0.896023,0.104984,-0.11475,4.577637,-12.268066,-18.859863,0,0
4227,2024 10 17,09:00:35.215,-0.523825,0.479297,0.518823,0.476135,-0.917997,0.075686,-0.122562,-1.098633,-6.774902,-16.967773,0,0
4228,2024 10 17,09:00:35.223,-0.524571,0.479929,0.517736,0.47586,-0.918973,0.04297,-0.086428,-5.310059,-4.638672,-15.319824,0,0
4229,2024 10 17,09:00:35.231,-0.525203,0.480578,0.516786,0.475541,-0.931181,0.033692,-0.06885,-3.356934,-3.601074,-14.343262,0,0
4230,2024 10 17,09:00:35.240,-0.525871,0.481115,0.515996,0.475116,-0.947783,0.035646,-0.059084,-0.427246,-2.624512,-13.85498,0,0
4231,2024 10 17,09:00:35.248,-0.525871,0.481115,0.515996,0.475116,-0.947783,0.035646,-0.059084,-0.427246,-2.624512,-13.85498,0,0
4232,2024 10 17,09:00:35.256,-0.526681,0.481529,0.515378,0.474471,-0.955596,0.051271,-0.073244,2.746582,-2.746582,-14.648438,0,0
4233,2024 10 17,09:00:35.265,-0.527623,0.481871,0.514651,0.473866,-0.940947,0.06006,-0.098636,2.380371,-4.699707,-15.319824,0,0
4234,2024 10 17,09:00:35.273,-0.52847,0.482312,0.513844,0.473348,-0.931669,0.084475,-0.110355,-0.671387,-3.417969,-15.319824,0,0
4235,2024 10 17,09:00:35.281,-0.529013,0.48305,0.512933,0.472977,-0.937529,0.075686,-0.098636,-5.187988,-1.77002,-15.075684,0,0
4236,2024 10 17,09:00:35.290,-0.529374,0.48402,0.511864,0.47274,-0.948759,0.049806,-0.118656,-9.58252,-1.525879,-15.74707,0,0
4237,2024 10 17,09:00:35.298,-0.529374,0.48402,0.511864,0.47274,-0.948759,0.049806,-0.118656,-9.58252,-1.525879,-15.74707,0,0
4238,2024 10 17,09:00:35.306,-0.529666,0.485066,0.510628,0.472678,-0.944853,0.031251,-0.064455,-11.71875,-2.746582,-15.075684,0,0
4239,2024 10 17,09:00:35.315,-0.530015,0.48604,0.509376,0.472637,-0.952666,0.023438,-0.08594,-9.94873,-4.150391,-15.441895,0,0
4240,2024 10 17,09:00:35.323,-0.530604,0.48682,0.507985,0.472669,-0.951201,0.033204,-0.092776,-7.873535,-7.568359,-15.991211,0,0
4241,2024 10 17,09:00:35.331,-0.53136,0.487531,0.506721,0.472445,-0.934599,0.004883,-0.083987,-5.004883,-6.530762,-17.089844,0,0
4242,2024 10 17,09:00:35.340,-0.532287,0.488116,0.505588,0.472011,-0.944853,-0.008301,-0.109378,-1.586914,-5.981445,-18.005371,0,0
4243,2024 10 17,09:00:35.348,-0.532287,0.488116,0.505588,0.472011,-0.944853,-0.008301,-0.109378,-1.586914,-5.981445,-18.005371,0,0
4244,2024 10 17,09:00:35.356,-0.533472,0.488572,0.504574,0.471287,-0.935575,0.012696,-0.105472,2.929688,-6.286621,-19.592285,0,0
4245,2024 10 17,09:00:35.365,-0.534821,0.488904,0.503635,0.470416,-0.93997,0.005371,-0.092776,6.591797,-6.04248,-20.324707,0,0
4246,2024 10 17,09:00:35.373,-0.53633,0.489147,0.502727,0.469416,-0.965361,0.023438,-0.097171,8.178711,-7.507324,-21.362305,0,0
4247,2024 10 17,09:00:35.381,-0.53802,0.489346,0.501786,0.46828,-0.986847,0.035157,-0.113773,9.94873,-7.385254,-23.620605,0,0
4248,2024 10 17,09:00:35.390,-0.539869,0.489653,0.500728,0.466961,-1.018586,0.02002,-0.091311,10.742188,-7.507324,-27.34375,0,0
4249,2024 10 17,09:00:35.398,-0.542019,0.4901,0.499569,0.46524,-1.061556,0.01709,-0.082034,10.742188,-7.507324,-27.34375,0,0
4250,2024 10 17,09:00:35.406,-0.542019,0.4901,0.499569,0.46524,-1.061556,0.01709,-0.082034,13.977051,-7.263184,-33.38623,0,0
4251,2024 10 17,09:00:35.415,-0.544711,0.490597,0.498206,0.463028,-1.056673,0.033692,-0.093753,18.066406,-8.728027,-41.07666,0,0
4252,2024 10 17,09:00:35.423,-0.547905,0.491257,0.496708,0.46016,-1.129917,0.02588,-0.105472,23.620605,-7.141113,-49.865723,0,0
4253,2024 10 17,09:00:35.431,-0.551815,0.492082,0.494925,0.456513,-1.170446,0.044435,-0.082522,30.578613,-8.605957,-62.255859,0,0
4254,2024 10 17,09:00:35.440,-0.556482,0.49313,0.492677,0.452128,-1.207556,0.063478,-0.110355,33.508301,-10.375977,-74.890137,0,0
4255,2024 10 17,09:00:35.448,-0.561814,0.494576,0.48991,0.446932,-1.26371,0.080081,-0.120121,36.071777,-10.864258,-89.111328,0,0
4256,2024 10 17,09:00:35.456,-0.561814,0.494576,0.48991,0.446932,-1.26371,0.080081,-0.120121,36.071777,-10.864258,-89.111328,0,0
4257,2024 10 17,09:00:35.465,-0.567734,0.496462,0.486296,0.441271,-1.303751,0.116703,-0.104007,33.447266,-15.869141,-102.416992,0,0
4258,2024 10 17,09:00:35.473,-0.573833,0.499007,0.481462,0.435778,-1.307169,0.117191,-0.112308,20.690918,-22.644043,-111.938477,0,0
4259,2024 10 17,09:00:35.481,-0.579828,0.502536,0.475606,0.430181,-1.454146,0.149419,-0.159185,10.498047,-20.202637,-125.854492,0,0
4260,2024 10 17,09:00:35.490,-0.586194,0.507123,0.468606,0.423806,-1.51323,0.15186,-0.057619,4.211426,-23.498535,-146.362305,0,0
4261,2024 10 17,09:00:35.498,-0.593052,0.512653,0.459829,0.417173,-1.558641,0.148442,-0.006836,-7.202148,-32.104492,-165.893555,0,0
4262,2024 10 17,09:00:35.506,-0.593052,0.512653,0.459829,0.417173,-1.558641,0.148442,-0.006836,-7.202148,-32.104492,-165.893555,0,0
4263,2024 10 17,09:00:35.515,-0.600295,0.519307,0.449429,0.409853,-1.715873,0.218757,0.005371,-16.662598,-36.010742,-189.453125,0,0
4264,2024 10 17,09:00:35.523,-0.60804,0.527164,0.436504,0.402305,-1.880428,0.245125,-0.041993,-33.447266,-50.842285,-216.61377,0,0
4265,2024 10 17,09:00:35.531,-0.616847,0.536067,0.421147,0.393405,-2.170965,0.32667,-0.003418,-35.27832,-58.837891,-254.882813,0,0
4266,2024 10 17,09:00:35.540,-0.627586,0.545659,0.402971,0.382107,-2.530839,0.394543,0.024415,-26.611328,-73.181152,-305.847168,0,0
4267,2024 10 17,09:00:35.548,-0.641052,0.555444,0.380691,0.36825,-2.913663,0.501968,0.284188,-18.310547,-102.966309,-366.638184,0,0
4268,2024 10 17,09:00:35.556,-0.641052,0.555444,0.380691,0.36825,-2.913663,0.501968,0.284188,-18.310547,-102.966309,-366.638184,0,0
4269,2024 10 17,09:00:35.565,-0.656914,0.565616,0.353009,0.352033,-3.561144,0.508805,0.020508,-20.568848,-136.535645,-434.082031,0,0
4270,2024 10 17,09:00:35.573,-0.674523,0.576154,0.319021,0.333604,-3.753532,0.322275,0.104495,-32.897949,-179.199219,-500.183105,0,0
4271,2024 10 17,09:00:35.581,-0.691911,0.586526,0.2798,0.314575,-3.338969,-0.299326,-0.072268,-45.776367,-210.266113,-528.076172,0,1
4272,2024 10 17,09:00:35.590,-0.70841,0.595141,0.239224,0.294505,-3.051363,-0.583026,-0.062014,-34.790039,-207.275391,-525.085449,0,0
4273,2024 10 17,09:00:35.598,-0.723331,0.601215,0.200107,0.27439,-2.999115,-0.103031,-0.022462,-26.428223,-206.90918,-501.708984,0,0
4274,2024 10 17,09:00:35.606,-0.723331,0.601215,0.200107,0.27439,-2.999115,-0.10303,-0.022462,-26.428223,-206.90918,-501.708984,0,0
4275,2024 10 17,09:00:35.615,-0.737758,0.60434,0.161401,0.253841,-2.616291,0.799829,0.777367,8.361816,-202.331543,-502.441406,0,0
4276,2024 10 17,09:00:35.623,-0.750313,0.606475,0.124987,0.231509,-2.035218,1.197302,0.843287,5.615234,-165.893555,-493.103027,0,0
4277,2024 10 17,09:00:35.631,-0.761118,0.608296,0.092108,0.205408,-1.288614,1.623096,0.846217,14.099121,-95.825195,-498.901367,0,0
4278,2024 10 17,09:00:35.640,-0.770491,0.610119,0.065227,0.172751,-1.055696,1.272988,1.410688,23.742676,14.770508,-507.019043,0,0
4279,2024 10 17,09:00:35.648,-0.780784,0.608601,0.044436,0.13419,0.961455,0.162603,1.141636,98.083496,74.401855,-500.610352,0,0
4280,2024 10 17,09:00:35.656,-0.780784,0.608601,0.044436,0.13419,0.961455,0.162603,1.141636,98.083496,74.401855,-500.610352,0,0
4281,2024 10 17,09:00:35.665,-0.790007,0.601175,0.033577,0.115543,1.773003,2.577227,0.940458,136.169434,25.817871,-144.348145,0,0
4282,2024 10 17,09:00:35.673,-0.791227,0.599288,0.050268,0.110841,-1.209998,1.775445,-0.115238,44.921875,211.181641,127.01416,0,0
4283,2024 10 17,09:00:35.681,-0.789943,0.596776,0.072098,0.121037,-1.347697,1.589892,0.123539,-4.760742,84.594727,269.592285,0,0
4284,2024 10 17,09:00:35.690,-0.784872,0.59626,0.092505,0.141045,-1.439985,1.168981,0.776879,-12.512207,49.194336,329.467773,0,0
4285,2024 10 17,09:00:35.698,-0.778332,0.595727,0.110735,0.16446,-1.061068,0.542985,0.580584,-35.095215,-14.343262,334.655762,0,0
4286,2024 10 17,09:00:35.706,-0.778332,0.595727,0.110735,0.16446,-1.061068,0.542985,0.580584,-35.095215,-14.343262,334.655762,0,0
4287,2024 10 17,09:00:35.715,-0.772105,0.59435,0.125817,0.186474,-0.299326,0.470717,0.649434,-28.381348,0.976563,298.034668,0,0
4288,2024 10 17,09:00:35.723,-0.765729,0.593694,0.142416,0.202247,-0.074221,0.368175,0.684103,-19.897461,56.884766,254.699707,0,0
4289,2024 10 17,09:00:35.731,-0.759219,0.593482,0.16092,0.213239,-0.08887,0.36964,0.634297,-12.878418,110.229492,233.276367,0,0
4290,2024 10 17,09:00:35.740,-0.752057,0.593385,0.182116,0.221671,-0.390149,0.534684,0.50441,-9.216309,145.202637,234.863281,0,0
4291,2024 10 17,09:00:35.748,-0.743785,0.593207,0.205197,0.229747,-0.748558,0.628925,0.355968,-12.573242,162.04834,248.10791,0,0
4292,2024 10 17,09:00:35.756,-0.743785,0.593207,0.205197,0.229747,-0.748558,0.628925,0.355968,-12.573242,162.04834,248.10791,0,0
4293,2024 10 17,09:00:35.765,-0.734273,0.592677,0.228856,0.23917,-0.955107,0.65041,0.262703,-22.277832,153.564453,267.028809,0,0
4294,2024 10 17,09:00:35.773,-0.723433,0.591733,0.252297,0.250686,-1.00882,0.581561,0.201178,-34.423828,140.014648,287.29248,0,0
4295,2024 10 17,09:00:35.781,-0.711255,0.590288,0.275749,0.263891,-1.002472,0.500504,0.20069,-43.395996,133.789063,306.335449,0,0
4296,2024 10 17,09:00:35.790,-0.697703,0.58838,0.299615,0.277939,-0.978057,0.400403,0.18067,-49.01123,136.413574,320.800781,0,0
4297,2024 10 17,09:00:35.798,-0.682841,0.586038,0.324293,0.291756,-1.044465,0.331065,0.157231,-49.987793,150.57373,329.040527,0,0
4298,2024 10 17,09:00:35.806,-0.666833,0.583252,0.349686,0.304747,-1.209021,0.30079,0.145512,-48.400879,163.146973,331.665039,0,0
4299,2024 10 17,09:00:35.815,-0.666833,0.583252,0.349686,0.304747,-1.209021,0.30079,0.145512,-48.400879,163.146973,331.665039,0,0
4300,2024 10 17,09:00:35.823,-0.650054,0.579802,0.375138,0.317067,-1.362346,0.262215,0.115726,-44.86084,166.931152,331.665039,0,0
4301,2024 10 17,09:00:35.831,-0.632823,0.575356,0.400332,0.32899,-1.499557,0.254402,0.086428,-39.855957,164.978027,333.984375,0,0
4302,2024 10 17,09:00:35.840,-0.615117,0.56967,0.425244,0.340991,-1.634815,0.261238,0.037599,-35.888672,159.118652,341.552734,0,0
4303,2024 10 17,09:00:35.848,-0.596924,0.562506,0.449734,0.353564,-1.7022,0.268563,-0.012207,-33.38623,148.925781,352.661133,0,0
4304,2024 10 17,09:00:35.856,-0.578121,0.553964,0.47382,0.366599,-1.775933,0.255379,-0.012696,-32.165527,142.333984,362.731934,0,0
4305,2024 10 17,09:00:35.865,-0.578121,0.553964,0.47382,0.366599,-1.775933,0.255379,-0.012696,-32.165527,142.333984,362.731934,0,0
4306,2024 10 17,09:00:35.873,-0.558528,0.54433,0.497544,0.379738,-1.875057,0.233406,-0.038087,-32.226563,140.258789,370.056152,0,0
4307,2024 10 17,09:00:35.881,-0.538064,0.533832,0.520845,0.392723,-2.022034,0.225593,-0.013672,-33.508301,140.930176,375.427246,0,0
4308,2024 10 17,09:00:35.890,-0.516588,0.522534,0.543716,0.405545,-2.227119,0.185064,0.013184,-35.949707,141.174316,382.263184,0,0
4309,2024 10 17,09:00:35.898,-0.494263,0.510238,0.565957,0.418395,-2.435621,0.079104,0.04883,-38.024902,137.145996,389.770508,0,0
4310,2024 10 17,09:00:35.906,-0.471453,0.496767,0.587281,0.431342,-2.552812,-0.112308,0.120121,-38.757324,128.234863,395.812988,0,0
4311,2024 10 17,09:00:35.915,-0.471453,0.496767,0.587281,0.431342,-2.552812,-0.112308,0.120121,-38.757324,128.234863,395.812988,0,0
4312,2024 10 17,09:00:35.923,-0.448495,0.482171,0.607693,0.443929,-2.551836,-0.469253,0.168462,-34.423828,121.643066,398.193359,0,0
4313,2024 10 17,09:00:35.931,-0.425512,0.466883,0.627331,0.455429,-2.591876,-0.935575,0.190924,-28.015137,122.558594,394.714355,0,0
4314,2024 10 17,09:00:35.940,-0.402674,0.451611,0.645966,0.465434,-2.725669,-1.438032,0.181646,-22.888184,123.840332,381.774902,0,0
4315,2024 10 17,09:00:35.948,-0.38092,0.437014,0.662651,0.474143,-2.692465,-1.893124,0.123539,-23.620605,116.333008,354.675293,0,0
4316,2024 10 17,09:00:35.956,-0.360389,0.424487,0.67676,0.481587,-2.472243,-2.340404,-0.048341,-34.423828,116.210938,312.805176,0,0
4317,2024 10 17,09:00:35.965,-0.360389,0.424487,0.67676,0.481587,-2.472243,-2.340404,-0.048341,-34.423828,116.210938,312.805176,0,0
4318,2024 10 17,09:00:35.973,-0.34095,0.415809,0.68775,0.487704,-2.147038,-2.922941,-0.321299,-54.6875,126.586914,254.455566,0,0
4319,2024 10 17,09:00:35.981,-0.322797,0.412496,0.695406,0.491995,-1.445845,-3.402448,-0.89993,-70.861816,143.432617,179.321289,0,0
4320,2024 10 17,09:00:35.990,-0.30636,0.415482,0.699923,0.493585,-1.486862,-4.692526,-1.424848,-84.533691,175.78125,97.229004,0,0
4321,2024 10 17,09:00:35.998,-0.290934,0.423857,0.703401,0.490845,-2.979095,-5.224769,-1.775445,-55.603027,208.190918,39.733887,0,0
4322,2024 10 17,09:00:36.006,-0.285371,0.430755,0.703651,0.487738,-3.140233,-4.916166,-1.537156,-18.615723,68.603516,-16.113281,0,0
4323,2024 10 17,09:00:36.015,-0.285371,0.430755,0.703651,0.487738,-3.140233,-4.916166,-1.537156,-18.615723,68.603516,-16.113281,0,0
4324,2024 10 17,09:00:36.023,-0.294865,0.430828,0.69934,0.488227,-1.59624,-4.100711,-0.864772,21.850586,-124.267578,-54.077148,0,0
4325,2024 10 17,09:00:36.031,-0.308555,0.442969,0.703447,0.462315,-5.404462,0.918973,-7.232154,369.506836,269.226074,-336.791992,0,0
4326,2024 10 17,09:00:36.040,-0.357394,0.441155,0.677254,0.467951,0.610858,-0.716331,4.904934,109.25293,-652.34375,-359.436035,0,0
4327,2024 10 17,09:00:36.048,-0.38829,0.452561,0.661374,0.454976,-0.349132,2.976165,-3.135838,32.958984,10.009766,-392.272949,0,0
4328,2024 10 17,09:00:36.056,-0.400268,0.476569,0.643656,0.445393,-3.248146,1.013703,2.637776,-5.126953,-35.888672,-392.944336,1,0
4329,2024 10 17,09:00:36.065,-0.400268,0.476569,0.643656,0.445393,-3.248146,1.013703,2.637776,-5.126953,-35.888672,-392.944336,0,0
4330,2024 10 17,09:00:36.073,-0.411778,0.496281,0.616681,0.451497,-2.115299,-1.672903,-2.589923,-262.939453,-194.091797,-299.255371,0,0
4331,2024 10 17,09:00:36.081,-0.427171,0.505782,0.592388,0.459113,-1.473678,-1.6021,0.074709,-107.910156,-163.269043,-214.660645,0,0
4332,2024 10 17,09:00:36.090,-0.439968,0.509065,0.581866,0.456852,-1.618702,-0.12891,-0.288095,47.180176,-121.643066,-135.620117,0,0
4333,2024 10 17,09:00:36.098,-0.451957,0.508165,0.571531,0.45919,-1.084506,0.167974,0.855983,-16.418457,-136.169434,-94.421387,0,0
4334,2024 10 17,09:00:36.106,-0.458088,0.508922,0.561956,0.464068,-1.273965,0.004883,0.336924,-58.837891,-127.319336,-61.645508,0,0
4335,2024 10 17,09:00:36.115,-0.458088,0.508922,0.561956,0.464068,-1.273965,0.004883,0.336924,-58.837891,-127.319336,-61.645508,0,0
4336,2024 10 17,09:00:36.123,-0.465113,0.507736,0.550335,0.472234,-0.941435,-0.34962,-0.062502,-60.48584,-163.391113,-51.452637,0,0
4337,2024 10 17,09:00:36.131,-0.473248,0.504489,0.540729,0.478685,-1.136265,0.209967,0.169927,-25.45166,-157.409668,-40.405273,0,0
4338,2024 10 17,09:00:36.140,-0.479113,0.501522,0.529463,0.488462,-0.921903,0.112796,0.055666,-86.975098,-171.386719,-23.620605,0,0
4339,2024 10 17,09:00:36.148,-0.483051,0.499846,0.518177,0.498305,-0.705588,-0.131352,-0.207526,-87.158203,-143.371582,-23.498535,0,0
4340,2024 10 17,09:00:36.156,-0.486504,0.498467,0.509919,0.504803,-0.2378,-0.356456,-1.013703,-41.137695,-93.139648,-19.348145,0,0
4341,2024 10 17,09:00:36.165,-0.486504,0.498467,0.509919,0.504803,-0.2378,-0.356456,-1.013703,-41.137695,-93.139648,-19.348145,0,0
4342,2024 10 17,09:00:36.173,-0.48777,0.497632,0.507321,0.507019,-1.003449,0.135258,0.209967,-21.484375,-20.446777,1.464844,0,0
4343,2024 10 17,09:00:36.181,-0.488235,0.497356,0.505447,0.508711,-0.89993,0.113285,-0.225105,-7.141113,-31.738281,-6.04248,0,0
4344,2024 10 17,09:00:36.190,-0.489186,0.496815,0.503747,0.510012,-0.819849,0.000977,-0.097659,-10.192871,-15.930176,-4.333496,0,0
4345,2024 10 17,09:00:36.198,-0.489891,0.496838,0.503312,0.509741,-0.970244,0.118168,-0.067385,4.577637,-4.699707,-9.94873,0,0
4346,2024 10 17,09:00:36.206,-0.491002,0.496927,0.502843,0.509048,-0.991729,0.079592,-0.024415,10.070801,-2.990723,-15.50293,0,0
4347,2024 10 17,09:00:36.215,-0.492587,0.49699,0.502482,0.50781,-0.951201,0.069826,-0.076174,14.221191,-4.211426,-20.446777,0,0
4348,2024 10 17,09:00:36.223,-0.492587,0.49699,0.502482,0.50781,-0.951201,0.069826,-0.076174,14.221191,-4.211426,-20.446777,0,0
4349,2024 10 17,09:00:36.231,-0.494347,0.497174,0.502207,0.506189,-0.958037,0.113773,-0.066408,16.296387,0.976563,-22.705078,0,0
4350,2024 10 17,09:00:36.240,-0.495874,0.497632,0.501806,0.504641,-0.983917,0.092776,-0.02588,11.779785,0.183105,-23.071289,0,0
4351,2024 10 17,09:00:36.248,-0.497258,0.498163,0.501152,0.503404,-0.936552,0.080569,-0.095706,5.79834,-1.586914,-21.66748,0,0
4352,2024 10 17,09:00:36.256,-0.49834,0.498748,0.500394,0.502507,-0.932646,0.076662,-0.074221,3.356934,-1.220703,-18.554688,0,0
4353,2024 10 17,09:00:36.265,-0.499087,0.499343,0.499604,0.501961,-0.938017,0.074709,-0.083987,-1.525879,-2.075195,-14.831543,0,0
4354,2024 10 17,09:00:36.273,-0.499087,0.499343,0.499604,0.501961,-0.938017,0.074709,-0.083987,-1.525879,-2.075195,-14.831543,0,0
4355,2024 10 17,09:00:36.281,-0.499652,0.499958,0.498764,0.501622,-0.931669,0.068361,-0.079592,-3.540039,-2.01416,-13.427734,0,0
4356,2024 10 17,09:00:36.290,-0.500109,0.500564,0.497945,0.501375,-0.964873,0.049318,-0.028809,-3.662109,-2.01416,-12.268066,0,0
4357,2024 10 17,09:00:36.298,-0.500627,0.501037,0.497083,0.501242,-0.951689,0.041993,-0.039064,-3.967285,-4.943848,-11.413574,0,0
4358,2024 10 17,09:00:36.306,-0.501245,0.501349,0.496166,0.50122,-0.941923,0.048341,-0.072268,-3.295898,-6.958008,-10.864258,0,0
4359,2024 10 17,09:00:36.315,-0.501929,0.501589,0.495144,0.501306,-0.917997,0.066897,-0.087405,-4.211426,-8.422852,-11.169434,0,0
4360,2024 10 17,09:00:36.323,-0.501929,0.501589,0.495144,0.501306,-0.917997,0.066897,-0.087405,-4.211426,-8.422852,-11.169434,0,0
4361,2024 10 17,09:00:36.331,-0.502459,0.502017,0.494075,0.501402,-0.936064,0.058596,-0.102542,-6.591797,-5.981445,-11.535645,0,0
4362,2024 10 17,09:00:36.340,-0.502855,0.502622,0.492955,0.501501,-0.936552,0.070803,-0.096194,-8.789063,-4.943848,-12.084961,0,0
4363,2024 10 17,09:00:36.348,-0.503089,0.503499,0.491819,0.501503,-0.971221,0.047365,-0.078616,-11.352539,-1.953125,-13.427734,0,0
4364,2024 10 17,09:00:36.356,-0.503432,0.504464,0.490645,0.501337,-0.993683,0.051759,-0.06885,-9.338379,-2.075195,-16.174316,0,0
4365,2024 10 17,09:00:36.365,-0.504064,0.505404,0.489326,0.501045,-0.955107,0.02588,-0.080081,-7.263184,-4.516602,-19.226074,0,0
4366,2024 10 17,09:00:36.373,-0.504064,0.505404,0.489326,0.501045,-0.955107,0.02588,-0.080081,-7.263184,-4.516602,-19.226074,0,0
4367,2024 10 17,09:00:36.381,-0.504927,0.506291,0.488066,0.50051,-0.953154,0.034669,-0.092288,-4.211426,-2.990723,-20.568848,0,0
4368,2024 10 17,09:00:36.390,-0.50591,0.507199,0.486961,0.499673,-0.941923,0.045412,-0.126957,-0.915527,-1.831055,-22.705078,0,0
4369,2024 10 17,09:00:36.398,-0.507025,0.508046,0.4859,0.498714,-0.934599,0.008301,-0.085452,1.220703,-0.305176,-23.681641,0,0
4370,2024 10 17,09:00:36.406,-0.508246,0.50893,0.485019,0.497426,-0.954619,0.04297,-0.110355,5.981445,1.647949,-25.32959,0,0
4371,2024 10 17,09:00:36.415,-0.509673,0.509724,0.484061,0.496085,-0.959502,0.010743,-0.097659,6.225586,-1.220703,-26.794434,0,0
4372,2024 10 17,09:00:36.423,-0.509673,0.509724,0.484061,0.496085,-0.959502,0.010743,-0.097659,6.225586,-1.220703,-26.794434,0,0
4373,2024 10 17,09:00:36.431,-0.511332,0.510487,0.483185,0.494443,-0.980499,0.020508,-0.063478,9.094238,0.12207,-28.930664,0,0
4374,2024 10 17,09:00:36.440,-0.513191,0.511272,0.482223,0.492642,-1.003937,0.037111,-0.070315,12.512207,-0.793457,-32.470703,0,0
4375,2024 10 17,09:00:36.448,-0.515405,0.51205,0.48116,0.490558,-1.015168,0.010743,-0.090335,14.526367,-1.220703,-37.17041,0,0
4376,2024 10 17,09:00:36.456,-0.518005,0.512931,0.479994,0.488034,-1.0347,0.007324,-0.075198,16.967773,-1.525879,-42.96875,0,0
4377,2024 10 17,09:00:36.465,-0.521033,0.513944,0.478724,0.484984,-1.074252,0.04297,-0.081057,22.583008,-0.0,-50.292969,0,0
4378,2024 10 17,09:00:36.473,-0.521033,0.513944,0.478724,0.484984,-1.074252,0.04297,-0.081057,22.583008,-0.0,-50.292969,0,0
4379,2024 10 17,09:00:36.481,-0.524576,0.51516,0.477178,0.481386,-1.140172,0.052248,-0.096194,26.550293,0.12207,-60.60791,0,0
4380,2024 10 17,09:00:36.490,-0.528789,0.516696,0.475303,0.476965,-1.230018,0.075198,-0.081057,29.846191,0.610352,-73.425293,0,0
4381,2024 10 17,09:00:36.498,-0.533764,0.518694,0.472789,0.471724,-1.351604,0.106449,-0.109867,33.02002,-0.183105,-90.515137,0,0
4382,2024 10 17,09:00:36.506,-0.539806,0.521097,0.469293,0.465651,-1.328654,0.104007,-0.046388,35.217285,-6.713867,-109.25293,0,0
4383,2024 10 17,09:00:36.515,-0.546385,0.52398,0.46463,0.459377,-1.24662,0.112308,-0.06006,27.893066,-12.084961,-121.520996,0,0
4384,2024 10 17,09:00:36.523,-0.546385,0.52398,0.46463,0.459377,-1.24662,0.112308,-0.06006,27.893066,-12.084961,-121.520996,0,0
4385,2024 10 17,09:00:36.531,-0.552754,0.527637,0.458953,0.453239,-1.324747,0.124516,-0.135258,14.404297,-13.061523,-129.394531,0,0
4386,2024 10 17,09:00:36.540,-0.559189,0.532272,0.452273,0.44659,-1.435102,0.167486,-0.113285,8.361816,-11.047363,-147.155762,0,0
4387,2024 10 17,09:00:36.548,-0.566,0.537901,0.444081,0.439429,-1.511765,0.154302,-0.029786,-1.647949,-16.723633,-167.480469,0,0
4388,2024 10 17,09:00:36.556,-0.573349,0.544407,0.434071,0.431826,-1.641652,0.159185,0.074709,-11.901855,-25.634766,-189.27002,0,0
4389,2024 10 17,09:00:36.565,-0.581381,0.551792,0.421756,0.423844,-1.807184,0.238289,0.098636,-21.911621,-38.574219,-216.308594,0,0
4390,2024 10 17,09:00:36.573,-0.581381,0.551792,0.421756,0.423844,-1.807184,0.238289,0.098636,-21.911621,-38.574219,-216.308594,0,0
4391,2024 10 17,09:00:36.581,-0.59028,0.560293,0.406795,0.41492,-2.084536,0.283212,-0.018067,-30.822754,-47.241211,-252.319336,0,0
4392,2024 10 17,09:00:36.590,-0.601082,0.569461,0.389172,0.403683,-2.55623,0.440931,0.024415,-21.66748,-56.82373,-302.734375,0,0
4393,2024 10 17,09:00:36.598,-0.614551,0.579122,0.367556,0.389675,-2.894619,0.574236,0.107425,-15.258789,-81.665039,-367.492676,0,0
4394,2024 10 17,09:00:36.606,-0.630033,0.589716,0.340813,0.373016,-3.472274,0.572283,-0.17188,-22.399902,-99.54834,-436.706543,0,0
4395,2024 10 17,09:00:36.615,-0.647152,0.601059,0.308108,0.353542,-3.497177,0.506851,-0.038575,-36.621094,-136.84082,-507.324219,0,0
4396,2024 10 17,09:00:36.623,-0.663327,0.613023,0.269956,0.333653,-3.233009,-0.196295,-0.375988,-67.260742,-155.517578,-536.865234,0,0
4397,2024 10 17,09:00:36.631,-0.663327,0.613023,0.269956,0.333653,-3.233009,-0.196295,-0.375988,-67.260742,-155.517578,-536.865234,0,0
4398,2024 10 17,09:00:36.640,-0.678816,0.623732,0.230109,0.311795,-2.655843,-0.646504,-0.136723,-54.931641,-156.433105,-548.706055,0,1
4399,2024 10 17,09:00:36.648,-0.692497,0.632557,0.192608,0.288482,-3.336528,-0.178716,-0.260262,-42.541504,-122.741699,-524.169922,0,0
4400,2024 10 17,09:00:36.656,-0.704904,0.638919,0.15572,0.265788,-3.077731,0.488296,0.383801,-27.648926,-144.592285,-515.50293,0,0
4401,2024 10 17,09:00:36.665,-0.716063,0.643234,0.119937,0.243143,-2.393139,1.192907,0.46437,-18.310547,-124.023438,-496.948242,0,0
4402,2024 10 17,09:00:36.673,-0.725568,0.646881,0.087072,0.217977,-1.562059,1.672903,0.976592,-13.061523,-77.514648,-494.384766,0,0
4403,2024 10 17,09:00:36.681,-0.725568,0.646881,0.087072,0.217977,-1.562059,1.672903,0.976592,-13.061523,-77.514648,-494.384766,0,0
4404,2024 10 17,09:00:36.690,-0.733884,0.650069,0.058836,0.18805,-1.014679,0.918485,1.047884,4.516602,4.699707,-493.103027,0,0
4405,2024 10 17,09:00:36.698,-0.744973,0.647895,0.035013,0.154984,0.923856,0.439955,1.437544,101.074219,35.217285,-462.524414,0,0
4406,2024 10 17,09:00:36.706,-0.75458,0.641609,0.024428,0.135461,1.030793,2.182684,1.09769,102.966309,53.283691,-171.691895,0,0
4407,2024 10 17,09:00:36.715,-0.755887,0.641129,0.033861,0.128227,-1.204627,1.924863,-0.418958,40.222168,148.071289,46.264648,0,0
4408,2024 10 17,09:00:36.723,-0.755479,0.63959,0.048847,0.133384,-1.213416,1.818903,0.194342,0.0,64.025879,182.128906,0,0
4409,2024 10 17,09:00:36.731,-0.755479,0.63959,0.048847,0.133384,-1.213416,1.818903,0.194342,0.0,64.025879,182.128906,0,0
4410,2024 10 17,09:00:36.740,-0.750222,0.640678,0.064666,0.150058,-1.193884,1.393597,0.409192,-39.611816,5.67627,279.541016,0,0
4411,2024 10 17,09:00:36.748,-0.742626,0.641984,0.07987,0.173161,-1.019074,0.774926,0.621113,-57.312012,-44.98291,321.228027,0,0
4412,2024 10 17,09:00:36.756,-0.734846,0.641906,0.093963,0.19781,-0.251961,0.598651,0.665548,-48.156738,-53.833008,322.387695,0,0
4413,2024 10 17,09:00:36.765,-0.726852,0.641764,0.109885,0.218519,0.095218,0.469253,0.649434,-36.743164,6.103516,302.062988,0,0
4414,2024 10 17,09:00:36.773,-0.718956,0.641737,0.129113,0.233677,-0.042482,0.402356,0.727073,-22.155762,72.509766,282.897949,0,0
4415,2024 10 17,09:00:36.781,-0.718956,0.641737,0.129113,0.233677,-0.042482,0.402356,0.727073,-22.155762,72.509766,282.897949,0,0
4416,2024 10 17,09:00:36.790,-0.711058,0.641445,0.151352,0.245026,-0.328135,0.503433,0.500015,-7.080078,118.896484,276.367188,0,0
4417,2024 10 17,09:00:36.798,-0.702837,0.640488,0.175533,0.254919,-0.731468,0.577166,0.365734,1.586914,137.023926,281.799316,0,0
4418,2024 10 17,09:00:36.806,-0.694091,0.638407,0.200112,0.265762,-0.999542,0.548845,0.210944,4.150391,123.22998,296.081543,0,0
4419,2024 10 17,09:00:36.815,-0.684988,0.634716,0.224041,0.278805,-1.055696,0.45558,0.152348,6.408691,96.862793,313.476563,0,0
4420,2024 10 17,09:00:36.823,-0.675511,0.629443,0.247439,0.293701,-0.95706,0.292489,0.17188,10.803223,78.063965,329.162598,0,0
4421,2024 10 17,09:00:36.831,-0.675511,0.629443,0.247439,0.293701,-0.95706,0.292489,0.17188,10.803223,78.063965,329.162598,0,0
4422,2024 10 17,09:00:36.840,-0.665635,0.62278,0.271313,0.308972,-0.834498,0.1919,0.178228,20.507813,81.665039,341.003418,0,0
4423,2024 10 17,09:00:36.848,-0.655083,0.615109,0.2966,0.323321,-0.853542,0.150884,0.182134,31.555176,100.219727,349.67041,0,0
4424,2024 10 17,09:00:36.856,-0.643662,0.606667,0.323386,0.336267,-1.036653,0.182134,0.147465,40.83252,121.09375,354.431152,0,0
4425,2024 10 17,09:00:36.865,-0.631404,0.597524,0.350916,0.34807,-1.234901,0.232429,0.108402,45.959473,132.751465,355.651855,0,0
4426,2024 10 17,09:00:36.873,-0.618364,0.587739,0.378525,0.359036,-1.377972,0.281747,0.049318,48.034668,138.61084,355.163574,0,0
4427,2024 10 17,09:00:36.881,-0.618364,0.587739,0.378525,0.359036,-1.377972,0.281747,0.049318,48.034668,138.61084,355.163574,0,0
4428,2024 10 17,09:00:36.890,-0.604399,0.577459,0.405842,0.369508,-1.497604,0.325205,0.000977,44.616699,141.845703,355.957031,0,0
4429,2024 10 17,09:00:36.898,-0.589203,0.566801,0.432781,0.379838,-1.597217,0.362316,-0.045412,36.743164,144.40918,360.534668,0,0
4430,2024 10 17,09:00:36.906,-0.572535,0.55577,0.459234,0.390419,-1.710013,0.360851,-0.059572,25.695801,145.507813,367.858887,0,0
4431,2024 10 17,09:00:36.915,-0.554275,0.544431,0.485037,0.401389,-1.903867,0.321787,-0.04004,12.451172,145.324707,375.183105,0,0
4432,2024 10 17,09:00:36.923,-0.534733,0.532684,0.509844,0.412756,-2.091372,0.2378,-0.044923,0.610352,141.357422,379.638672,0,0
4433,2024 10 17,09:00:36.931,-0.534733,0.532684,0.509844,0.412756,-2.091372,0.2378,-0.044923,0.610352,141.357422,379.638672,0,0
4434,2024 10 17,09:00:36.940,-0.514155,0.52045,0.533509,0.424435,-2.277413,0.183111,0.00586,-9.58252,135.925293,383.117676,0,0
4435,2024 10 17,09:00:36.948,-0.492696,0.507652,0.555875,0.436513,-2.37849,0.117679,0.043947,-20.629883,128.662109,386.657715,0,0
4436,2024 10 17,09:00:36.956,-0.470191,0.494363,0.576944,0.449068,-2.403394,-0.151372,-0.078127,-33.813477,123.535156,391.723633,0,0
4437,2024 10 17,09:00:36.965,-0.446617,0.480828,0.596855,0.46163,-2.552324,-0.683615,-0.108402,-43.579102,126.342773,394.042969,0,0
4438,2024 10 17,09:00:36.973,-0.422787,0.467358,0.615294,0.473541,-2.671957,-1.2266,-0.198737,-47.790527,121.459961,383.544922,0,0
4439,2024 10 17,09:00:36.981,-0.422787,0.467358,0.615294,0.473541,-2.671957,-1.2266,-0.198737,-47.790527,121.459961,383.544922,0,0
4440,2024 10 17,09:00:36.990,-0.400136,0.454279,0.631686,0.484247,-2.641194,-1.717826,-0.303232,-44.494629,113.40332,357.543945,0,0
4441,2024 10 17,09:00:36.998,-0.379362,0.442228,0.646052,0.493088,-2.526932,-2.082583,-0.338878,-37.109375,106.567383,321.655273,0,0
4442,2024 10 17,09:00:37.006,-0.3606,0.431669,0.658427,0.500104,-2.367748,-2.553301,-0.532731,-32.165527,101.013184,282.653809,0,0
4443,2024 10 17,09:00:37.015,-0.34422,0.422916,0.668615,0.505577,-2.254952,-3.288675,-0.754418,-29.663086,92.224121,239.685059,0,0
4444,2024 10 17,09:00:37.023,-0.331395,0.416397,0.67609,0.509601,-1.871151,-4.010865,-1.153355,-26.550293,72.143555,182.128906,0,0
4445,2024 10 17,09:00:37.031,-0.322305,0.413265,0.680911,0.511559,-1.856014,-4.710104,-1.554735,-18.859863,70.861816,114.990234,0,0
4446,2024 10 17,09:00:37.040,-0.322305,0.413265,0.680911,0.511559,-1.856014,-4.710104,-1.554735,-18.859863,70.861816,114.990234,0,0
4447,2024 10 17,09:00:37.048,-0.317992,0.413048,0.683304,0.511241,-2.153874,-4.833643,-1.584033,-2.01416,42.175293,46.75293,0,0
4448,2024 10 17,09:00:37.056,-0.321102,0.41356,0.682668,0.509731,-4.242805,-3.185644,-1.414594,26.184082,-22.155762,-20.080566,0,0
4449,2024 10 17,09:00:37.065,-0.336267,0.428245,0.67962,0.491577,-3.047945,-4.041139,-3.816034,74.523926,-57.434082,-287.841797,0,0
4450,2024 10 17,09:00:37.073,-0.380135,0.431874,0.657248,0.486833,1.699271,-0.65041,1.341838,92.895508,-424.438477,-384.58252,0,0
4451,2024 10 17,09:00:37.081,-0.405176,0.447177,0.646213,0.467199,-1.145543,3.159764,-1.262734,81.726074,73.425293,-399.047852,1,0
4452,2024 10 17,09:00:37.090,-0.405176,0.447177,0.646213,0.467199,-1.145543,3.159764,-1.262734,81.726074,73.425293,-399.047852,0,0
4453,2024 10 17,09:00:37.098,-0.416145,0.471712,0.628287,0.457784,-3.459578,-0.127934,1.287149,-97.106934,-34.362793,-381.713867,0,0
4454,2024 10 17,09:00:37.106,-0.432224,0.488757,0.60159,0.460856,-2.393628,-1.028352,-1.328165,-182.861328,-216.186523,-314.208984,0,0
4455,2024 10 17,09:00:37.115,-0.449094,0.496844,0.576661,0.467893,-1.504929,-1.766167,-0.124516,-87.280273,-194.396973,-217.407227,0,0
4456,2024 10 17,09:00:37.123,-0.462735,0.498305,0.565728,0.46639,-1.542528,0.1919,0.01709,21.54541,-135.009766,-126.220703,0,0
4457,2024 10 17,09:00:37.131,-0.472214,0.497725,0.553492,0.472154,-0.999542,-0.070803,0.450697,-49.316406,-158.203125,-75.317383,0,0
4458,2024 10 17,09:00:37.140,-0.472214,0.497725,0.553492,0.472154,-0.999542,-0.070803,0.450697,-49.316406,-158.203125,-75.317383,0,0
4459,2024 10 17,09:00:37.148,-0.477792,0.497538,0.542659,0.479262,-1.127476,-0.083987,-0.153325,-89.904785,-139.221191,-46.142578,0,0
4460,2024 10 17,09:00:37.156,-0.483013,0.496287,0.530493,0.48885,-0.833522,-0.156743,0.041017,-80.01709,-157.226563,-35.522461,0,0
4461,2024 10 17,09:00:37.165,-0.487435,0.494502,0.520971,0.496451,-0.880398,0.031251,-0.090823,-59.936523,-128.051758,-22.521973,0,0
4462,2024 10 17,09:00:37.173,-0.490084,0.49312,0.512715,0.50376,-0.464858,-0.338389,-0.708029,-68.054199,-100.158691,-10.070801,0,0
4463,2024 10 17,09:00:37.181,-0.492381,0.491791,0.508954,0.506624,-0.790551,0.250008,-0.031251,-5.615234,-40.039063,-7.141113,0,0
4464,2024 10 17,09:00:37.190,-0.492381,0.491791,0.508954,0.506624,-0.790551,0.250008,-0.031251,-5.615234,-40.039063,-7.141113,0,0
4465,2024 10 17,09:00:37.198,-0.492554,0.491665,0.50674,0.508793,-0.990753,-0.049318,-0.132817,-22.766113,-28.320313,-2.258301,0,0
4466,2024 10 17,09:00:37.206,-0.494005,0.490914,0.504818,0.51002,-0.796899,0.077151,-0.147465,-7.080078,-25.20752,-8.056641,0,0
4467,2024 10 17,09:00:37.215,-0.494724,0.490997,0.503943,0.51011,-0.959502,0.10596,-0.088382,1.831055,-5.432129,-10.498047,0,0
4468,2024 10 17,09:00:37.223,-0.495805,0.491123,0.50332,0.509554,-0.946806,0.061037,-0.038575,6.164551,-5.065918,-15.197754,0,0
4469,2024 10 17,09:00:37.231,-0.497205,0.491322,0.502948,0.508363,-0.910184,0.104007,-0.119633,12.084961,-1.525879,-19.226074,0,0
4470,2024 10 17,09:00:37.240,-0.497205,0.491322,0.502948,0.508363,-0.910184,0.104007,-0.119633,12.084961,-1.525879,-19.226074,0,0
4471,2024 10 17,09:00:37.248,-0.498575,0.491739,0.502732,0.506828,-0.958037,0.059084,-0.046876,14.587402,4.516602,-21.057129,0,0
4472,2024 10 17,09:00:37.256,-0.49989,0.49226,0.502713,0.505045,-0.979522,0.082522,-0.062014,12.145996,5.065918,-21.240234,0,0
4473,2024 10 17,09:00:37.265,-0.501184,0.49282,0.502446,0.50348,-0.9888,0.104007,-0.00293,11.901855,3.295898,-21.484375,0,0
4474,2024 10 17,09:00:37.273,-0.502346,0.493354,0.501924,0.502317,-0.941435,0.07178,-0.083987,6.04248,-1.342773,-19.348145,0,0
4475,2024 10 17,09:00:37.281,-0.503312,0.493871,0.50124,0.501525,-0.937529,0.11475,-0.099612,2.197266,-1.037598,-16.845703,0,0
4476,2024 10 17,09:00:37.290,-0.503312,0.493871,0.50124,0.501525,-0.937529,0.11475,-0.099612,2.197266,-1.037598,-16.845703,0,0
4477,2024 10 17,09:00:37.298,-0.503853,0.494661,0.500371,0.50107,-0.920927,0.061037,-0.06006,-5.371094,-0.671387,-15.014648,0,0
4478,2024 10 17,09:00:37.306,-0.504176,0.495505,0.49953,0.50075,-0.96292,0.059572,-0.060549,-6.408691,0.549316,-13.183594,0,0
4479,2024 10 17,09:00:37.315,-0.50456,0.496216,0.498599,0.500587,-0.958037,0.050295,-0.016114,-6.04248,-3.356934,-12.634277,0,0
4480,2024 10 17,09:00:37.323,-0.505098,0.496734,0.4976,0.500525,-0.951689,0.055666,-0.047853,-4.760742,-6.04248,-12.390137,0,0
4481,2024 10 17,09:00:37.331,-0.505748,0.497137,0.496435,0.500626,-0.945341,0.086428,-0.104007,-6.347656,-8.666992,-12.512207,0,0
4482,2024 10 17,09:00:37.340,-0.505748,0.497137,0.496435,0.500626,-0.945341,0.086428,-0.104007,-6.347656,-8.666992,-12.512207,0,0
4483,2024 10 17,09:00:37.348,-0.506233,0.497774,0.49514,0.500785,-0.900906,0.058596,-0.111332,-10.742188,-5.981445,-13.427734,0,0
4484,2024 10 17,09:00:37.356,-0.506442,0.498758,0.493959,0.500761,-0.929228,0.079592,-0.114261,-11.535645,-0.366211,-14.343262,0,0
4485,2024 10 17,09:00:37.365,-0.506502,0.499964,0.492707,0.50073,-0.939482,0.052736,-0.080081,-13.671875,0.610352,-15.014648,0,0
4486,2024 10 17,09:00:37.373,-0.506538,0.501383,0.491567,0.500395,-0.9888,0.041505,-0.061525,-11.962891,4.455566,-17.883301,0,0
4487,2024 10 17,09:00:37.381,-0.506937,0.502738,0.490364,0.499812,-0.966826,0.027345,-0.054201,-8.422852,1.159668,-21.179199,0,0
4488,2024 10 17,09:00:37.390,-0.506937,0.502738,0.490364,0.499812,-0.966826,0.027345,-0.054201,-8.422852,1.159668,-21.179199,0,0
4489,2024 10 17,09:00:37.398,-0.507627,0.504059,0.489244,0.498879,-0.978057,0.051759,-0.106937,-3.90625,3.78418,-24.353027,0,0
4490,2024 10 17,09:00:37.406,-0.508558,0.505318,0.488051,0.497823,-0.94583,0.031251,-0.065432,-2.441406,0.854492,-25.939941,0,0
4491,2024 10 17,09:00:37.415,-0.509528,0.506589,0.486999,0.49657,-0.964385,0.02588,-0.102542,-0.305176,4.516602,-26.611328,0,0
4492,2024 10 17,09:00:37.423,-0.510699,0.507761,0.485986,0.49516,-0.94583,0.016114,-0.070803,2.624512,1.708984,-27.893066,0,0
4493,2024 10 17,09:00:37.431,-0.511985,0.508839,0.484995,0.493695,-0.953642,0.010254,-0.067385,4.333496,2.685547,-27.954102,0,0
4494,2024 10 17,09:00:37.440,-0.513474,0.509795,0.484044,0.492092,-0.963408,-0.004395,-0.051271,7.202148,0.244141,-29.23584,0,0
4495,2024 10 17,09:00:37.448,-0.513474,0.509795,0.484044,0.492092,-0.963408,-0.004395,-0.051271,7.202148,0.244141,-29.23584,0,0
4496,2024 10 17,09:00:37.456,-0.515281,0.510569,0.48309,0.490335,-0.962432,-0.008789,-0.062502,11.169434,-0.671387,-31.066895,0,0
4497,2024 10 17,09:00:37.465,-0.517336,0.5113,0.482209,0.488272,-0.999542,0.04004,-0.103519,14.831543,0.244141,-34.118652,0,0
4498,2024 10 17,09:00:37.473,-0.519615,0.512119,0.481122,0.486062,-1.014191,0.023927,-0.058107,15.319824,-0.915527,-38.391113,0,0
4499,2024 10 17,09:00:37.481,-0.522075,0.513166,0.479989,0.483434,-1.063021,0.008301,-0.083499,16.235352,1.586914,-43.701172,0,0
4500,2024 10 17,09:00:37.490,-0.525028,0.514311,0.478673,0.480314,-1.06888,0.015137,-0.058107,21.240234,0.366211,-51.391602,0,0
4501,2024 10 17,09:00:37.498,-0.525028,0.514311,0.478673,0.480314,-1.06888,0.015137,-0.058107,21.240234,0.366211,-51.391602,0,0
4502,2024 10 17,09:00:37.506,-0.5285,0.515529,0.47705,0.476802,-1.106967,0.024903,-0.049806,24.719238,-1.098633,-59.082031,0,0
4503,2024 10 17,09:00:37.515,-0.532523,0.51697,0.475138,0.472657,-1.1807,0.038575,-0.069338,27.709961,-1.342773,-69.824219,0,0
4504,2024 10 17,09:00:37.523,-0.537097,0.518615,0.472608,0.468195,-1.199744,0.06885,-0.032228,26.245117,-6.469727,-78.796387,0,0
4505,2024 10 17,09:00:37.531,-0.541795,0.520744,0.469216,0.463811,-1.274453,0.122562,-0.116703,18.554688,-8.850098,-87.280273,0,0
4506,2024 10 17,09:00:37.540,-0.546654,0.523762,0.464969,0.458963,-1.368206,0.119633,-0.092288,13.549805,-6.164551,-103.637695,0,0
4507,2024 10 17,09:00:37.548,-0.546654,0.523762,0.464969,0.458963,-1.368206,0.119633,-0.092288,13.549805,-6.164551,-103.637695,0,0
4508,2024 10 17,09:00:37.556,-0.552124,0.527626,0.459653,0.453309,-1.422407,0.135258,-0.089846,9.399414,-9.033203,-123.10791,0,0
4509,2024 10 17,09:00:37.565,-0.55818,0.532312,0.45295,0.447119,-1.458052,0.118656,-0.035157,2.258301,-13.183594,-142.76123,0,0
4510,2024 10 17,09:00:37.573,-0.56487,0.537887,0.444804,0.440168,-1.564013,0.138676,0.02588,-1.586914,-17.272949,-165.466309,0,0
4511,2024 10 17,09:00:37.581,-0.572454,0.544252,0.434669,0.432607,-1.702689,0.16895,0.051759,-8.850098,-28.808594,-191.650391,0,0
4512,2024 10 17,09:00:37.590,-0.581146,0.551359,0.422168,0.424319,-1.801324,0.209967,0.117679,-14.892578,-42.663574,-222.045898,0,0
4513,2024 10 17,09:00:37.598,-0.581146,0.551359,0.422168,0.424319,-1.801324,0.209967,0.117679,-14.892578,-42.663574,-222.045898,0,0
4514,2024 10 17,09:00:37.606,-0.591098,0.559318,0.407198,0.414676,-2.114811,0.311533,-0.026856,-14.770508,-49.682617,-260.375977,0,0
4515,2024 10 17,09:00:37.615,-0.602991,0.568041,0.389593,0.402428,-2.566973,0.524918,0.035646,-7.995605,-57.678223,-313.171387,0,0
4516,2024 10 17,09:00:37.623,-0.617114,0.577633,0.367652,0.387739,-2.987884,0.557634,0.077639,-10.375977,-82.885742,-377.502441,0,0
4517,2024 10 17,09:00:37.631,-0.633455,0.588106,0.340494,0.370041,-3.58214,0.564959,-0.066408,-12.756348,-103.69873,-450.744629,0,0
4518,2024 10 17,09:00:37.640,-0.651407,0.599186,0.3071,0.349764,-3.598254,0.542497,-0.062014,-28.320313,-141.052246,-519.714355,0,0
4519,2024 10 17,09:00:37.648,-0.651407,0.599186,0.3071,0.349764,-3.598254,0.542497,-0.062014,-28.320313,-141.052246,-519.714355,0,0
4520,2024 10 17,09:00:37.656,-0.668232,0.610985,0.268694,0.328582,-3.483016,-0.189947,-0.320811,-57.495117,-155.822754,-551.940918,0,0
4521,2024 10 17,09:00:37.665,-0.684364,0.621453,0.22811,0.305625,-2.936125,-0.496109,-0.10303,-45.593262,-160.705566,-564.27002,0,1
4522,2024 10 17,09:00:37.673,-0.698694,0.630022,0.189176,0.281267,-3.528428,-0.099612,-0.142094,-39.123535,-133.789063,-548.095703,0,0
4523,2024 10 17,09:00:37.681,-0.711768,0.636069,0.151124,0.256834,-3.453719,0.525895,0.400891,-19.104004,-145.935059,-539.123535,0,0
4524,2024 10 17,09:00:37.690,-0.723511,0.639853,0.114366,0.232464,-2.687582,1.341349,0.392102,-8.178711,-126.403809,-520.629883,0,0
4525,2024 10 17,09:00:37.698,-0.723511,0.639853,0.114366,0.232464,-2.687582,1.341349,0.392102,-8.178711,-126.403809,-520.629883,0,0
4526,2024 10 17,09:00:37.706,-0.733501,0.642535,0.081161,0.206248,-1.814508,1.740288,1.086459,5.432129,-78.857422,-500.244141,0,0
4527,2024 10 17,09:00:37.715,-0.743285,0.642215,0.054366,0.179253,-0.423841,0.725608,1.641652,60.36377,-34.362793,-439.27002,0,0
4528,2024 10 17,09:00:37.723,-0.757579,0.630923,0.037699,0.163062,2.524003,1.191443,2.775964,220.581055,-73.425293,-196.350098,0,0
4529,2024 10 17,09:00:37.731,-0.763277,0.622046,0.044159,0.168873,-0.132328,1.444868,-0.637226,78.491211,46.630859,176.391602,0,0
4530,2024 10 17,09:00:37.740,-0.769589,0.609331,0.066528,0.178948,-1.565966,2.299875,1.128452,225.463867,78.186035,243.835449,0,0
4531,2024 10 17,09:00:37.748,-0.769589,0.609331,0.066528,0.178948,-1.565966,2.299875,1.128452,225.463867,78.186035,243.835449,0,0
4532,2024 10 17,09:00:37.756,-0.773108,0.597531,0.08664,0.194303,-0.854518,1.496139,0.432142,158.996582,41.137695,270.080566,0,0
4533,2024 10 17,09:00:37.765,-0.77544,0.586326,0.105502,0.209247,-0.444838,1.518601,0.478042,123.22998,29.418945,257.324219,0,0
4534,2024 10 17,09:00:37.773,-0.775309,0.578038,0.122744,0.222942,-0.34376,1.351115,0.368664,88.317871,46.447754,238.525391,0,0
4535,2024 10 17,09:00:37.781,-0.772883,0.572499,0.139496,0.235451,-0.141118,1.273965,0.433607,49.194336,56.762695,229.980469,0,0
4536,2024 10 17,09:00:37.790,-0.767946,0.569664,0.157202,0.247043,-0.150395,1.211463,0.283212,11.901855,88.256836,234.863281,0,0
4537,2024 10 17,09:00:37.798,-0.76021,0.569383,0.176542,0.258296,-0.377453,1.11185,0.311533,11.901855,88.256836,234.863281,0,0
4538,2024 10 17,09:00:37.806,-0.76021,0.569383,0.176542,0.258296,-0.377453,1.11185,0.311533,-22.521973,116.027832,246.582031,0,0
4539,2024 10 17,09:00:37.815,-0.749861,0.571045,0.197614,0.26938,-0.569353,1.029817,0.202643,-48.88916,141.479492,259.58252,0,0
4540,2024 10 17,09:00:37.823,-0.737095,0.573996,0.2199,0.280826,-0.757836,0.903348,0.145512,-72.08252,156.799316,275.268555,0,0
4541,2024 10 17,09:00:37.831,-0.722219,0.577497,0.243065,0.292945,-0.935087,0.780297,0.064943,-87.585449,164.733887,291.748047,0,0
4542,2024 10 17,09:00:37.840,-0.705652,0.58079,0.266735,0.305926,-1.047884,0.630879,0.025391,-95.703125,166.625977,308.410645,0,0
4543,2024 10 17,09:00:37.848,-0.687776,0.583251,0.290967,0.319564,-1.035676,0.391614,0.182134,-95.947266,167.114258,324.584961,0,0
4544,2024 10 17,09:00:37.856,-0.687776,0.583251,0.290967,0.319564,-1.035676,0.391614,0.182134,-95.947266,167.114258,324.584961,0,0
4545,2024 10 17,09:00:37.865,-0.669027,0.584487,0.315344,0.333669,-1.376019,0.373547,-0.018555,-87.646484,161.987305,336.791992,0,0
4546,2024 10 17,09:00:37.873,-0.650091,0.583757,0.34005,0.347814,-1.430219,0.269051,-0.098148,-74.09668,158.874512,345.336914,0,0
4547,2024 10 17,09:00:37.881,-0.631482,0.58079,0.36478,0.36173,-1.536668,0.182623,-0.109867,-53.405762,149.169922,351.318359,0,0
4548,2024 10 17,09:00:37.890,-0.613522,0.575358,0.389534,0.375257,-1.663137,0.134281,-0.095218,-28.259277,139.282227,356.689453,0,0
4549,2024 10 17,09:00:37.898,-0.596415,0.567203,0.414437,0.388344,-1.754936,0.124516,-0.149907,0.610352,127.13623,364.013672,0,0
4550,2024 10 17,09:00:37.906,-0.596415,0.567203,0.414437,0.388344,-1.754936,0.124516,-0.149907,0.610352,127.13623,364.013672,0,0
4551,2024 10 17,09:00:37.915,-0.57998,0.556331,0.439528,0.401166,-1.800836,0.15772,-0.210944,23.620605,115.783691,374.633789,0,0
4552,2024 10 17,09:00:37.923,-0.563788,0.542972,0.464818,0.413846,-1.815485,0.226081,-0.206549,41.07666,106.933594,386.901855,0,0
4553,2024 10 17,09:00:37.931,-0.547116,0.527807,0.490291,0.426261,-1.914609,0.252449,-0.173833,50.78125,105.59082,398.071289,0,0
4554,2024 10 17,09:00:37.940,-0.529553,0.511309,0.515817,0.438257,-2.111392,0.251961,-0.092776,55.175781,107.36084,407.592773,0,0
4555,2024 10 17,09:00:37.948,-0.510936,0.493689,0.541076,0.449947,-2.347728,0.158696,0.029298,55.358887,107.48291,417.053223,0,0
4556,2024 10 17,09:00:37.956,-0.510936,0.493689,0.541076,0.449947,-2.347728,0.158696,0.029298,55.358887,107.48291,417.053223,0,0
4557,2024 10 17,09:00:37.965,-0.491224,0.475037,0.565769,0.461458,-2.500076,-0.097659,0.069826,52.734375,105.773926,426.025391,0,0
4558,2024 10 17,09:00:37.973,-0.470518,0.455854,0.589588,0.472435,-2.654866,-0.675314,0.135746,49.194336,110.107422,427.490234,0,0
4559,2024 10 17,09:00:37.981,-0.44921,0.43707,0.61234,0.481892,-2.745201,-1.200232,0.121586,48.034668,117.675781,414.550781,0,0
4560,2024 10 17,09:00:37.990,-0.428126,0.419705,0.632911,0.489877,-2.635823,-1.529832,-0.096194,37.17041,121.337891,383.666992,0,0
4561,2024 10 17,09:00:37.998,-0.407172,0.405365,0.650699,0.496469,-2.66805,-1.835505,-0.228523,13.793945,132.8125,340.637207,0,0
4562,2024 10 17,09:00:38.006,-0.407172,0.405365,0.650699,0.496469,-2.66805,-1.835505,-0.228523,13.793945,132.8125,340.637207,0,0
4563,2024 10 17,09:00:38.015,-0.386731,0.39474,0.665026,0.502355,-2.478103,-2.173406,-0.398938,-17.39502,136.169434,291.381836,0,0
4564,2024 10 17,09:00:38.023,-0.366885,0.388337,0.675937,0.50764,-2.201239,-2.782311,-0.525895,-47.912598,147.399902,238.891602,0,0
4565,2024 10 17,09:00:38.031,-0.348181,0.386216,0.68382,0.511856,-1.769585,-3.37608,-0.804224,-67.321777,152.648926,181.945801,0,0
4566,2024 10 17,09:00:38.040,-0.332061,0.38846,0.688805,0.514181,-1.42436,-4.238899,-1.158238,-73.059082,159.057617,110.900879,0,0
4567,2024 10 17,09:00:38.048,-0.317526,0.394996,0.692971,0.512784,-2.482498,-5.036775,-1.445845,-46.203613,188.354492,61.157227,0,0
4568,2024 10 17,09:00:38.056,-0.317526,0.394996,0.692971,0.512784,-2.482498,-5.036775,-1.445845,-46.203613,188.354492,61.157227,0,0
4569,2024 10 17,09:00:38.065,-0.310015,0.400896,0.695154,0.509837,-3.047945,-4.943998,-1.683157,-15.075684,94.116211,13.671875,0,0
4570,2024 10 17,09:00:38.073,-0.317105,0.414422,0.695868,0.493423,-3.528428,-4.154424,-4.344371,142.883301,133.544922,-262.145996,0,0
4571,2024 10 17,09:00:38.081,-0.35028,0.423484,0.679561,0.485965,-1.108432,-3.222266,-0.238777,102.905273,-275.390625,-369.506836,0,0
4572,2024 10 17,09:00:38.090,-0.388861,0.431981,0.662667,0.472284,0.151372,1.57036,1.909726,218.75,-214.599609,-408.752441,1,0
4573,2024 10 17,09:00:38.098,-0.40764,0.451514,0.649095,0.456772,-2.179754,1.455122,-1.394085,-49.987793,2.13623,-384.94873,0,0
4574,2024 10 17,09:00:38.106,-0.40764,0.451514,0.649095,0.456772,-2.179754,1.455122,-1.394086,-49.987793,2.13623,-384.94873,0,0
4575,2024 10 17,09:00:38.115,-0.422747,0.471858,0.626614,0.453862,-2.880459,-0.327647,1.082064,-106.811523,-117.370605,-345.397949,0,0
4576,2024 10 17,09:00:38.123,-0.438523,0.484911,0.599455,0.461749,-1.729057,-1.030793,-1.858455,-181.640625,-251.708984,-259.460449,0,0
4577,2024 10 17,09:00:38.131,-0.452887,0.490834,0.580255,0.466133,-1.524949,-1.204138,0.069826,-37.841797,-131.04248,-174.560547,0,0
4578,2024 10 17,09:00:38.140,-0.464899,0.491593,0.571162,0.464735,-1.234413,0.215827,0.110355,16.418457,-132.995605,-111.938477,0,0
4579,2024 10 17,09:00:38.148,-0.47336,0.491823,0.561105,0.468189,-1.128452,-0.008789,0.460463,-37.658691,-112.792969,-75.927734,0,0
4580,2024 10 17,09:00:38.156,-0.47336,0.491823,0.561105,0.468189,-1.128452,-0.008789,0.460463,-37.658691,-112.792969,-75.927734,0,0
4581,2024 10 17,09:00:38.165,-0.478712,0.492016,0.551621,0.473782,-1.202673,-0.08594,0.388684,-63.781738,-130.432129,-46.691895,0,0
4582,2024 10 17,09:00:38.173,-0.484549,0.490453,0.540884,0.48178,-0.938017,-0.090823,-0.104007,-66.040039,-151.062012,-33.508301,0,0
4583,2024 10 17,09:00:38.181,-0.489111,0.488368,0.530549,0.490699,-0.859401,0.040529,-0.097659,-79.956055,-141.662598,-17.883301,0,0
4584,2024 10 17,09:00:38.190,-0.491827,0.487146,0.521494,0.498838,-0.852565,0.021485,-0.129887,-74.035645,-112.487793,-13.427734,0,0
4585,2024 10 17,09:00:38.198,-0.494286,0.486337,0.514179,0.504755,-0.524918,-0.208991,-0.562029,-50.842285,-83.435059,-16.357422,0,0
4586,2024 10 17,09:00:38.206,-0.49627,0.485724,0.510729,0.506896,-0.820826,0.060549,-0.116214,-50.842285,-83.435059,-16.357422,0,0
4587,2024 10 17,09:00:38.215,-0.49627,0.485724,0.510729,0.506896,-0.820826,0.060549,-0.116214,-12.268066,-31.860352,-11.59668,0,0
4588,2024 10 17,09:00:38.223,-0.497075,0.485647,0.509085,0.507834,-0.882351,0.033692,-0.166021,-5.737305,-18.249512,-8.911133,0,0
4589,2024 10 17,09:00:38.231,-0.49825,0.485526,0.508299,0.507586,-0.90286,0.07178,-0.089846,4.333496,-4.943848,-12.512207,0,0
4590,2024 10 17,09:00:38.240,-0.499288,0.485817,0.508189,0.506397,-0.944365,0.101077,-0.081545,12.573242,2.746582,-16.845703,0,0
4591,2024 10 17,09:00:38.248,-0.50058,0.486275,0.508197,0.50467,-0.966338,0.085452,-0.039552,15.258789,6.286621,-21.30127,0,0
4592,2024 10 17,09:00:38.256,-0.501955,0.48685,0.508338,0.502604,-0.938994,0.112308,-0.075686,17.63916,8.239746,-22.949219,0,0
4593,2024 10 17,09:00:38.265,-0.501955,0.48685,0.508338,0.502604,-0.938994,0.112308,-0.075686,17.63916,8.239746,-22.949219,0,0
4594,2024 10 17,09:00:38.273,-0.503117,0.487621,0.508446,0.500581,-0.96292,0.074221,-0.033692,13.61084,10.559082,-22.460938,0,0
4595,2024 10 17,09:00:38.281,-0.504189,0.488491,0.508484,0.498611,-0.983428,0.094729,-0.04883,10.986328,9.338379,-22.460938,0,0
4596,2024 10 17,09:00:38.290,-0.5051,0.489373,0.508174,0.49714,-0.954131,0.093753,-0.029786,5.615234,5.79834,-20.507813,0,0
4597,2024 10 17,09:00:38.298,-0.50567,0.49032,0.507611,0.496202,-0.940458,0.078127,-0.092776,-1.953125,3.967285,-16.784668,0,0
4598,2024 10 17,09:00:38.306,-0.505997,0.491326,0.506924,0.495574,-0.941923,0.074709,-0.053713,-5.79834,4.150391,-15.319824,0,0
4599,2024 10 17,09:00:38.315,-0.505997,0.491326,0.506924,0.495574,-0.941923,0.074709,-0.053713,-5.79834,4.150391,-15.319824,0,0
4600,2024 10 17,09:00:38.323,-0.506099,0.492425,0.506161,0.495159,-0.938505,0.06885,-0.050295,-8.117676,3.90625,-13.85498,0,0
4601,2024 10 17,09:00:38.331,-0.50612,0.493544,0.505398,0.494802,-0.95706,0.063967,-0.054201,-8.422852,4.272461,-13.305664,0,0
4602,2024 10 17,09:00:38.340,-0.50624,0.494589,0.504552,0.4945,-0.956084,0.06006,-0.014649,-8.117676,1.831055,-13.73291,0,0
4603,2024 10 17,09:00:38.348,-0.506478,0.495528,0.50361,0.494277,-0.948759,0.058107,-0.049806,-8.117676,-0.793457,-13.73291,0,0
4604,2024 10 17,09:00:38.356,-0.506797,0.4964,0.502555,0.494148,-0.938017,0.082034,-0.08594,-9.033203,-1.953125,-14.099121,0,0
4605,2024 10 17,09:00:38.365,-0.506797,0.4964,0.502555,0.494148,-0.938017,0.082034,-0.08594,-9.033203,-1.953125,-14.099121,0,0
4606,2024 10 17,09:00:38.373,-0.507072,0.497396,0.501371,0.494067,-0.91702,0.058596,-0.082034,-10.742188,-1.586914,-15.197754,0,0
4607,2024 10 17,09:00:38.381,-0.507209,0.498629,0.500228,0.493843,-0.934599,0.066897,-0.091311,-12.145996,2.807617,-16.540527,0,0
4608,2024 10 17,09:00:38.390,-0.507248,0.500174,0.499105,0.493376,-0.959014,0.045412,-0.043947,-13.305664,5.310059,-18.981934,0,0
4609,2024 10 17,09:00:38.398,-0.507413,0.501764,0.497963,0.492745,-0.976592,0.034669,-0.022462,-10.192871,5.187988,-20.996094,0,0
4610,2024 10 17,09:00:38.406,-0.507897,0.503172,0.496769,0.492016,-0.964385,0.015625,-0.041993,-7.324219,1.831055,-22.460938,0,0
4611,2024 10 17,09:00:38.415,-0.507897,0.503172,0.496769,0.492016,-0.964385,0.015625,-0.041993,-7.324219,1.831055,-22.460938,0,0
4612,2024 10 17,09:00:38.423,-0.508732,0.504349,0.495593,0.491133,-0.96292,0.021973,-0.046876,-2.441406,-0.0,-23.925781,0,0
4613,2024 10 17,09:00:38.431,-0.509834,0.50527,0.494364,0.490282,-0.949736,0.012696,-0.037111,-0.549316,-3.601074,-23.681641,0,0
4614,2024 10 17,09:00:38.440,-0.51107,0.505999,0.493177,0.489437,-0.949248,0.00586,-0.050783,1.037598,-5.065918,-22.827148,0,0
4615,2024 10 17,09:00:38.448,-0.512418,0.50652,0.492022,0.488651,-0.941435,-0.007324,-0.034181,2.807617,-7.141113,-21.728516,0,0
4616,2024 10 17,09:00:38.456,-0.513876,0.506789,0.490895,0.487973,-0.935087,-0.000977,-0.061525,4.943848,-9.82666,-19.958496,0,0
4617,2024 10 17,09:00:38.465,-0.513876,0.506789,0.490895,0.487973,-0.935087,-0.000977,-0.061525,4.943848,-9.82666,-19.958496,0,0
4618,2024 10 17,09:00:38.473,-0.51545,0.506789,0.489766,0.487448,-0.932157,0.00586,-0.031251,6.164551,-12.756348,-18.310547,0,0
4619,2024 10 17,09:00:38.481,-0.517095,0.506615,0.488646,0.48701,-0.943876,-0.008301,-0.058596,6.896973,-14.526367,-17.333984,0,0
4620,2024 10 17,09:00:38.490,-0.518809,0.506359,0.487545,0.486557,-0.95999,0.018067,-0.077639,7.93457,-14.343262,-17.578125,0,0
4621,2024 10 17,09:00:38.498,-0.520629,0.506197,0.486487,0.485839,-1.003449,0.023438,-0.057619,10.253906,-12.634277,-21.118164,0,0
4622,2024 10 17,09:00:38.506,-0.522792,0.506129,0.485344,0.484729,-1.024445,0.022462,-0.080081,14.099121,-12.084961,-27.038574,0,0
4623,2024 10 17,09:00:38.515,-0.522792,0.506129,0.485344,0.484729,-1.024445,0.022462,-0.080081,14.099121,-12.084961,-27.038574,0,0
4624,2024 10 17,09:00:38.523,-0.52538,0.506276,0.484166,0.482953,-1.056673,0.036622,-0.102054,18.676758,-8.850098,-35.461426,0,0
4625,2024 10 17,09:00:38.531,-0.52852,0.506846,0.48301,0.480079,-1.146031,0.046388,-0.083499,26.367188,-2.685547,-48.88916,0,0
4626,2024 10 17,09:00:38.540,-0.532486,0.507853,0.481576,0.476055,-1.20951,0.06885,-0.054201,32.958984,-0.793457,-64.941406,0,0
4627,2024 10 17,09:00:38.548,-0.537194,0.509399,0.479587,0.471096,-1.299844,0.089358,-0.06592,35.03418,-0.671387,-81.115723,0,0
4628,2024 10 17,09:00:38.556,-0.542579,0.511596,0.476794,0.465343,-1.376507,0.139164,-0.078127,33.38623,-1.403809,-98.388672,0,0
4629,2024 10 17,09:00:38.565,-0.542579,0.511596,0.476794,0.465343,-1.376507,0.139164,-0.078127,33.38623,-1.403809,-98.388672,0,0
4630,2024 10 17,09:00:38.573,-0.548499,0.514501,0.472727,0.459311,-1.440962,0.15186,-0.082522,26.245117,-8.056641,-114.746094,0,0
4631,2024 10 17,09:00:38.581,-0.554977,0.518277,0.467373,0.452716,-1.515183,0.182134,-0.079592,19.775391,-10.620117,-134.643555,0,0
4632,2024 10 17,09:00:38.590,-0.562102,0.522975,0.460392,0.445621,-1.585498,0.175298,0.005371,13.061523,-17.883301,-156.677246,0,0
4633,2024 10 17,09:00:38.598,-0.570062,0.528524,0.451561,0.437932,-1.67925,0.215339,0.024903,4.882813,-27.46582,-181.335449,0,0
4634,2024 10 17,09:00:38.606,-0.578881,0.534963,0.440318,0.42992,-1.824274,0.272958,0.095218,-7.263184,-42.602539,-208.312988,0,0
4635,2024 10 17,09:00:38.615,-0.588441,0.542699,0.426371,0.421216,-2.043519,0.363292,0.099612,-21.118164,-52.67334,-242.431641,0,0
4636,2024 10 17,09:00:38.623,-0.588441,0.542699,0.426371,0.421216,-2.043519,0.363292,0.099612,-21.118164,-52.67334,-242.431641,0,0
4637,2024 10 17,09:00:38.631,-0.598962,0.552041,0.409344,0.411014,-2.396558,0.459487,-0.073244,-31.25,-59.570313,-289.123535,0,0
4638,2024 10 17,09:00:38.640,-0.61165,0.562448,0.388981,0.397782,-2.897549,0.617206,0.023438,-23.4375,-70.983887,-352.111816,0,0
4639,2024 10 17,09:00:38.648,-0.626785,0.573964,0.363897,0.381162,-3.415143,0.687033,-0.06885,-25.634766,-89.599609,-427.67334,0,0
4640,2024 10 17,09:00:38.656,-0.644157,0.586362,0.332747,0.361277,-3.838008,0.627461,-0.071291,-30.517578,-121.520996,-507.629395,0,0
4641,2024 10 17,09:00:38.665,-0.662024,0.599254,0.295066,0.339933,-3.671499,0.252937,-0.161626,-57.067871,-158.996582,-556.70166,0,0
4642,2024 10 17,09:00:38.673,-0.662024,0.599254,0.295066,0.339933,-3.671499,0.252937,-0.161626,-57.067871,-158.996582,-556.70166,0,0
4643,2024 10 17,09:00:38.681,-0.678845,0.611677,0.25405,0.316982,-3.205176,-0.578143,-0.134281,-59.326172,-163.879395,-579.406738,0,1
4644,2024 10 17,09:00:38.690,-0.694569,0.621501,0.213732,0.292623,-2.878017,-0.331065,0.062014,-34.362793,-149.169922,-561.035156,0,0
4645,2024 10 17,09:00:38.698,-0.708615,0.62889,0.175635,0.26742,-3.300394,0.361827,0.227546,-18.737793,-133.544922,-547.607422,0,0
4646,2024 10 17,09:00:38.706,-0.721778,0.633457,0.138525,0.242032,-2.643635,1.145054,0.720237,-1.220703,-130.859375,-534.057617,0,0
4647,2024 10 17,09:00:38.715,-0.7331,0.636859,0.104171,0.214761,-1.715384,1.751518,0.791528,7.263184,-87.341309,-526.245117,0,0
4648,2024 10 17,09:00:38.723,-0.7331,0.636859,0.104171,0.214761,-1.715384,1.751518,0.791528,7.263184,-87.341309,-526.245117,0,0
4649,2024 10 17,09:00:38.731,-0.74264,0.639926,0.074488,0.182845,-1.396527,1.049837,1.281777,7.873535,3.295898,-522.583008,0,0
4650,2024 10 17,09:00:38.740,-0.754106,0.638967,0.05017,0.143276,-0.470229,0.396496,0.855983,116.455078,82.092285,-555.358887,0,0
4651,2024 10 17,09:00:38.748,-0.768162,0.62915,0.033713,0.113845,2.356029,1.308634,2.15241,202.270508,31.799316,-304.382324,0,0
4652,2024 10 17,09:00:38.756,-0.774227,0.623068,0.039338,0.103976,-0.48146,1.772515,-0.464858,66.894531,154.052734,28.015137,0,0
4653,2024 10 17,09:00:38.765,-0.778734,0.615632,0.059096,0.105254,-1.589892,2.311106,0.152837,122.070313,125.12207,175.90332,0,0
4654,2024 10 17,09:00:38.773,-0.778734,0.615632,0.059096,0.105254,-1.589892,2.311106,0.152837,122.070313,125.12207,175.90332,0,0
4655,2024 10 17,09:00:38.781,-0.778148,0.611374,0.07664,0.121793,-1.177282,1.379925,0.423353,34.912109,16.845703,287.17041,0,0
4656,2024 10 17,09:00:38.790,-0.77532,0.607574,0.093883,0.144632,-1.027863,0.93704,0.293954,3.356934,-25.45166,332.885742,0,0
4657,2024 10 17,09:00:38.798,-0.771346,0.603684,0.10852,0.169748,-0.330576,0.749046,0.704123,7.8125,-47.851563,326.416016,0,0
4658,2024 10 17,09:00:38.806,-0.766298,0.600666,0.123879,0.191422,0.10889,0.519547,0.586932,-2.502441,-2.258301,301.635742,0,0
4659,2024 10 17,09:00:38.815,-0.760835,0.598323,0.1419,0.207375,0.02295,0.433119,0.659688,2.441406,66.772461,272.583008,0,0
4660,2024 10 17,09:00:38.823,-0.760835,0.598323,0.1419,0.207375,0.02295,0.433119,0.659688,2.441406,66.772461,272.583008,0,0
4661,2024 10 17,09:00:38.831,-0.754844,0.596444,0.162348,0.219337,-0.196783,0.577654,0.505387,7.507324,109.25293,257.69043,0,0
4662,2024 10 17,09:00:38.840,-0.74799,0.594862,0.184486,0.229381,-0.532731,0.665548,0.366222,4.089355,135.070801,255.67627,0,0
4663,2024 10 17,09:00:38.848,-0.740048,0.593325,0.207011,0.239667,-0.805689,0.671896,0.245125,-5.79834,131.591797,263.73291,0,0
4664,2024 10 17,09:00:38.856,-0.731058,0.591455,0.229001,0.251582,-0.883328,0.620624,0.187017,-15.625,116.149902,278.015137,0,0
4665,2024 10 17,09:00:38.865,-0.720982,0.589087,0.250516,0.265337,-0.862331,0.50148,0.177252,-24.780273,101.928711,295.043945,0,0
4666,2024 10 17,09:00:38.873,-0.720982,0.589087,0.250516,0.265337,-0.862331,0.50148,0.177252,-24.780273,101.928711,295.043945,0,0
4667,2024 10 17,09:00:38.881,-0.709799,0.586104,0.272326,0.28019,-0.776391,0.387219,0.187506,-27.34375,103.515625,312.011719,0,0
4668,2024 10 17,09:00:38.890,-0.697307,0.582527,0.295605,0.29503,-0.80813,0.340342,0.203619,-25.085449,120.788574,328.063965,0,0
4669,2024 10 17,09:00:38.898,-0.683476,0.578327,0.320499,0.309319,-0.980987,0.31251,0.183599,-21.30127,139.099121,339.84375,0,0
4670,2024 10 17,09:00:38.906,-0.668589,0.573305,0.346393,0.322989,-1.159703,0.292001,0.147465,-16.235352,149.963379,346.984863,0,0
4671,2024 10 17,09:00:38.915,-0.652853,0.567335,0.372784,0.336074,-1.311563,0.278817,0.125004,-10.314941,157.226563,352.355957,0,0
4672,2024 10 17,09:00:38.923,-0.652853,0.567335,0.372784,0.336074,-1.311563,0.278817,0.125004,-10.314941,157.226563,352.355957,0,0
4673,2024 10 17,09:00:38.931,-0.636284,0.560319,0.399492,0.348701,-1.457076,0.301767,0.113773,-4.821777,161.437988,359.130859,0,0
4674,2024 10 17,09:00:38.940,-0.618767,0.552226,0.426273,0.3612,-1.634815,0.333506,0.075198,-3.234863,161.92627,367.553711,0,0
4675,2024 10 17,09:00:38.948,-0.600244,0.5431,0.452695,0.37392,-1.763237,0.344737,0.003906,-6.286621,158.325195,375.976563,0,0
4676,2024 10 17,09:00:38.956,-0.580526,0.533099,0.478621,0.386933,-1.925352,0.339854,-0.024903,-12.268066,156.738281,384.94873,0,0
4677,2024 10 17,09:00:38.965,-0.559481,0.522298,0.503817,0.400443,-2.099185,0.302744,-0.022462,-21.484375,151.794434,394.592285,0,0
4678,2024 10 17,09:00:38.973,-0.559481,0.522298,0.503817,0.400443,-2.099185,0.302744,-0.022462,-21.484375,151.794434,394.592285,0,0
4679,2024 10 17,09:00:38.981,-0.537252,0.510662,0.528057,0.414415,-2.273019,0.226081,0.022462,-29.968262,146.789551,402.587891,0,0
4680,2024 10 17,09:00:38.990,-0.513847,0.498256,0.551521,0.4284,-2.437574,0.062502,0.076662,-34.729004,146.66748,409.301758,0,0
4681,2024 10 17,09:00:38.998,-0.489471,0.484978,0.574451,0.441837,-2.581622,-0.333506,0.139164,-32.287598,149.475098,415.161133,0,0
4682,2024 10 17,09:00:39.006,-0.464342,0.470778,0.597167,0.454034,-2.807703,-0.875515,0.167486,-22.827148,155.456543,419.616699,0,0
4683,2024 10 17,09:00:39.015,-0.439326,0.455773,0.619164,0.464649,-2.964446,-1.38139,-0.001465,-11.535645,154.35791,412.658691,0,0
4684,2024 10 17,09:00:39.023,-0.415312,0.440689,0.639535,0.473607,-3.080172,-1.849177,-0.145512,-5.187988,147.033691,391.540527,0,0
4685,2024 10 17,09:00:39.031,-0.415312,0.440689,0.639535,0.473607,-3.080172,-1.849177,-0.145512,-5.187988,147.033691,391.540527,0,0
4686,2024 10 17,09:00:39.040,-0.392984,0.426374,0.657094,0.48166,-3.128513,-2.276437,-0.32667,-13.183594,127.746582,358.337402,0,0
4687,2024 10 17,09:00:39.048,-0.373236,0.41378,0.670579,0.489699,-2.778405,-2.789636,-0.510758,-34.057617,100.097656,310.058594,0,0
4688,2024 10 17,09:00:39.056,-0.35588,0.404889,0.679834,0.497232,-2.121647,-3.471786,-0.691427,-60.180664,94.055176,243.896484,0,0
4689,2024 10 17,09:00:39.065,-0.34017,0.401734,0.685364,0.503161,-1.388714,-3.968871,-1.162145,-82.580566,111.022949,164.794922,0,0
4690,2024 10 17,09:00:39.073,-0.32689,0.405053,0.68762,0.506216,-1.07474,-4.744286,-1.489792,-91.064453,132.93457,71.716309,0,0
4691,2024 10 17,09:00:39.081,-0.32689,0.405053,0.68762,0.506216,-1.07474,-4.744286,-1.489792,-91.064453,132.93457,71.716309,0,0
4692,2024 10 17,09:00:39.090,-0.315251,0.414368,0.688352,0.505062,-2.416578,-5.457198,-1.802789,-65.368652,169.86084,4.516602,0,0
4693,2024 10 17,09:00:39.098,-0.311603,0.423459,0.687145,0.501416,-3.074313,-4.719382,-1.605518,-23.4375,69.946289,-52.490234,0,0
4694,2024 10 17,09:00:39.106,-0.321452,0.42646,0.681431,0.500452,-1.99176,-3.43321,-1.05472,16.540527,-100.524902,-92.285156,0,0
4695,2024 10 17,09:00:39.115,-0.342445,0.43948,0.680241,0.4763,-1.806207,-0.883328,-5.904965,150.268555,-27.404785,-359.741211,0,0
4696,2024 10 17,09:00:39.123,-0.39378,0.431476,0.653762,0.480999,1.463912,3.024995,6.483108,193.115234,-570.495605,-345.214844,0,0
4697,2024 10 17,09:00:39.131,-0.39378,0.431476,0.653762,0.480999,1.463912,3.024995,6.483108,193.115234,-570.495605,-345.214844,0,0
4698,2024 10 17,09:00:39.140,-0.4074,0.45013,0.639401,0.471778,-1.009796,0.148442,-3.98645,-78.369141,94.421387,-347.290039,0,0
4699,2024 10 17,09:00:39.148,-0.422371,0.471166,0.623041,0.459811,-2.983978,0.692892,2.285226,-64.27002,-38.696289,-371.948242,1,0
4700,2024 10 17,09:00:39.156,-0.436762,0.489143,0.593158,0.467055,-1.894101,-0.523454,-1.918027,-209.228516,-249.755859,-318.603516,0,0
4701,2024 10 17,09:00:39.165,-0.45068,0.499881,0.569954,0.471338,-2.000061,-1.869198,0.021973,-81.298828,-112.670898,-226.379395,0,0
4702,2024 10 17,09:00:39.173,-0.465692,0.501098,0.557758,0.47004,-1.581591,-0.433607,0.196295,12.390137,-180.786133,-136.84082,0,0
4703,2024 10 17,09:00:39.181,-0.465692,0.501098,0.557758,0.47004,-1.581591,-0.433607,0.196295,12.390137,-180.786133,-136.84082,0,0
4704,2024 10 17,09:00:39.190,-0.477526,0.497992,0.545547,0.475763,-0.934599,-0.0459,0.255867,-17.211914,-173.828125,-65.551758,0,0
4705,2024 10 17,09:00:39.198,-0.483332,0.495791,0.534924,0.484187,-0.729514,0.055666,-0.375988,-83.007813,-157.897949,-27.404785,0,0
4706,2024 10 17,09:00:39.206,-0.487284,0.494289,0.524334,0.493262,-0.829615,-0.242195,-0.144536,-73.181152,-127.502441,-21.789551,0,0
4707,2024 10 17,09:00:39.215,-0.491014,0.492265,0.516795,0.499504,-0.943876,0.153813,0.081057,-50.109863,-109.069824,-12.268066,0,0
4708,2024 10 17,09:00:39.223,-0.492759,0.491028,0.509406,0.506543,-0.660176,-0.272958,-0.493179,-64.27002,-93.017578,-4.211426,0,0
4709,2024 10 17,09:00:39.231,-0.492759,0.491028,0.509406,0.506543,-0.660176,-0.272958,-0.493179,-64.27002,-93.017578,-4.211426,0,0
4710,2024 10 17,09:00:39.240,-0.49518,0.489198,0.505781,0.509576,-0.671896,0.269051,-0.167974,0.915527,-44.189453,-4.577637,0,0
4711,2024 10 17,09:00:39.248,-0.495197,0.488982,0.503984,0.511544,-0.993194,-0.122074,-0.184576,-23.681641,-23.31543,1.281738,0,0
4712,2024 10 17,09:00:39.256,-0.496468,0.488069,0.502549,0.512594,-0.80813,0.074709,-0.108402,-3.540039,-20.812988,-3.417969,0,0
4713,2024 10 17,09:00:39.265,-0.496991,0.487888,0.502233,0.512569,-0.879421,0.123539,-0.146977,7.507324,-2.807617,-5.065918,0,0
4714,2024 10 17,09:00:39.273,-0.497512,0.487913,0.502402,0.511873,-0.942412,0.084964,-0.037111,9.460449,5.432129,-7.507324,0,0
4715,2024 10 17,09:00:39.281,-0.497512,0.487913,0.502402,0.511873,-0.942412,0.084964,-0.037111,9.460449,5.432129,-7.507324,0,0
4716,2024 10 17,09:00:39.290,-0.498201,0.488188,0.50289,0.51046,-0.9888,0.084475,-0.050783,12.695313,7.8125,-12.390137,0,0
4717,2024 10 17,09:00:39.298,-0.499264,0.488468,0.503244,0.508802,-1.003449,0.08594,-0.008789,16.845703,7.202148,-16.357422,0,0
4718,2024 10 17,09:00:39.306,-0.500584,0.488692,0.503523,0.507011,-0.992706,0.082522,-0.008789,18.371582,4.333496,-18.371582,0,0
4719,2024 10 17,09:00:39.315,-0.50201,0.488841,0.503632,0.505346,-0.971221,0.095218,-0.057619,16.174316,2.01416,-18.188477,0,0
4720,2024 10 17,09:00:39.323,-0.503299,0.489023,0.503483,0.504035,-0.959014,0.111332,-0.04004,11.962891,-0.0,-16.906738,0,0
4721,2024 10 17,09:00:39.331,-0.503299,0.489023,0.503483,0.504035,-0.959014,0.111332,-0.04004,11.962891,-0.0,-16.906738,0,0
4722,2024 10 17,09:00:39.340,-0.504284,0.489341,0.503038,0.503185,-0.934111,0.093265,-0.08594,3.90625,-2.01416,-14.953613,0,0
4723,2024 10 17,09:00:39.348,-0.504956,0.489831,0.502421,0.502651,-0.938017,0.08887,-0.077151,-0.366211,-0.732422,-13.183594,0,0
4724,2024 10 17,09:00:39.356,-0.505422,0.490383,0.501687,0.502377,-0.918485,0.067873,-0.064943,-3.90625,-1.953125,-11.59668,0,0
4725,2024 10 17,09:00:39.365,-0.505695,0.491019,0.501028,0.50214,-0.936064,0.057131,-0.060549,-4.577637,0.549316,-10.375977,0,0
4726,2024 10 17,09:00:39.373,-0.50599,0.491646,0.500415,0.50184,-0.962432,0.059572,-0.038575,-3.90625,0.305176,-10.864258,0,0
4727,2024 10 17,09:00:39.381,-0.50599,0.491646,0.500415,0.50184,-0.962432,0.059572,-0.038575,-3.90625,0.305176,-10.864258,0,0
4728,2024 10 17,09:00:39.390,-0.506428,0.492196,0.499777,0.501494,-0.970244,0.064943,-0.018067,-2.13623,-1.525879,-11.71875,0,0
4729,2024 10 17,09:00:39.398,-0.507021,0.492649,0.498983,0.501241,-0.940458,0.075686,-0.065432,-2.502441,-4.333496,-12.390137,0,0
4730,2024 10 17,09:00:39.406,-0.507559,0.493203,0.498045,0.501084,-0.912137,0.079592,-0.101566,-5.79834,-3.540039,-12.756348,0,0
4731,2024 10 17,09:00:39.415,-0.507935,0.493991,0.497078,0.500888,-0.902371,0.081545,-0.104984,-7.263184,-1.464844,-13.977051,0,0
4732,2024 10 17,09:00:39.423,-0.508104,0.495066,0.496079,0.500645,-0.91995,0.049806,-0.084475,-10.009766,2.624512,-14.648438,0,0
4733,2024 10 17,09:00:39.431,-0.508182,0.496279,0.495106,0.500329,-0.947783,0.0459,-0.083987,-10.559082,3.295898,-15.075684,0,0
4734,2024 10 17,09:00:39.440,-0.508182,0.496279,0.495106,0.500329,-0.947783,0.0459,-0.083987,-10.559082,3.295898,-15.075684,0,0
4735,2024 10 17,09:00:39.448,-0.508362,0.497423,0.494117,0.499986,-0.93704,0.035646,-0.023927,-8.544922,1.831055,-15.686035,0,0
4736,2024 10 17,09:00:39.456,-0.508626,0.498498,0.493186,0.499566,-0.947295,0.037599,-0.107425,-7.385254,1.953125,-15.441895,0,0
4737,2024 10 17,09:00:39.465,-0.509097,0.499422,0.492256,0.49908,-0.960479,0.054201,-0.016114,-4.333496,0.183105,-16.540527,0,0
4738,2024 10 17,09:00:39.473,-0.509619,0.50031,0.4913,0.498601,-0.934599,0.028809,-0.078616,-4.577637,-0.915527,-16.418457,0,0
4739,2024 10 17,09:00:39.481,-0.510182,0.501092,0.490405,0.49812,-0.934111,0.026856,-0.058596,-3.90625,-0.488281,-15.563965,0,0
4740,2024 10 17,09:00:39.490,-0.510182,0.501092,0.490405,0.49812,-0.934111,0.026856,-0.058596,-3.90625,-0.488281,-15.563965,0,0
4741,2024 10 17,09:00:39.498,-0.510749,0.501816,0.489591,0.497611,-0.948759,0.034669,-0.066408,-2.441406,-0.793457,-15.075684,0,0
4742,2024 10 17,09:00:39.506,-0.511418,0.502411,0.488757,0.497144,-0.948271,0.032716,-0.056154,-0.854492,-2.441406,-15.075684,0,0
4743,2024 10 17,09:00:39.515,-0.512203,0.502914,0.487935,0.496634,-0.95706,0.019532,-0.061037,0.12207,-3.234863,-15.319824,0,0
4744,2024 10 17,09:00:39.523,-0.513157,0.503327,0.487111,0.496038,-0.977081,0.043458,-0.063478,1.77002,-4.699707,-16.418457,0,0
4745,2024 10 17,09:00:39.531,-0.514292,0.50375,0.486162,0.495365,-0.981964,0.066408,-0.069338,2.502441,-5.249023,-19.40918,0,0
4746,2024 10 17,09:00:39.540,-0.514292,0.50375,0.486162,0.495365,-0.981964,0.066408,-0.069338,2.502441,-5.249023,-19.40918,0,0
4747,2024 10 17,09:00:39.548,-0.515545,0.504365,0.485191,0.494388,-1.001495,0.055177,-0.064943,4.089355,-2.258301,-23.864746,0,0
4748,2024 10 17,09:00:39.556,-0.517024,0.505267,0.48416,0.49293,-1.033723,0.053224,-0.075686,5.981445,0.12207,-30.151367,0,0
4749,2024 10 17,09:00:39.565,-0.518915,0.506419,0.483043,0.490853,-1.075228,0.073244,-0.066408,10.437012,2.380371,-38.635254,0,0
4750,2024 10 17,09:00:39.573,-0.521224,0.508099,0.481885,0.487799,-1.131382,0.069826,-0.119144,14.587402,9.155273,-51.208496,0,0
4751,2024 10 17,09:00:39.581,-0.52428,0.510152,0.480388,0.483842,-1.167516,0.070315,-0.039552,20.019531,9.155273,-64.697266,0,0
4752,2024 10 17,09:00:39.590,-0.52428,0.510152,0.480388,0.483842,-1.167516,0.070315,-0.039552,20.019531,9.155273,-64.697266,0,0
4753,2024 10 17,09:00:39.598,-0.527868,0.512757,0.478481,0.479053,-1.244667,0.090823,-0.086917,21.606445,12.023926,-78.674316,0,0
4754,2024 10 17,09:00:39.606,-0.532004,0.515735,0.475719,0.474005,-1.29252,0.094241,-0.062014,17.150879,5.004883,-89.538574,0,0
4755,2024 10 17,09:00:39.615,-0.536523,0.519373,0.472071,0.468556,-1.406781,0.145512,-0.106937,12.878418,5.859375,-104.736328,0,0
4756,2024 10 17,09:00:39.623,-0.541725,0.523702,0.467231,0.462563,-1.459029,0.124516,-0.019044,10.192871,-0.671387,-123.657227,0,0
4757,2024 10 17,09:00:39.631,-0.547873,0.528636,0.461161,0.455752,-1.561083,0.151372,-0.000977,11.413574,-4.211426,-145.141602,0,0
4758,2024 10 17,09:00:39.640,-0.547873,0.528636,0.461161,0.455752,-1.561083,0.151372,-0.000977,11.413574,-4.211426,-145.141602,0,0
4759,2024 10 17,09:00:39.648,-0.555348,0.533904,0.453474,0.448216,-1.600635,0.157231,0.079592,11.59668,-19.592285,-168.945313,0,0
4760,2024 10 17,09:00:39.656,-0.564146,0.539625,0.443768,0.440017,-1.62212,0.202155,0.062014,9.82666,-30.334473,-195.983887,0,0
4761,2024 10 17,09:00:39.665,-0.574008,0.546145,0.431911,0.430922,-1.742241,0.271493,0.069338,3.356934,-41.19873,-225.891113,0,0
4762,2024 10 17,09:00:39.673,-0.58474,0.553827,0.417666,0.420606,-1.995666,0.39845,-0.04883,-5.432129,-44.921875,-262.023926,0,0
4763,2024 10 17,09:00:39.681,-0.596753,0.562884,0.400627,0.408099,-2.331614,0.470229,-0.133305,-6.103516,-50.598145,-312.194824,0,0
4764,2024 10 17,09:00:39.690,-0.596753,0.562884,0.400627,0.408099,-2.331614,0.470229,-0.133305,-6.103516,-50.598145,-312.194824,0,0
4765,2024 10 17,09:00:39.698,-0.610695,0.573154,0.380062,0.392553,-2.826746,0.609394,-0.089846,-8.178711,-57.922363,-374.938965,0,0
4766,2024 10 17,09:00:39.706,-0.626314,0.584946,0.354777,0.373768,-3.526963,0.584979,-0.133305,-13.977051,-74.09668,-448.181152,0,0
4767,2024 10 17,09:00:39.715,-0.643578,0.597523,0.32346,0.352345,-3.593371,0.389172,-0.011231,-26.489258,-109.49707,-515.991211,0,0
4768,2024 10 17,09:00:39.723,-0.660269,0.610336,0.286814,0.330563,-3.22422,-0.081057,-0.142582,-53.894043,-133.789063,-544.921875,0,0
4769,2024 10 17,09:00:39.731,-0.675197,0.622863,0.248738,0.307052,-3.03769,-0.646504,-0.049806,-55.725098,-123.10791,-550.292969,0,0
4770,2024 10 17,09:00:39.740,-0.675197,0.622863,0.248738,0.307052,-3.03769,-0.646504,-0.049806,-55.725098,-123.10791,-550.292969,0,0
4771,2024 10 17,09:00:39.748,-0.689483,0.632295,0.212435,0.282288,-3.192969,-0.055177,-0.046388,-24.353027,-113.15918,-531.677246,0,0
4772,2024 10 17,09:00:39.756,-0.702811,0.638867,0.175863,0.258802,-2.983001,0.61037,0.522965,-11.230469,-139.038086,-522.094727,0,0
4773,2024 10 17,09:00:39.765,-0.715181,0.643114,0.139466,0.235521,-2.429273,1.247597,0.81399,-0.488281,-134.887695,-511.901855,0,0
4774,2024 10 17,09:00:39.773,-0.726299,0.646015,0.104459,0.210341,-1.526414,1.686575,1.182653,10.620117,-106.933594,-515.74707,0,0
4775,2024 10 17,09:00:39.781,-0.736142,0.648497,0.072743,0.179595,-1.041536,1.064486,1.26664,18.737793,-18.920898,-533.02002,0,0
4776,2024 10 17,09:00:39.790,-0.736142,0.648497,0.072743,0.179595,-1.041536,1.064486,1.26664,18.737793,-18.920898,-533.02002,0,0
4777,2024 10 17,09:00:39.798,-0.747722,0.64789,0.046004,0.137963,-0.776391,0.493667,1.110385,98.693848,98.571777,-600.524902,0,1
4778,2024 10 17,09:00:39.806,-0.760748,0.641027,0.026767,0.098134,2.525467,-0.061037,1.439009,178.955078,102.294922,-430.603027,0,0
4779,2024 10 17,09:00:39.815,-0.770511,0.631885,0.031502,0.077727,0.645039,2.405347,0.230476,122.558594,236.26709,-49.316406,0,0
4780,2024 10 17,09:00:39.823,-0.774951,0.625272,0.060586,0.069389,-1.721732,2.882412,0.241707,126.037598,296.325684,182.556152,0,0
4781,2024 10 17,09:00:39.831,-0.77341,0.622365,0.087613,0.082602,-1.639699,1.884335,0.061525,-3.356934,91.85791,334.289551,0,0
4782,2024 10 17,09:00:39.840,-0.768278,0.621127,0.110574,0.108277,-1.697317,1.084994,0.417982,-43.212891,5.310059,400.085449,0,0
4783,2024 10 17,09:00:39.848,-0.768278,0.621127,0.110574,0.108277,-1.697317,1.084994,0.417982,-43.212891,5.310059,400.085449,0,0
4784,2024 10 17,09:00:39.856,-0.761607,0.619458,0.128451,0.140451,-1.406781,0.419446,0.698264,-48.64502,-93.566895,409.606934,0,0
4785,2024 10 17,09:00:39.865,-0.755725,0.615556,0.141889,0.172738,-0.256844,0.324229,0.569842,-27.160645,-106.384277,377.319336,0,0
4786,2024 10 17,09:00:39.873,-0.749853,0.611475,0.156419,0.198375,0.256844,0.157231,0.652364,-9.399414,-33.935547,328.735352,0,0
4787,2024 10 17,09:00:39.881,-0.744251,0.607463,0.174795,0.2157,0.156743,0.109867,0.819849,14.831543,57.312012,290.95459,0,0
4788,2024 10 17,09:00:39.890,-0.738459,0.603337,0.196864,0.227834,-0.131352,0.350597,0.582049,32.165527,116.027832,277.46582,0,0
4789,2024 10 17,09:00:39.898,-0.738459,0.603337,0.196864,0.227834,-0.131352,0.350597,0.582049,32.165527,116.027832,277.46582,0,0
4790,2024 10 17,09:00:39.906,-0.731982,0.598877,0.221585,0.237592,-0.591815,0.556169,0.403821,38.208008,149.108887,279.785156,0,0
4791,2024 10 17,09:00:39.915,-0.72441,0.593865,0.247267,0.24782,-0.916532,0.675802,0.301279,33.081055,146.179199,294.98291,0,0
4792,2024 10 17,09:00:39.923,-0.715586,0.588131,0.272361,0.260494,-1.001007,0.636738,0.212409,19.287109,122.741699,316.894531,0,0
4793,2024 10 17,09:00:39.931,-0.705327,0.581863,0.296621,0.275618,-0.952178,0.521012,0.17481,3.723145,105.59082,335.998535,0,0
4794,2024 10 17,09:00:39.940,-0.693497,0.575488,0.320712,0.29158,-0.92581,0.382336,0.209967,-7.385254,108.947754,345.153809,0,0
4795,2024 10 17,09:00:39.948,-0.693497,0.575488,0.320712,0.29158,-0.92581,0.382336,0.209967,-7.385254,108.947754,345.153809,0,0
4796,2024 10 17,09:00:39.956,-0.680187,0.569249,0.345137,0.306889,-0.953154,0.310068,0.242683,-14.038086,124.572754,345.336914,0,0
4797,2024 10 17,09:00:39.965,-0.665375,0.563375,0.37017,0.320714,-1.116245,0.263192,0.254891,-17.76123,146.484375,341.186523,0,0
4798,2024 10 17,09:00:39.973,-0.649224,0.557625,0.395655,0.333196,-1.33256,0.281747,0.242683,-19.836426,163.330078,339.050293,0,0
4799,2024 10 17,09:00:39.981,-0.631673,0.551722,0.421309,0.345096,-1.565966,0.319346,0.192389,-25.390625,172.302246,342.895508,0,0
4800,2024 10 17,09:00:39.990,-0.612697,0.54535,0.446706,0.35728,-1.766167,0.353038,0.120121,-34.606934,171.75293,352.233887,0,0
4801,2024 10 17,09:00:39.998,-0.612697,0.54535,0.446706,0.35728,-1.766167,0.353038,0.120121,-34.606934,171.75293,352.233887,0,0
4802,2024 10 17,09:00:40.006,-0.592176,0.538323,0.471529,0.3704,-1.923398,0.366222,0.076662,-47.607422,166.809082,365.844727,0,0
4803,2024 10 17,09:00:40.015,-0.569974,0.530559,0.495604,0.384725,-2.10651,0.335948,0.057131,-63.842773,160.522461,380.981445,0,0
4804,2024 10 17,09:00:40.023,-0.546281,0.521966,0.518627,0.400194,-2.32429,0.238289,0.084964,-77.453613,151.123047,393.005371,0,0
4805,2024 10 17,09:00:40.031,-0.521561,0.512412,0.540386,0.416403,-2.498123,0.067873,0.173833,-86.303711,140.869141,400.695801,0,0
4806,2024 10 17,09:00:40.040,-0.496302,0.501834,0.560991,0.432593,-2.596271,-0.244148,0.220222,-86.853027,132.568359,403.442383,0,0
4807,2024 10 17,09:00:40.048,-0.496302,0.501834,0.560991,0.432593,-2.596271,-0.244148,0.220222,-86.853027,132.568359,403.442383,0,0
4808,2024 10 17,09:00:40.056,-0.47102,0.490165,0.580804,0.447823,-2.659749,-0.772973,0.317392,-75.439453,131.04248,402.954102,0,0
4809,2024 10 17,09:00:40.065,-0.446088,0.477426,0.600444,0.461016,-2.69393,-1.312052,0.299326,-53.039551,133.544922,399.047852,0,0
4810,2024 10 17,09:00:40.073,-0.422025,0.463853,0.619805,0.471781,-2.759362,-1.809137,0.219733,-30.517578,135.742188,388.305664,0,0
4811,2024 10 17,09:00:40.081,-0.399249,0.450029,0.638078,0.480553,-2.921964,-2.216865,0.095218,-18.005371,127.13623,368.469238,0,0
4812,2024 10 17,09:00:40.090,-0.378884,0.436601,0.653725,0.488335,-2.780847,-2.69393,-0.049318,-18.066406,103.759766,332.702637,0,0
4813,2024 10 17,09:00:40.098,-0.378884,0.436601,0.653725,0.488335,-2.780847,-2.69393,-0.049318,-18.066406,103.759766,332.702637,0,0
4814,2024 10 17,09:00:40.106,-0.3613,0.425477,0.665953,0.494912,-2.173894,-3.252541,-0.209479,-26.489258,92.468262,273.986816,0,0
4815,2024 10 17,09:00:40.115,-0.345472,0.419515,0.674924,0.499134,-1.465865,-3.780877,-0.564959,-41.992188,116.394043,197.08252,0,0
4816,2024 10 17,09:00:40.123,-0.330203,0.420718,0.681386,0.499676,-0.898953,-3.872677,-1.216346,-49.377441,165.283203,109.558105,0,0
4817,2024 10 17,09:00:40.131,-0.316071,0.428817,0.684978,0.497011,-1.61333,-5.10416,-1.76812,-66.162109,201.293945,28.198242,0,0
4818,2024 10 17,09:00:40.140,-0.305182,0.440319,0.687516,0.490209,-2.987884,-5.031892,-1.736381,-18.676758,194.458008,-23.925781,0,0
4819,2024 10 17,09:00:40.148,-0.305182,0.440319,0.687516,0.490209,-2.987884,-5.031892,-1.736381,-18.676758,194.458008,-23.925781,0,0
4820,2024 10 17,09:00:40.156,-0.30576,0.44769,0.68635,0.484776,-2.594317,-4.240364,-1.315958,18.188477,23.681641,-67.321777,0,0
4821,2024 10 17,09:00:40.165,-0.317911,0.449258,0.68265,0.480717,-10.589679,1.482467,-1.390179,92.834473,-72.265625,-98.510742,0,0
4822,2024 10 17,09:00:40.173,-0.34555,0.456543,0.679335,0.458984,-1.871639,0.335948,-6.077822,-33.935547,-356.018066,-291.320801,0,0
4823,2024 10 17,09:00:40.181,-0.40246,0.443577,0.646328,0.472784,3.389264,4.927885,5.537767,90.942383,-627.990723,-343.200684,1,0
4824,2024 10 17,09:00:40.190,-0.407622,0.467427,0.629656,0.467856,-2.628498,-1.1807,-2.03766,-96.984863,149.536133,-335.754395,0,0
4825,2024 10 17,09:00:40.198,-0.407622,0.467427,0.629656,0.467856,-2.628498,-1.1807,-2.03766,-96.984863,149.536133,-335.754395,0,0
4826,2024 10 17,09:00:40.206,-0.421437,0.484636,0.609748,0.464464,-2.627522,-0.410169,-1.443403,-220.458984,-179.56543,-292.358398,0,0
4827,2024 10 17,09:00:40.215,-0.437739,0.493569,0.581548,0.476,-1.164586,-1.809137,0.248055,-98.571777,-208.251953,-229.064941,0,0
4828,2024 10 17,09:00:40.223,-0.450228,0.496283,0.573325,0.471483,-1.87994,-0.212897,-0.422376,47.424316,-99.060059,-123.901367,0,0
4829,2024 10 17,09:00:40.231,-0.462138,0.493707,0.562667,0.475487,-0.83401,0.239753,0.677267,-9.460449,-157.470703,-74.584961,0,0
4830,2024 10 17,09:00:40.240,-0.467989,0.493092,0.554071,0.48047,-1.151891,0.077151,0.039064,-57.983398,-125.305176,-47.241211,0,0
4831,2024 10 17,09:00:40.248,-0.474784,0.491331,0.543419,0.48772,-0.993683,-0.161626,0.169439,-45.166016,-149.414063,-46.203613,0,0
4832,2024 10 17,09:00:40.256,-0.474784,0.491331,0.543419,0.48772,-0.993683,-0.161626,0.169439,-45.166016,-149.414063,-46.203613,0,0
4833,2024 10 17,09:00:40.265,-0.482317,0.488068,0.533941,0.494032,-0.986847,0.129398,-0.150395,-37.902832,-158.752441,-35.888672,0,0
4834,2024 10 17,09:00:40.273,-0.487845,0.485078,0.52363,0.502512,-0.948271,0.145024,0.252937,-68.115234,-147.033691,-21.911621,0,0
4835,2024 10 17,09:00:40.281,-0.491732,0.483459,0.514249,0.509917,-0.659688,-0.192389,-0.534196,-65.124512,-121.398926,-25.695801,0,0
4836,2024 10 17,09:00:40.290,-0.495847,0.481693,0.508145,0.513709,-0.391614,-0.101077,-0.722678,-6.347656,-69.030762,-23.55957,0,0
4837,2024 10 17,09:00:40.298,-0.497479,0.48106,0.506126,0.514716,-1.048372,0.042482,0.127934,-15.991211,-22.460938,-8.056641,0,0
4838,2024 10 17,09:00:40.306,-0.497479,0.48106,0.506126,0.514716,-1.048372,0.042482,0.127934,-15.991211,-22.460938,-8.056641,0,0
4839,2024 10 17,09:00:40.315,-0.499258,0.480467,0.50429,0.515349,-0.779321,0.170904,-0.212897,6.713867,-27.038574,-15.869141,0,0
4840,2024 10 17,09:00:40.323,-0.500372,0.480507,0.50328,0.515219,-0.975127,0.036622,-0.038575,2.319336,-6.591797,-13.671875,0,0
4841,2024 10 17,09:00:40.331,-0.501863,0.48049,0.502745,0.514306,-0.944365,0.088382,-0.061525,8.728027,-6.896973,-17.76123,0,0
4842,2024 10 17,09:00:40.340,-0.503458,0.480647,0.502235,0.513096,-0.948759,0.120121,-0.068361,13.977051,-3.540039,-20.812988,0,0
4843,2024 10 17,09:00:40.348,-0.504932,0.48096,0.501759,0.511819,-0.952666,0.097659,-0.072268,10.192871,-1.708984,-21.057129,0,0
4844,2024 10 17,09:00:40.356,-0.504932,0.48096,0.501759,0.511819,-0.952666,0.097659,-0.072268,10.192871,-1.708984,-21.057129,0,0
4845,2024 10 17,09:00:40.365,-0.506219,0.481488,0.50121,0.510589,-0.983917,0.092288,-0.047365,6.469727,-0.366211,-20.996094,0,0
4846,2024 10 17,09:00:40.373,-0.50739,0.482071,0.500455,0.509616,-0.935575,0.095706,-0.078616,3.356934,-2.563477,-19.958496,0,0
4847,2024 10 17,09:00:40.381,-0.508284,0.482759,0.499597,0.508915,-0.923368,0.08887,-0.086917,-0.915527,-1.525879,-17.578125,0,0
4848,2024 10 17,09:00:40.390,-0.508796,0.483696,0.498777,0.508317,-0.913114,0.077151,-0.146489,-5.981445,2.13623,-16.418457,0,0
4849,2024 10 17,09:00:40.398,-0.509048,0.484777,0.497978,0.507818,-0.923856,0.092288,-0.052248,-6.591797,4.760742,-14.831543,0,0
4850,2024 10 17,09:00:40.406,-0.509048,0.484777,0.497978,0.507818,-0.923856,0.092288,-0.052248,-6.591797,4.760742,-14.831543,0,0
4851,2024 10 17,09:00:40.415,-0.509025,0.486025,0.49732,0.507293,-0.933134,0.071291,-0.109867,-8.972168,6.225586,-13.977051,0,0
4852,2024 10 17,09:00:40.423,-0.508931,0.487305,0.496591,0.506874,-0.947783,0.052248,-0.028321,-10.131836,7.019043,-13.305664,0,0
4853,2024 10 17,09:00:40.431,-0.508885,0.488541,0.495919,0.506388,-0.975127,0.063478,-0.052736,-8.361816,5.249023,-13.549805,0,0
4854,2024 10 17,09:00:40.440,-0.509063,0.489545,0.495077,0.506062,-0.944365,0.066408,-0.06299,-7.69043,1.342773,-13.73291,0,0
4855,2024 10 17,09:00:40.448,-0.509323,0.490526,0.494143,0.505764,-0.93704,0.081057,-0.085452,-8.544922,0.549316,-14.648438,0,0
4856,2024 10 17,09:00:40.456,-0.509323,0.490526,0.494143,0.505764,-0.93704,0.081057,-0.085452,-8.544922,0.549316,-14.648438,0,0
4857,2024 10 17,09:00:40.465,-0.509468,0.49168,0.493209,0.505409,-0.927763,0.061037,-0.02588,-9.460449,4.089355,-15.319824,0,0
4858,2024 10 17,09:00:40.473,-0.509461,0.493235,0.492193,0.504891,-0.969268,0.065432,-0.100589,-11.169434,6.225586,-18.676758,0,0
4859,2024 10 17,09:00:40.481,-0.50953,0.494872,0.491091,0.504292,-0.950224,-0.014161,-0.078616,-15.136719,7.080078,-19.958496,0,0
4860,2024 10 17,09:00:40.490,-0.509769,0.49654,0.490152,0.503324,-0.98001,0.049806,-0.052248,-7.873535,8.056641,-22.399902,0,0
4861,2024 10 17,09:00:40.498,-0.510373,0.497986,0.489004,0.502398,-0.958037,0.041017,-0.053713,-4.638672,2.441406,-24.475098,0,0
4862,2024 10 17,09:00:40.506,-0.510373,0.497986,0.489004,0.502398,-0.958037,0.041017,-0.053713,-4.638672,2.441406,-24.475098,0,0
4863,2024 10 17,09:00:40.515,-0.511241,0.499213,0.487798,0.501469,-0.941435,-0.00293,-0.076174,-4.516602,0.793457,-24.536133,0,0
4864,2024 10 17,09:00:40.523,-0.512314,0.500272,0.486776,0.500311,-0.943876,0.035157,-0.068361,0.854492,0.549316,-24.902344,0,0
4865,2024 10 17,09:00:40.531,-0.513459,0.5012,0.485748,0.499206,-0.953642,0.015137,-0.054201,2.563477,-0.732422,-24.169922,0,0
4866,2024 10 17,09:00:40.540,-0.514771,0.50193,0.48479,0.498051,-0.935087,-0.00293,-0.054689,4.089355,-2.685547,-23.986816,0,0
4867,2024 10 17,09:00:40.548,-0.516218,0.502498,0.483907,0.496839,-0.949736,0.011231,-0.059572,7.141113,-2.868652,-23.742676,0,0
4868,2024 10 17,09:00:40.556,-0.516218,0.502498,0.483907,0.496839,-0.949736,0.011231,-0.059572,7.141113,-2.868652,-23.742676,0,0
4869,2024 10 17,09:00:40.565,-0.517777,0.502961,0.483023,0.495607,-0.971221,0.011231,-0.0459,8.605957,-4.150391,-24.475098,0,0
4870,2024 10 17,09:00:40.573,-0.519572,0.503331,0.48213,0.49422,-0.999542,0.030763,-0.045412,11.413574,-5.249023,-26.611328,0,0
4871,2024 10 17,09:00:40.581,-0.521659,0.503657,0.481078,0.492712,-1.00882,0.032716,-0.063478,13.061523,-7.568359,-30.029297,0,0
4872,2024 10 17,09:00:40.590,-0.524021,0.504091,0.479944,0.490864,-1.02884,0.021485,-0.076662,14.892578,-5.92041,-35.15625,0,0
4873,2024 10 17,09:00:40.598,-0.526713,0.504705,0.478696,0.488565,-1.07181,0.014649,-0.052248,17.63916,-5.554199,-41.564941,0,0
4874,2024 10 17,09:00:40.606,-0.529918,0.505471,0.477265,0.4857,-1.135289,0.041017,-0.057619,17.63916,-5.554199,-41.564941,0,0
4875,2024 10 17,09:00:40.615,-0.529918,0.505471,0.477265,0.4857,-1.135289,0.041017,-0.057619,22.766113,-5.126953,-50.720215,0,0
4876,2024 10 17,09:00:40.623,-0.533679,0.506483,0.475399,0.482345,-1.16361,0.057619,-0.045412,24.475098,-7.263184,-61.035156,0,0
4877,2024 10 17,09:00:40.631,-0.537876,0.507822,0.472994,0.478626,-1.212928,0.071291,-0.080081,22.094727,-9.033203,-70.556641,0,0
4878,2024 10 17,09:00:40.640,-0.542559,0.509636,0.469954,0.474388,-1.257363,0.110355,-0.075686,22.338867,-9.521484,-83.740234,0,0
4879,2024 10 17,09:00:40.648,-0.547652,0.512099,0.466063,0.469698,-1.303751,0.120121,-0.109867,17.76123,-10.620117,-97.839355,0,0
4880,2024 10 17,09:00:40.656,-0.553177,0.515287,0.461214,0.464495,-1.350139,0.125004,-0.084475,12.390137,-12.756348,-113.342285,0,0
4881,2024 10 17,09:00:40.665,-0.553177,0.515287,0.461214,0.464495,-1.350139,0.125004,-0.084475,12.390137,-12.756348,-113.342285,0,0
4882,2024 10 17,09:00:40.673,-0.559168,0.519326,0.45528,0.458641,-1.473189,0.134281,-0.039552,7.8125,-13.427734,-132.019043,0,0
4883,2024 10 17,09:00:40.681,-0.565947,0.52405,0.447832,0.452241,-1.529832,0.15479,0.000488,2.868652,-23.4375,-153.198242,0,0
4884,2024 10 17,09:00:40.690,-0.573614,0.529515,0.438567,0.445242,-1.614795,0.206061,0.01709,-3.295898,-30.944824,-177.490234,0,0
4885,2024 10 17,09:00:40.698,-0.581924,0.536079,0.42718,0.437609,-1.759331,0.263192,0.006348,-16.357422,-39.794922,-205.444336,0,0
4886,2024 10 17,09:00:40.706,-0.591158,0.543843,0.413337,0.428859,-1.98883,0.317881,-0.018067,-22.644043,-46.569824,-241.577148,0,0
4887,2024 10 17,09:00:40.715,-0.591158,0.543843,0.413337,0.428859,-1.98883,0.317881,-0.018067,-22.644043,-46.569824,-241.577148,0,0
4888,2024 10 17,09:00:40.723,-0.602016,0.552598,0.397036,0.417822,-2.389721,0.429212,-0.052736,-17.028809,-52.734375,-289.489746,0,0
4889,2024 10 17,09:00:40.731,-0.615324,0.562073,0.377246,0.4039,-2.866298,0.558611,0.133793,-11.657715,-69.274902,-351.745605,0,0
4890,2024 10 17,09:00:40.740,-0.630929,0.572589,0.352646,0.386925,-3.549425,0.584979,-0.103519,-14.587402,-89.538574,-423.76709,0,0
4891,2024 10 17,09:00:40.748,-0.64886,0.583582,0.321961,0.367088,-3.8258,0.409192,0.175298,-21.240234,-130.065918,-499.206543,0,0
4892,2024 10 17,09:00:40.756,-0.667029,0.594632,0.284753,0.346987,-3.445418,-0.076663,-0.036134,-49.499512,-171.386719,-535.095215,0,0
4893,2024 10 17,09:00:40.765,-0.667029,0.594632,0.284753,0.346987,-3.445418,-0.076662,-0.036134,-49.499512,-171.386719,-535.095215,0,0
4894,2024 10 17,09:00:40.773,-0.684165,0.605127,0.245369,0.324859,-3.074801,-0.672384,-0.027345,-44.311523,-164.916992,-551.452637,0,0
4895,2024 10 17,09:00:40.781,-0.700391,0.612866,0.207416,0.301374,-3.136815,-0.179205,0.138188,-16.235352,-148.4375,-530.761719,0,0
4896,2024 10 17,09:00:40.790,-0.715248,0.617888,0.170741,0.278357,-3.254005,0.474624,0.298837,-0.12207,-162.109375,-518.188477,0,0
4897,2024 10 17,09:00:40.798,-0.729895,0.619662,0.133714,0.255718,-2.483474,1.25248,1.012726,18.737793,-166.19873,-509.765625,0,0
4898,2024 10 17,09:00:40.806,-0.742443,0.620932,0.099035,0.231116,-1.672414,1.645558,0.897488,17.76123,-124.87793,-506.713867,0,0
4899,2024 10 17,09:00:40.815,-0.742443,0.620932,0.099035,0.231116,-1.672414,1.645558,0.897488,17.76123,-124.87793,-506.713867,0,0
4900,2024 10 17,09:00:40.823,-0.753632,0.622184,0.068216,0.200682,-1.017609,1.106967,1.35551,24.169922,-29.11377,-524.597168,0,0
4901,2024 10 17,09:00:40.831,-0.765891,0.621311,0.044077,0.159501,-0.631855,0.449232,1.042512,104.064941,100.036621,-579.711914,0,1
4902,2024 10 17,09:00:40.840,-0.780111,0.613079,0.028322,0.121487,2.514237,0.455092,1.766167,193.481445,98.815918,-388.305664,0,0
4903,2024 10 17,09:00:40.848,-0.788991,0.604368,0.037241,0.104144,-0.034181,2.633869,-0.017579,117.492676,242.675781,-3.051758,0,0
4904,2024 10 17,09:00:40.856,-0.792063,0.598344,0.064459,0.102301,-1.870174,2.695395,0.214362,114.624023,219.787598,207.458496,0,0
4905,2024 10 17,09:00:40.865,-0.792063,0.598344,0.064459,0.102301,-1.870174,2.695395,0.214362,114.624023,219.787598,207.458496,0,0
4906,2024 10 17,09:00:40.873,-0.789763,0.595195,0.08811,0.119388,-1.569384,1.66509,0.239753,2.441406,58.349609,336.853027,0,0
4907,2024 10 17,09:00:40.881,-0.784374,0.593075,0.10872,0.145601,-1.55913,1.049348,0.454604,-27.46582,-9.216309,387.329102,0,0
4908,2024 10 17,09:00:40.890,-0.778065,0.59017,0.124552,0.175502,-0.905301,0.58449,0.940458,-17.39502,-71.594238,374.816895,0,0
4909,2024 10 17,09:00:40.898,-0.771875,0.586661,0.138975,0.201801,-0.083987,0.337901,0.570818,-16.662598,-38.818359,334.106445,0,0
