frame,date,time,quaternion_x,quaternion_y,quaternion_z,quaternion_w,accel_x,accel_y,accel_z,gyro_x,gyro_y,gyro_z,HS,TO
3985,2024 10 17,09:00:33.198,0.814758,0.406502,-0.409415,0.057492,-0.866237,0.201178,-0.203619,-9.033203,-140.869141,253.90625,0,0
3986,2024 10 17,09:00:33.207,0.808291,0.397159,-0.428977,0.07006,-0.997101,0.185553,-0.161626,-12.268066,-147.033691,252.685547,0,0
3987,2024 10 17,09:00:33.215,0.801265,0.387292,-0.448551,0.082349,-1.075716,0.176763,-0.117679,-16.113281,-150.817871,253.479004,0,0
3988,2024 10 17,09:00:33.223,0.793721,0.376781,-0.468109,0.09443,-1.127964,0.147954,-0.114261,-20.751953,-153.198242,255.554199,0,0
3989,2024 10 17,09:00:33.232,0.785595,0.365609,-0.487746,0.10618,-1.196326,0.130375,-0.072756,-26.184082,-159.179688,257.019043,0,0
3990,2024 10 17,09:00:33.240,0.785595,0.365609,-0.487746,0.10618,-1.196326,0.130375,-0.072756,-26.184082,-159.179688,257.019043,0,0
3991,2024 10 17,09:00:33.248,0.776766,0.353828,-0.507584,0.117466,-1.294473,0.158696,-0.033204,-31.494141,-166.259766,257.93457,0,0
3992,2024 10 17,09:00:33.257,0.76721,0.341525,-0.527512,0.128377,-1.393109,0.196295,0.012696,-34.606934,-172.058105,258.972168,0,0
3993,2024 10 17,09:00:33.265,0.756855,0.328908,-0.547387,0.13913,-1.509323,0.232429,0.082034,-34.301758,-176.147461,260.131836,0,0
3994,2024 10 17,09:00:33.273,0.74576,0.316147,-0.566929,0.149948,-1.603565,0.24366,0.093265,-30.944824,-177.734375,261.657715,0,0
3995,2024 10 17,09:00:33.282,0.733812,0.303459,-0.586145,0.160831,-1.70513,0.233894,0.13477,-25.756836,-180.419922,261.657715,0,0
3996,2024 10 17,09:00:33.290,0.733812,0.303459,-0.586145,0.160831,-1.70513,0.233894,0.13477,-25.756836,-180.419922,261.657715,0,0
3997,2024 10 17,09:00:33.298,0.721067,0.291046,-0.60487,0.171721,-1.802301,0.203619,0.137211,-19.53125,-182.678223,259.521484,0,0
3998,2024 10 17,09:00:33.307,0.707529,0.279128,-0.623044,0.182501,-1.907773,0.14893,0.179693,-12.207031,-185.302734,254.516602,0,0
3999,2024 10 17,09:00:33.315,0.693286,0.26794,-0.640538,0.193065,-2.001038,0.087893,0.204108,-4.089355,-187.37793,246.887207,0,0
4000,2024 10 17,09:00:33.323,0.678347,0.2577,-0.657323,0.203378,-2.049379,0.023438,0.284188,5.432129,-190.673828,237.915039,0,0
4001,2024 10 17,09:00:33.332,0.662533,0.248287,-0.673641,0.213569,-2.12067,-0.028809,0.374035,14.343262,-197.509766,233.947754,0,0
4002,2024 10 17,09:00:33.340,0.662533,0.248287,-0.673641,0.213569,-2.12067,-0.028809,0.374035,14.343262,-197.509766,233.947754,0,0
4003,2024 10 17,09:00:33.348,0.645877,0.239083,-0.689454,0.224356,-2.237373,-0.117679,0.453139,24.902344,-197.44873,241.027832,0,0
4004,2024 10 17,09:00:33.356,0.628752,0.229556,-0.704315,0.236462,-2.364818,-0.294931,0.538102,36.865234,-188.354492,253.78418,0,0
4005,2024 10 17,09:00:33.365,0.611847,0.219557,-0.717618,0.249925,-2.415113,-0.593768,0.548357,47.546387,-168.701172,262.939453,0,0
4006,2024 10 17,09:00:33.373,0.595824,0.209427,-0.728975,0.264066,-2.333079,-1.05179,0.508316,54.931641,-146.179199,260.559082,0,0
4007,2024 10 17,09:00:33.381,0.580833,0.200056,-0.738617,0.277589,-2.133854,-1.526414,0.545915,56.396484,-132.141113,241.455078,0,0
4008,2024 10 17,09:00:33.390,0.580833,0.200056,-0.738617,0.277589,-2.133854,-1.526414,0.545915,56.396484,-132.141113,241.455078,0,0
4009,2024 10 17,09:00:33.398,0.566694,0.1924,-0.747088,0.289308,-1.903378,-1.881405,0.673849,53.710938,-130.004883,209.106445,0,0
4010,2024 10 17,09:00:33.406,0.553243,0.18722,-0.754746,0.298713,-1.73394,-2.117252,0.934111,51.818848,-133.850098,168.701172,0,0
4011,2024 10 17,09:00:33.415,0.540704,0.184933,-0.761497,0.305877,-1.594775,-2.263741,1.23246,52.79541,-135.803223,125.12207,0,0
4012,2024 10 17,09:00:33.423,0.529381,0.185461,-0.767084,0.311354,-1.559618,-2.376537,1.542039,57.678223,-129.821777,85.266113,0,0
4013,2024 10 17,09:00:33.431,0.520222,0.188083,-0.770811,0.315982,-1.689993,-2.561113,1.703177,65.368652,-105.46875,52.307129,0,0
4014,2024 10 17,09:00:33.440,0.520222,0.188083,-0.770811,0.315982,-1.689993,-2.561113,1.703177,65.368652,-105.46875,52.307129,0,0
4015,2024 10 17,09:00:33.448,0.514701,0.191791,-0.771897,0.320115,-1.805719,-2.77987,1.619678,67.443848,-57.434082,22.583008,0,0
4016,2024 10 17,09:00:33.456,0.513916,0.195656,-0.770102,0.323345,-1.699759,-2.892178,1.311563,57.983398,0.244141,-6.835938,0,0
4017,2024 10 17,09:00:33.465,0.517185,0.199436,-0.766392,0.324636,-1.407758,-2.7828,0.981964,36.010742,39.123535,-36.560059,0,0
4018,2024 10 17,09:00:33.473,0.522541,0.203157,-0.762308,0.323365,-1.207556,-2.4073,0.757836,9.399414,49.194336,-58.837891,0,0
4019,2024 10 17,09:00:33.481,0.526893,0.213723,-0.763273,0.30679,-1.228065,0.059572,4.382458,-120.544434,-110.839844,-265.686035,1,0
4020,2024 10 17,09:00:33.490,0.526893,0.213723,-0.763273,0.30679,-1.228065,0.059572,4.382458,-120.544434,-110.839844,-265.686035,0,0
4021,2024 10 17,09:00:33.498,0.551563,0.21486,-0.751349,0.2917,-0.443861,1.82281,-2.982025,-184.692383,310.058594,-219.482422,0,0
4022,2024 10 17,09:00:33.506,0.561905,0.222571,-0.747426,0.275824,-1.103061,0.768578,-1.300821,-106.750488,-47.729492,-229.797363,0,0
4023,2024 10 17,09:00:33.515,0.567491,0.234987,-0.745863,0.257728,-1.797418,0.26075,1.208045,-46.081543,42.480469,-245.422363,0,0
4024,2024 10 17,09:00:33.523,0.582102,0.246842,-0.733393,0.249723,-1.092807,-0.231452,-1.14359,14.343262,127.990723,-221.862793,0,0
4025,2024 10 17,09:00:33.531,0.58801,0.259542,-0.726595,0.242778,-2.031312,-0.136723,0.887234,29.846191,38.146973,-173.64502,0,0
4026,2024 10 17,09:00:33.540,0.599797,0.265765,-0.715167,0.24114,-1.279824,-0.113773,-0.178228,24.108887,178.588867,-116.210938,0,0
4027,2024 10 17,09:00:33.548,0.599797,0.265765,-0.715167,0.24114,-1.279824,-0.113773,-0.178228,24.108887,178.588867,-116.210938,0,0
4028,2024 10 17,09:00:33.556,0.610058,0.269987,-0.704649,0.241671,-1.040071,-0.053713,-0.045412,33.02002,126.831055,-83.740234,0,0
4029,2024 10 17,09:00:33.565,0.617149,0.273911,-0.696179,0.243793,-1.096713,-0.115238,0.152837,50.90332,113.15918,-54.6875,0,0
4030,2024 10 17,09:00:33.573,0.623336,0.276592,-0.688238,0.247543,-0.950713,-0.182134,-0.125492,48.76709,102.905273,-31.921387,0,0
4031,2024 10 17,09:00:33.581,0.627902,0.278265,-0.682516,0.249959,-1.027375,0.00293,0.104984,28.869629,74.707031,-24.780273,0,0
4032,2024 10 17,09:00:33.590,0.632211,0.279314,-0.677119,0.252592,-0.994171,0.067873,-0.079592,30.700684,77.819824,-17.333984,0,0
4033,2024 10 17,09:00:33.598,0.632211,0.279314,-0.677119,0.252592,-0.994171,0.067873,-0.079592,30.700684,77.819824,-17.333984,0,0
4034,2024 10 17,09:00:33.606,0.635681,0.280507,-0.672164,0.255776,-0.989776,-0.029298,-0.008789,37.414551,66.223145,-10.986328,0,0
4035,2024 10 17,09:00:33.615,0.638741,0.281424,-0.667637,0.258983,-0.989288,-0.035157,0.056642,34.362793,63.903809,-5.737305,0,0
4036,2024 10 17,09:00:33.623,0.641456,0.281979,-0.663623,0.261967,-0.93704,0.012207,0.020508,28.625488,53.527832,-2.929688,0,0
4037,2024 10 17,09:00:33.631,0.643248,0.282562,-0.660664,0.264412,-0.958037,-0.012207,0.100101,24.780273,38.024902,-1.342773,0,0
4038,2024 10 17,09:00:33.640,0.644711,0.282976,-0.658343,0.266191,-0.954619,-0.012696,0.036622,17.333984,29.724121,-2.258301,0,0
4039,2024 10 17,09:00:33.648,0.644711,0.282976,-0.658343,0.266191,-0.954619,-0.012696,0.036622,17.333984,29.724121,-2.258301,0,0
4040,2024 10 17,09:00:33.656,0.645712,0.283307,-0.656793,0.267237,-0.987823,-0.002441,0.047853,10.620117,18.554688,-2.990723,0,0
4041,2024 10 17,09:00:33.665,0.646507,0.283508,-0.655662,0.267879,-0.986847,0.004395,0.050783,6.958008,14.953613,-2.868652,0,0
4042,2024 10 17,09:00:33.673,0.647146,0.283583,-0.65485,0.268244,-0.987823,0.023927,0.041017,2.929688,10.070801,-2.441406,0,0
4043,2024 10 17,09:00:33.681,0.647637,0.283585,-0.654276,0.268456,-1.007843,0.035157,0.042482,1.464844,8.056641,-2.01416,0,0
4044,2024 10 17,09:00:33.690,0.648106,0.283563,-0.653739,0.268656,-1.014679,0.034181,0.028321,1.220703,7.629395,-1.77002,0,0
4045,2024 10 17,09:00:33.698,0.648106,0.283563,-0.653739,0.268656,-1.014679,0.034181,0.028321,1.220703,7.629395,-1.77002,0,0
4046,2024 10 17,09:00:33.706,0.648564,0.283541,-0.653238,0.268793,-1.024445,0.044435,0.044923,1.098633,7.385254,-2.380371,0,0
4047,2024 10 17,09:00:33.715,0.64908,0.283563,-0.65267,0.268904,-1.010773,0.04297,0.038087,0.915527,8.178711,-3.479004,0,0
4048,2024 10 17,09:00:33.723,0.649614,0.28363,-0.652119,0.268882,-1.01175,0.042482,0.034181,0.0,7.263184,-4.882813,0,0
4049,2024 10 17,09:00:33.731,0.650236,0.283742,-0.651515,0.268723,-1.026399,0.049318,0.024903,-0.671387,8.544922,-6.774902,0,0
4050,2024 10 17,09:00:33.740,0.651023,0.28389,-0.650768,0.268471,-1.014191,0.047365,0.049318,-1.037598,10.314941,-8.666992,0,0
4051,2024 10 17,09:00:33.748,0.651023,0.28389,-0.650768,0.268471,-1.014191,0.047365,0.049318,-1.037598,10.314941,-8.666992,0,0
4052,2024 10 17,09:00:33.756,0.651907,0.284114,-0.649914,0.268157,-1.022004,0.061037,0.035646,-0.671387,10.986328,-10.375977,0,0
4053,2024 10 17,09:00:33.765,0.652896,0.284463,-0.648871,0.267907,-1.007355,0.038087,0.051271,0.915527,13.85498,-11.71875,0,0
4054,2024 10 17,09:00:33.773,0.654005,0.284835,-0.647674,0.267704,-0.991241,0.031251,0.067873,1.525879,15.075684,-11.962891,0,0
4055,2024 10 17,09:00:33.781,0.655101,0.285222,-0.646469,0.267522,-1.004425,0.026856,0.054689,1.403809,15.075684,-11.962891,0,0
4056,2024 10 17,09:00:33.790,0.656229,0.285601,-0.645238,0.267327,-1.02298,0.035646,0.04883,1.77002,15.869141,-12.145996,0,0
4057,2024 10 17,09:00:33.798,0.656229,0.285601,-0.645238,0.267327,-1.02298,0.035646,0.04883,1.77002,15.869141,-12.145996,0,0
4058,2024 10 17,09:00:33.806,0.657462,0.286012,-0.643837,0.267236,-1.018586,0.012207,0.033204,2.319336,18.554688,-12.634277,0,0
4059,2024 10 17,09:00:33.815,0.6588,0.286338,-0.642414,0.267014,-0.991729,0.024903,0.062502,0.366211,18.371582,-13.427734,0,0
4060,2024 10 17,09:00:33.823,0.660102,0.286685,-0.641071,0.266657,-0.978057,0.020997,0.095218,-0.427246,16.723633,-14.282227,0,0
4061,2024 10 17,09:00:33.831,0.661318,0.287078,-0.639847,0.266159,-0.966826,0.014161,0.089846,-1.220703,14.099121,-15.014648,0,0
4062,2024 10 17,09:00:33.840,0.662357,0.287533,-0.638856,0.265462,-0.984893,0.021485,0.069338,-2.624512,10.131836,-15.686035,0,0
4063,2024 10 17,09:00:33.848,0.662357,0.287533,-0.638856,0.265462,-0.984893,0.021485,0.069338,-2.624512,10.131836,-15.686035,0,0
4064,2024 10 17,09:00:33.856,0.663305,0.288058,-0.637963,0.264674,-0.992706,0.026856,0.095218,-1.831055,8.972168,-16.174316,0,0
4065,2024 10 17,09:00:33.865,0.664186,0.288722,-0.63703,0.263988,-0.999542,0.005371,0.097171,0.366211,8.728027,-16.113281,0,0
4066,2024 10 17,09:00:33.873,0.665009,0.28948,-0.636087,0.263359,-1.025422,0.002441,0.060549,1.708984,8.239746,-16.357422,0,0
4067,2024 10 17,09:00:33.881,0.665819,0.290326,-0.635086,0.262795,-1.018586,0.014649,0.080569,3.234863,9.277344,-16.540527,0,0
4068,2024 10 17,09:00:33.890,0.666667,0.291221,-0.633945,0.26241,-1.021516,0.003906,0.089358,4.455566,10.742188,-16.357422,0,0
4069,2024 10 17,09:00:33.898,0.666667,0.291221,-0.633945,0.26241,-1.021516,0.003906,0.089358,4.455566,10.742188,-16.357422,0,0
4070,2024 10 17,09:00:33.906,0.667485,0.292261,-0.632718,0.262135,-1.061068,0.006836,0.041993,7.93457,10.864258,-16.723633,0,0
4071,2024 10 17,09:00:33.915,0.668297,0.293491,-0.631418,0.261825,-1.039582,0.022462,0.104007,8.850098,11.413574,-19.104004,0,0
4072,2024 10 17,09:00:33.923,0.66907,0.295005,-0.63005,0.261448,-1.032746,0.018067,0.087405,10.070801,8.728027,-22.277832,0,0
4073,2024 10 17,09:00:33.931,0.669721,0.296832,-0.628797,0.260728,-1.057649,0.040529,0.123539,10.925293,5.249023,-26.489258,0,0
4074,2024 10 17,09:00:33.940,0.670281,0.299114,-0.627549,0.259685,-1.124546,0.016114,0.086917,11.962891,2.01416,-32.653809,0,0
4075,2024 10 17,09:00:33.948,0.670281,0.299114,-0.627549,0.259685,-1.124546,0.016114,0.086917,11.962891,2.01416,-32.653809,0,0
4076,2024 10 17,09:00:33.956,0.670898,0.301851,-0.626169,0.258251,-1.175329,0.009278,0.072268,14.343262,2.380371,-39.428711,0,0
4077,2024 10 17,09:00:33.965,0.671786,0.304911,-0.624551,0.256258,-1.239784,0.030274,0.12598,9.155273,2.563477,-49.133301,0,0
4078,2024 10 17,09:00:33.973,0.673081,0.308373,-0.622734,0.253124,-1.330607,0.030763,0.100589,3.540039,1.220703,-63.720703,0,0
4079,2024 10 17,09:00:33.981,0.674806,0.312421,-0.62066,0.248618,-1.433149,-0.041505,-0.036622,-3.112793,0.366211,-81.176758,0,0
4080,2024 10 17,09:00:33.990,0.677208,0.316696,-0.618084,0.243031,-1.464888,0.021485,0.029298,-7.873535,7.873535,-93.139648,0,0
4081,2024 10 17,09:00:33.998,0.68047,0.321296,-0.614307,0.237395,-1.536668,0.104007,0.136235,-3.78418,21.972656,-103.210449,0,0
4082,2024 10 17,09:00:34.006,0.68047,0.321296,-0.614307,0.237395,-1.536668,0.104007,0.136235,-3.78418,21.972656,-103.210449,0,0
4083,2024 10 17,09:00:34.015,0.684184,0.326861,-0.609622,0.23112,-1.554735,0.182134,0.24073,-0.976563,24.841309,-122.619629,0,0
4084,2024 10 17,09:00:34.023,0.688345,0.333697,-0.603691,0.224463,-1.497116,0.137211,0.133305,9.155273,34.057617,-139.282227,0,0
4085,2024 10 17,09:00:34.031,0.692493,0.341899,-0.597019,0.217085,-1.617725,0.175298,0.160649,16.845703,29.907227,-158.813477,0,0
4086,2024 10 17,09:00:34.040,0.69677,0.351491,-0.58953,0.208374,-1.754448,0.183599,0.256844,18.249512,31.921387,-184.448242,0,0
4087,2024 10 17,09:00:34.048,0.702097,0.362097,-0.580194,0.198296,-1.849177,0.190435,-0.02295,17.76123,47.363281,-212.82959,0,0
4088,2024 10 17,09:00:34.056,0.702097,0.362097,-0.580194,0.198296,-1.849177,0.190435,-0.02295,17.76123,47.363281,-212.82959,0,0
4089,2024 10 17,09:00:34.065,0.707851,0.374036,-0.569538,0.186202,-2.102115,0.2378,-0.063967,14.343262,47.546387,-247.314453,0,0
4090,2024 10 17,09:00:34.073,0.714417,0.387341,-0.556852,0.171729,-2.350658,0.375988,0.00293,12.878418,61.096191,-288.269043,0,0
4091,2024 10 17,09:00:34.081,0.722261,0.402185,-0.540875,0.15505,-2.749596,0.480483,-0.204596,9.521484,83.190918,-338.684082,0,0
4092,2024 10 17,09:00:34.090,0.731181,0.418824,-0.521129,0.135587,-3.237403,0.454604,-0.278329,11.71875,109.741211,-394.470215,0,0
4093,2024 10 17,09:00:34.098,0.741075,0.437104,-0.496939,0.113138,-3.711051,0.487808,-0.025391,8.605957,135.925293,-454.223633,0,0
4094,2024 10 17,09:00:34.106,0.741075,0.437104,-0.496939,0.113138,-3.711051,0.487808,-0.025391,8.605957,135.925293,-454.223633,0,0
4095,2024 10 17,09:00:34.115,0.752146,0.456624,-0.466587,0.089821,-3.496201,0.250496,-0.026856,18.859863,196.289063,-499.328613,0,0
4096,2024 10 17,09:00:34.123,0.7621,0.477475,-0.43232,0.065736,-3.698843,-0.15772,-0.135746,40.588379,202.575684,-527.709961,0,0
4097,2024 10 17,09:00:34.131,0.770691,0.497488,-0.396009,0.041439,-3.532823,0.019044,0.055177,33.569336,224.54834,-529.11377,0,1
4098,2024 10 17,09:00:34.140,0.778709,0.515117,-0.357655,0.018714,-3.100192,0.381359,-0.428724,20.874023,242.126465,-511.779785,0,0
4099,2024 10 17,09:00:34.148,0.785288,0.530033,-0.319962,-0.003445,-2.854579,0.890164,-0.253914,9.521484,233.642578,-495.849609,0,0
4100,2024 10 17,09:00:34.156,0.785288,0.530033,-0.319962,-0.003445,-2.854579,0.890164,-0.253914,9.521484,233.642578,-495.849609,0,0
4101,2024 10 17,09:00:34.165,0.790932,0.542765,-0.281469,-0.024624,-1.657765,1.527879,-1.231483,-1.525879,242.248535,-479.675293,0,0
4102,2024 10 17,09:00:34.173,0.792288,0.554841,-0.249148,-0.048553,-1.983459,1.542528,-0.787133,12.268066,120.727539,-469.299316,0,0
4103,2024 10 17,09:00:34.181,0.790999,0.565238,-0.220861,-0.077763,-0.954619,1.016633,-1.236854,-2.319336,74.21875,-491.760254,0,0
4104,2024 10 17,09:00:34.190,0.790296,0.570346,-0.195169,-0.109755,1.48735,0.646992,-1.975646,-91.674805,5.371094,-462.036133,0,0
4105,2024 10 17,09:00:34.198,0.793879,0.564378,-0.182525,-0.133862,2.128971,1.614795,-0.623066,-172.119141,-57.922363,-194.885254,0,0
4106,2024 10 17,09:00:34.206,0.793879,0.564378,-0.182525,-0.133862,2.128971,1.614795,-0.623066,-172.119141,-57.922363,-194.885254,0,0
4107,2024 10 17,09:00:34.215,0.799102,0.553191,-0.18822,-0.141384,-0.622578,1.887265,-0.030274,-124.816895,-118.347168,63.537598,0,0
4108,2024 10 17,09:00:34.223,0.806165,0.540904,-0.199833,-0.132617,-1.065462,1.903378,0.444838,-105.59082,-22.705078,220.703125,0,0
4109,2024 10 17,09:00:34.231,0.812588,0.531934,-0.210831,-0.110895,-0.908719,1.252968,-0.192389,-40.95459,43.334961,308.898926,0,0
4110,2024 10 17,09:00:34.240,0.817434,0.524646,-0.222083,-0.085012,-0.627949,0.809595,-0.162603,-11.901855,64.025879,330.13916,0,0
4111,2024 10 17,09:00:34.248,0.820845,0.51818,-0.232706,-0.05959,-0.297861,0.510269,-0.698264,-5.187988,47.119141,312.072754,0,0
4112,2024 10 17,09:00:34.256,0.820845,0.51818,-0.232706,-0.05959,-0.297861,0.510269,-0.698264,-5.187988,47.119141,312.072754,0,0
4113,2024 10 17,09:00:34.265,0.822358,0.511801,-0.245566,-0.038525,-0.146977,0.283212,-0.663594,-8.361816,-6.652832,283.630371,0,0
4114,2024 10 17,09:00:34.273,0.822765,0.504659,-0.260615,-0.021381,-0.107425,0.225105,-0.798853,-21.362305,-55.358887,265.441895,0,0
4115,2024 10 17,09:00:34.281,0.822052,0.496277,-0.279081,-0.007336,-0.322764,0.344249,-0.552751,-34.606934,-105.834961,263.48877,0,0
4116,2024 10 17,09:00:34.290,0.820569,0.486528,-0.299868,0.005995,-0.573748,0.477554,-0.489273,-42.175293,-128.540039,276.245117,0,0
4117,2024 10 17,09:00:34.298,0.818254,0.475659,-0.322181,0.020225,-0.815455,0.495621,-0.335459,-42.96875,-135.620117,297.180176,0,0
4118,2024 10 17,09:00:34.306,0.818254,0.475659,-0.322181,0.020225,-0.815455,0.495621,-0.335459,-42.96875,-135.620117,297.180176,0,0
4119,2024 10 17,09:00:34.315,0.815429,0.46371,-0.344574,0.036286,-0.861354,0.404309,-0.353038,-43.212891,-125.244141,317.321777,0,0
4120,2024 10 17,09:00:34.323,0.811966,0.450672,-0.367091,0.053378,-0.804224,0.274911,-0.391125,-47.424316,-126.586914,330.810547,0,0
4121,2024 10 17,09:00:34.331,0.807534,0.436409,-0.390536,0.070124,-0.770043,0.187506,-0.445814,-57.739258,-144.65332,337.097168,0,0
4122,2024 10 17,09:00:34.340,0.801725,0.420839,-0.415727,0.085454,-0.820338,0.190435,-0.404797,-71.472168,-174.804688,339.355469,0,0
4123,2024 10 17,09:00:34.348,0.794298,0.403993,-0.442768,0.09918,-0.989288,0.248054,-0.379406,-84.106445,-206.176758,340.698242,0,0
4124,2024 10 17,09:00:34.356,0.794298,0.403993,-0.442768,0.09918,-0.989288,0.248054,-0.379406,-84.106445,-206.176758,340.698242,0,0
4125,2024 10 17,09:00:34.365,0.784929,0.386305,-0.471434,0.111378,-1.25248,0.294931,-0.205573,-90.332031,-235.351563,339.72168,0,0
4126,2024 10 17,09:00:34.373,0.773908,0.3681,-0.500492,0.122786,-1.448775,0.365734,-0.087405,-89.84375,-247.192383,338.867188,0,0
4127,2024 10 17,09:00:34.381,0.761212,0.349831,-0.529297,0.134239,-1.679739,0.470717,0.113773,-79.833984,-253.662109,341.186523,0,0
4128,2024 10 17,09:00:34.390,0.74712,0.331949,-0.556873,0.146676,-1.887265,0.563982,0.271981,-60.058594,-244.934082,343.933105,0,0
4129,2024 10 17,09:00:34.398,0.731978,0.314965,-0.582413,0.160625,-1.993225,0.586444,0.346202,-34.118652,-230.041504,344.055176,0,0
4130,2024 10 17,09:00:34.406,0.731978,0.314965,-0.582413,0.160625,-1.993225,0.586444,0.346202,-34.118652,-230.041504,344.055176,0,0
4131,2024 10 17,09:00:34.415,0.715805,0.299236,-0.605884,0.176025,-2.048402,0.539079,0.321299,-6.225586,-218.811035,342.468262,0,0
4132,2024 10 17,09:00:34.423,0.69843,0.284804,-0.627701,0.192545,-2.151433,0.458022,0.254891,18.005371,-214.050293,339.904785,0,0
4133,2024 10 17,09:00:34.431,0.679635,0.271428,-0.648466,0.209559,-2.290597,0.31251,0.147465,34.667969,-219.116211,337.036133,0,0
4134,2024 10 17,09:00:34.440,0.65945,0.258579,-0.668554,0.22649,-2.411695,0.049318,0.072756,41.015625,-224.975586,335.9375,0,0
4135,2024 10 17,09:00:34.448,0.637955,0.245488,-0.68835,0.242742,-2.534745,-0.274911,0.014649,36.132813,-236.51123,338.378906,0,0
4136,2024 10 17,09:00:34.456,0.615345,0.231676,-0.707909,0.257956,-2.703696,-0.59035,0.155278,25.695801,-242.004395,341.125488,0,0
4137,2024 10 17,09:00:34.465,0.615345,0.231676,-0.707909,0.257956,-2.703696,-0.59035,0.155278,25.695801,-242.004395,341.125488,0,0
4138,2024 10 17,09:00:34.473,0.592476,0.217357,-0.726446,0.272038,-2.949797,-0.971221,0.321299,17.51709,-238.15918,335.083008,0,0
4139,2024 10 17,09:00:34.481,0.570478,0.20333,-0.743036,0.284797,-3.161718,-1.484909,0.484878,13.671875,-218.444824,316.040039,0,0
4140,2024 10 17,09:00:34.490,0.551051,0.190054,-0.756691,0.29604,-3.087497,-2.145573,0.489273,9.338379,-181.884766,285.583496,0,0
4141,2024 10 17,09:00:34.498,0.534514,0.178202,-0.767836,0.304905,-2.620685,-2.720786,0.594745,-0.854492,-154.907227,243.713379,0,0
4142,2024 10 17,09:00:34.506,0.519675,0.169003,-0.777901,0.310235,-1.902402,-3.048433,0.880886,-15.258789,-159.973145,190.002441,0,0
4143,2024 10 17,09:00:34.515,0.519675,0.169003,-0.777901,0.310235,-1.902402,-3.048433,0.880886,-15.258789,-159.973145,190.002441,0,0
4144,2024 10 17,09:00:34.523,0.504076,0.163925,-0.788685,0.311469,-1.609424,-3.082125,1.537156,-26.672363,-202.209473,132.995605,0,0
4145,2024 10 17,09:00:34.531,0.487537,0.163352,-0.799637,0.310169,-2.006409,-3.273537,2.198797,-17.700195,-228.149414,83.740234,0,0
4146,2024 10 17,09:00:34.540,0.473119,0.165885,-0.808392,0.308452,-2.779382,-3.732536,2.509842,1.159668,-196.166992,46.142578,0,0
4147,2024 10 17,09:00:34.548,0.466945,0.168642,-0.811657,0.30779,-2.936125,-4.013306,2.442457,14.160156,-63.293457,14.221191,0,0
4148,2024 10 17,09:00:34.556,0.472193,0.170178,-0.808497,0.307254,-8.09302,-2.458083,-3.54503,1.342773,67.382813,-31.860352,0,0
4149,2024 10 17,09:00:34.565,0.472193,0.170178,-0.808497,0.307254,-8.09302,-2.458083,-3.54503,1.342773,67.382813,-31.860352,0,0
4150,2024 10 17,09:00:34.573,0.481017,0.189008,-0.806069,0.288359,-2.490311,-3.826777,5.695487,57.678223,87.036133,-315.979004,0,0
4151,2024 10 17,09:00:34.581,0.533406,0.189715,-0.78033,0.26565,0.574236,2.780358,-3.731071,-242.370605,631.408691,-355.34668,1,0
4152,2024 10 17,09:00:34.590,0.544713,0.20765,-0.772315,0.252388,-1.651418,1.062532,0.007813,-54.992676,-103.881836,-311.706543,0,0
4153,2024 10 17,09:00:34.598,0.552898,0.226498,-0.765169,0.23983,-2.93173,-1.130894,2.139225,73.303223,162.902832,-262.634277,0,0
4154,2024 10 17,09:00:34.606,0.575427,0.237416,-0.744759,0.240522,-0.91409,-0.629902,-0.949736,99.79248,250.793457,-177.612305,0,0
4155,2024 10 17,09:00:34.615,0.575427,0.237416,-0.744759,0.240522,-0.91409,-0.629902,-0.949736,99.79248,250.793457,-177.612305,0,0
4156,2024 10 17,09:00:34.623,0.585666,0.246366,-0.734494,0.238363,-1.774468,-0.10889,0.772973,13.183594,114.440918,-132.080078,0,0
4157,2024 10 17,09:00:34.631,0.598283,0.250472,-0.721914,0.241168,-1.064974,0.12891,-0.600604,66.52832,195.983887,-71.960449,0,0
4158,2024 10 17,09:00:34.640,0.605981,0.255692,-0.711234,0.248102,-1.158727,-0.046388,-0.292489,111.328125,128.540039,-41.564941,0,0
4159,2024 10 17,09:00:34.648,0.613023,0.260228,-0.700537,0.256384,-1.007355,-0.132328,0.193854,104.492188,154.602051,-27.587891,0,0
4160,2024 10 17,09:00:34.656,0.621272,0.262703,-0.68944,0.263972,-0.921903,-0.141606,-0.364757,78.674316,150.817871,-21.54541,0,0
4161,2024 10 17,09:00:34.665,0.621272,0.262703,-0.68944,0.263972,-0.921903,-0.141606,-0.364757,78.674316,150.817871,-21.54541,0,0
4162,2024 10 17,09:00:34.673,0.626935,0.264607,-0.68138,0.26955,-1.07474,0.029298,0.037111,65.246582,105.529785,-13.244629,0,0
4163,2024 10 17,09:00:34.681,0.631783,0.266133,-0.673794,0.275727,-0.947295,-0.030763,0.032716,66.711426,106.994629,-3.90625,0,0
4164,2024 10 17,09:00:34.690,0.635918,0.267217,-0.66763,0.280132,-0.778832,-0.003906,0.126957,41.687012,74.829102,-10.009766,0,0
4165,2024 10 17,09:00:34.698,0.638556,0.268349,-0.663736,0.282292,-0.983917,0.08887,0.095218,27.404785,46.325684,-13.73291,0,0
4166,2024 10 17,09:00:34.706,0.640675,0.269661,-0.660311,0.284268,-0.981964,0.017579,0.040529,29.663086,41.503906,-13.000488,0,0
4167,2024 10 17,09:00:34.715,0.640675,0.269661,-0.660311,0.284268,-0.981964,0.017579,0.040529,29.663086,41.503906,-13.000488,0,0
4168,2024 10 17,09:00:34.723,0.642438,0.27089,-0.657554,0.285507,-0.988311,0.049318,0.059572,19.470215,29.907227,-15.075684,0,0
4169,2024 10 17,09:00:34.731,0.643892,0.272092,-0.655427,0.285981,-1.024934,0.044435,0.031251,13.85498,22.277832,-17.700195,0,0
4170,2024 10 17,09:00:34.740,0.645231,0.273282,-0.653634,0.285931,-1.01175,0.015137,0.042482,10.192871,18.798828,-19.775391,0,0
4171,2024 10 17,09:00:34.748,0.646655,0.274283,-0.652071,0.285324,-1.031281,0.050783,0.002441,2.13623,15.991211,-22.094727,0,0
4172,2024 10 17,09:00:34.756,0.64802,0.275239,-0.650722,0.284384,-1.063509,0.051271,0.002441,-0.976563,13.793945,-23.498535,0,0
4173,2024 10 17,09:00:34.765,0.64802,0.275239,-0.650722,0.284384,-1.063509,0.051271,0.002441,-0.976563,13.793945,-23.498535,0,0
4174,2024 10 17,09:00:34.773,0.649515,0.276055,-0.649361,0.283289,-1.006378,0.056154,0.051759,-2.868652,15.014648,-23.681641,0,0
4175,2024 10 17,09:00:34.781,0.650873,0.276863,-0.648146,0.282168,-0.992706,0.055666,0.047853,-2.746582,11.535645,-22.705078,0,0
4176,2024 10 17,09:00:34.790,0.652025,0.277717,-0.64713,0.280997,-1.00296,0.062502,0.073244,-2.319336,8.972168,-22.216797,0,0
4177,2024 10 17,09:00:34.798,0.65309,0.27868,-0.646128,0.279873,-0.999054,0.047365,0.042482,-1.342773,8.178711,-22.705078,0,0
4178,2024 10 17,09:00:34.806,0.654086,0.279678,-0.645268,0.278533,-1.001984,0.027345,0.018067,-3.662109,5.493164,-24.169922,0,0
4179,2024 10 17,09:00:34.815,0.654086,0.279678,-0.645268,0.278533,-1.001984,0.027345,0.018067,-3.662109,5.493164,-24.169922,0,0
4180,2024 10 17,09:00:34.823,0.655081,0.280677,-0.644488,0.276991,-1.007843,0.039552,0.033204,-5.126953,4.516602,-25.32959,0,0
4181,2024 10 17,09:00:34.831,0.656037,0.281777,-0.643741,0.275343,-0.987823,0.06885,0.086917,-3.78418,3.417969,-26.611328,0,0
4182,2024 10 17,09:00:34.840,0.656953,0.283036,-0.642901,0.273827,-0.961943,0.067385,0.132817,-1.525879,3.845215,-26.916504,0,0
4183,2024 10 17,09:00:34.848,0.657637,0.284586,-0.642074,0.272517,-0.969756,0.031739,0.088382,3.601074,0.427246,-26.489258,0,0
4184,2024 10 17,09:00:34.856,0.658104,0.286287,-0.641399,0.271195,-0.956084,0.0459,0.142582,3.723145,-1.647949,-26.489258,0,0
4185,2024 10 17,09:00:34.865,0.658555,0.288122,-0.640496,0.270287,-0.985382,0.0,0.052736,9.033203,0.976563,-24.963379,0,0
4186,2024 10 17,09:00:34.873,0.658555,0.288122,-0.640496,0.270287,-0.985382,0.0,0.052736,9.033203,0.976563,-24.963379,0,0
4187,2024 10 17,09:00:34.881,0.658969,0.289898,-0.639672,0.269329,-0.992218,0.007324,0.06006,7.629395,0.183105,-24.108887,0,0
4188,2024 10 17,09:00:34.890,0.659386,0.291559,-0.63885,0.268466,-1.00296,-0.001465,0.082522,7.507324,1.647949,-22.705078,0,0
4189,2024 10 17,09:00:34.898,0.660005,0.293008,-0.63784,0.267769,-0.977569,-0.02295,0.037599,6.225586,5.615234,-21.179199,0,0
4190,2024 10 17,09:00:34.906,0.660658,0.294225,-0.636937,0.266972,-0.956084,-0.006348,0.102054,3.234863,4.394531,-19.65332,0,0
4191,2024 10 17,09:00:34.915,0.6613,0.295272,-0.636125,0.266161,-0.991729,0.010743,0.10303,1.220703,4.577637,-18.737793,0,0
4192,2024 10 17,09:00:34.923,0.6613,0.295272,-0.636125,0.266161,-0.991729,0.010743,0.10303,1.220703,4.577637,-18.737793,0,0
4193,2024 10 17,09:00:34.931,0.662086,0.296175,-0.635181,0.265456,-1.012238,0.006836,0.047853,1.342773,8.056641,-17.822266,0,0
4194,2024 10 17,09:00:34.940,0.663025,0.296934,-0.634094,0.264866,-1.033235,-0.031251,0.046876,1.342773,11.413574,-16.784668,0,0
4195,2024 10 17,09:00:34.948,0.66412,0.297618,-0.632894,0.264223,-1.076693,0.010743,0.04004,0.0,13.061523,-17.944336,0,0
4196,2024 10 17,09:00:34.956,0.665481,0.298287,-0.631468,0.263455,-1.076693,-0.022462,0.070803,-1.586914,16.845703,-21.057129,0,0
4197,2024 10 17,09:00:34.965,0.6671,0.299005,-0.62984,0.262439,-1.063021,0.01709,0.082034,-2.929688,18.005371,-24.902344,0,0
4198,2024 10 17,09:00:34.973,0.6671,0.299005,-0.62984,0.262439,-1.063021,0.01709,0.082034,-2.929688,18.005371,-24.902344,0,0
4199,2024 10 17,09:00:34.981,0.668741,0.3,-0.628233,0.260978,-1.107944,0.043947,0.100589,-4.333496,14.587402,-31.188965,0,0
4200,2024 10 17,09:00:34.990,0.670446,0.301344,-0.626592,0.25899,-1.1348,0.056154,0.106937,-5.249023,13.366699,-38.269043,0,0
4201,2024 10 17,09:00:34.998,0.67224,0.303162,-0.624801,0.256535,-1.207556,-0.018555,0.06006,-4.821777,11.657715,-46.875,0,0
4202,2024 10 17,09:00:35.006,0.674212,0.305402,-0.623069,0.252889,-1.234413,-0.000488,0.048341,-11.291504,7.629395,-59.326172,0,0
4203,2024 10 17,09:00:35.015,0.676542,0.307985,-0.621002,0.248581,-1.260292,0.01709,0.074221,-13.366699,11.108398,-68.725586,0,0
4204,2024 10 17,09:00:35.023,0.676542,0.307985,-0.621002,0.248581,-1.260292,0.01709,0.074221,-13.366699,11.108398,-68.725586,0,0
4205,2024 10 17,09:00:35.031,0.679197,0.31107,-0.618441,0.24384,-1.311075,0.044923,0.084964,-11.474609,13.122559,-79.040527,0,0
4206,2024 10 17,09:00:35.040,0.682074,0.314823,-0.615257,0.238999,-1.380902,0.065432,0.142582,-3.601074,19.104004,-86.853027,0,0
4207,2024 10 17,09:00:35.048,0.685226,0.319523,-0.611296,0.233855,-1.455122,0.124027,0.166021,1.342773,21.484375,-102.050781,0,0
4208,2024 10 17,09:00:35.056,0.68864,0.325422,-0.606439,0.228272,-1.445845,0.126469,0.196783,10.070801,26.489258,-118.530273,0,0
4209,2024 10 17,09:00:35.065,0.692129,0.332671,-0.600822,0.222036,-1.506882,0.149907,0.186041,18.432617,25.57373,-136.047363,0,0
4210,2024 10 17,09:00:35.073,0.692129,0.332671,-0.600822,0.222036,-1.506882,0.149907,0.186041,18.432617,25.57373,-136.047363,0,0
4211,2024 10 17,09:00:35.081,0.695513,0.341501,-0.594526,0.214892,-1.701712,0.165044,0.133793,24.108887,22.216797,-158.752441,0,0
4212,2024 10 17,09:00:35.090,0.699209,0.351757,-0.58728,0.206096,-1.855525,0.15772,0.17188,25.695801,24.414063,-188.049316,0,0
4213,2024 10 17,09:00:35.098,0.704047,0.363086,-0.578196,0.195385,-1.960997,0.197272,-0.06299,19.897461,39.367676,-222.473145,0,0
4214,2024 10 17,09:00:35.106,0.709684,0.375689,-0.567408,0.182359,-2.242256,0.295419,-0.083499,13.977051,43.09082,-260.681152,0,0
4215,2024 10 17,09:00:35.115,0.716299,0.389756,-0.554224,0.166858,-2.58211,0.496597,0.067385,12.268066,62.011719,-305.969238,0,0
4216,2024 10 17,09:00:35.123,0.716299,0.389756,-0.554224,0.166858,-2.58211,0.496597,0.067385,12.268066,62.011719,-305.969238,0,0
4217,2024 10 17,09:00:35.131,0.724478,0.405542,-0.536981,0.149394,-2.750572,0.514664,-0.187506,15.319824,94.421387,-357.421875,0,0
4218,2024 10 17,09:00:35.140,0.733671,0.423104,-0.515797,0.129083,-3.173925,0.476577,-0.247078,13.85498,115.17334,-415.222168,0,0
4219,2024 10 17,09:00:35.148,0.743659,0.442061,-0.490227,0.10598,-3.575305,0.378918,0.10303,12.878418,146.911621,-469.116211,0,0
4220,2024 10 17,09:00:35.156,0.754262,0.462153,-0.459141,0.081811,-3.604602,0.118656,0.150395,25.20752,188.415527,-511.169434,0,0
4221,2024 10 17,09:00:35.165,0.763297,0.483457,-0.424734,0.056982,-3.807245,-0.17188,-0.056642,41.015625,198.974609,-534.851074,0,1
4222,2024 10 17,09:00:35.173,0.763297,0.483457,-0.424734,0.056982,-3.807245,-0.17188,-0.056642,41.015625,198.974609,-534.851074,0,0
4223,2024 10 17,09:00:35.181,0.771411,0.503672,-0.387504,0.032843,-3.431745,-0.033204,-0.293954,38.024902,229.919434,-534.301758,0,0
4224,2024 10 17,09:00:35.190,0.778454,0.521257,-0.349584,0.00961,-3.039644,0.374523,-0.48732,19.897461,225.769043,-512.573242,0,0
4225,2024 10 17,09:00:35.198,0.784168,0.53618,-0.312127,-0.012942,-2.669515,0.995636,-0.463393,8.728027,231.811523,-499.755859,0,0
4226,2024 10 17,09:00:35.206,0.788794,0.548909,-0.274403,-0.034732,-1.564013,1.426801,-1.455122,0.671387,216.369629,-478.759766,0,0
4227,2024 10 17,09:00:35.215,0.788988,0.560869,-0.243572,-0.059971,-1.947813,1.391156,-0.695822,8.605957,103.515625,-474.79248,0,0
4228,2024 10 17,09:00:35.223,0.788988,0.560869,-0.243572,-0.059971,-1.947813,1.391156,-0.695822,8.605957,103.515625,-474.79248,0,0
4229,2024 10 17,09:00:35.231,0.787473,0.570587,-0.215124,-0.089655,-0.975616,0.388684,-1.98883,-10.681152,63.659668,-490.844727,0,0
4230,2024 10 17,09:00:35.240,0.786697,0.573429,-0.191815,-0.124475,1.3643,0.309091,-1.082553,-112.670898,-41.809082,-461.608887,0,0
4231,2024 10 17,09:00:35.248,0.790664,0.566425,-0.179018,-0.148209,1.294473,1.620167,-0.481948,-179.931641,-41.19873,-195.739746,0,0
4232,2024 10 17,09:00:35.256,0.796106,0.555869,-0.182026,-0.155215,-0.390149,1.789605,-0.161138,-124.084473,-95.153809,45.898438,0,0
4233,2024 10 17,09:00:35.265,0.802935,0.544426,-0.192741,-0.147466,-1.017609,1.695364,0.516617,-94.848633,-24.047852,208.190918,0,0
4234,2024 10 17,09:00:35.273,0.802935,0.544426,-0.192741,-0.147466,-1.017609,1.695364,0.516617,-94.848633,-24.047852,208.190918,0,0
4235,2024 10 17,09:00:35.281,0.809781,0.536176,-0.202694,-0.12524,-0.81106,1.131382,-0.175298,-36.499023,59.448242,310.668945,0,0
4236,2024 10 17,09:00:35.290,0.814727,0.529564,-0.214505,-0.09884,-0.735374,0.700705,-0.039552,-8.361816,59.265137,338.928223,0,0
4237,2024 10 17,09:00:35.298,0.818429,0.523577,-0.225419,-0.072301,-0.358898,0.434584,-0.644551,-0.183105,57.006836,323.425293,0,0
4238,2024 10 17,09:00:35.306,0.820354,0.517459,-0.238238,-0.04998,-0.228523,0.234382,-0.67336,-4.760742,1.098633,294.128418,0,0
4239,2024 10 17,09:00:35.315,0.821226,0.510603,-0.2527,-0.031864,-0.20069,0.129398,-0.786157,-18.432617,-37.475586,268.005371,0,0
4240,2024 10 17,09:00:35.323,0.821348,0.502586,-0.269256,-0.017229,-0.24366,0.178228,-0.677267,-35.644531,-82.15332,254.089355,0,0
4241,2024 10 17,09:00:35.331,0.821348,0.502586,-0.269256,-0.017229,-0.24366,0.178228,-0.677267,-35.644531,-82.15332,254.089355,0,0
4242,2024 10 17,09:00:35.340,0.820857,0.493204,-0.287964,-0.004577,-0.407239,0.293954,-0.535173,-48.217773,-110.351563,255.126953,0,0
4243,2024 10 17,09:00:35.348,0.819779,0.482543,-0.308307,0.007841,-0.576189,0.38966,-0.417982,-55.358887,-126.89209,267.883301,0,0
4244,2024 10 17,09:00:35.356,0.818118,0.470653,-0.329724,0.021233,-0.664083,0.401868,-0.35548,-58.898926,-129.699707,288.208008,0,0
4245,2024 10 17,09:00:35.365,0.81583,0.45745,-0.351931,0.036141,-0.687033,0.384289,-0.371593,-62.316895,-132.385254,312.011719,0,0
4246,2024 10 17,09:00:35.373,0.812621,0.44285,-0.37526,0.052063,-0.714866,0.331065,-0.338878,-67.260742,-141.662598,331.970215,0,0
4247,2024 10 17,09:00:35.381,0.812621,0.44285,-0.37526,0.052063,-0.714866,0.331065,-0.338878,-67.260742,-141.662598,331.970215,0,0
4248,2024 10 17,09:00:35.390,0.808235,0.426879,-0.399877,0.068033,-0.735862,0.281747,-0.363781,-75.622559,-161.132813,343.811035,0,0
4249,2024 10 17,09:00:35.398,0.802268,0.409637,-0.426206,0.083135,-0.83694,0.282235,-0.34376,-85.083008,-188.232422,350.158691,0,0
4250,2024 10 17,09:00:35.406,0.794504,0.391331,-0.454091,0.097083,-1.040071,0.306162,-0.279794,-92.590332,-215.515137,352.355957,0,0
4251,2024 10 17,09:00:35.415,0.784883,0.372343,-0.482957,0.109875,-1.281289,0.350597,-0.153325,-96.252441,-236.26709,350.524902,0,0
4252,2024 10 17,09:00:35.423,0.773605,0.353102,-0.511817,0.122052,-1.468795,0.420911,-0.002441,-92.285156,-245.361328,347.65625,0,0
4253,2024 10 17,09:00:35.431,0.773605,0.353102,-0.511817,0.122052,-1.468795,0.420911,-0.002441,-92.285156,-245.361328,347.65625,0,0
4254,2024 10 17,09:00:35.440,0.760781,0.334202,-0.539926,0.134164,-1.654836,0.490249,0.15186,-79.772949,-247.924805,343.505859,0,0
4255,2024 10 17,09:00:35.448,0.746508,0.316115,-0.566762,0.146895,-1.830134,0.545915,0.256844,-59.204102,-243.591309,341.73584,0,0
4256,2024 10 17,09:00:35.456,0.730935,0.298892,-0.592032,0.16092,-1.949767,0.594745,0.299326,-35.339355,-235.961914,344.909668,0,0
4257,2024 10 17,09:00:35.465,0.713981,0.282539,-0.615817,0.176558,-2.075747,0.548357,0.288095,-9.58252,-230.041504,350.463867,0,0
4258,2024 10 17,09:00:35.473,0.695369,0.267018,-0.638584,0.193322,-2.245186,0.381848,0.246101,10.437012,-234.375,354.248047,0,0
4259,2024 10 17,09:00:35.481,0.695369,0.267018,-0.638584,0.193322,-2.245186,0.381848,0.246101,10.437012,-234.375,354.248047,0,0
4260,2024 10 17,09:00:35.490,0.674992,0.251871,-0.66085,0.210297,-2.379467,0.083987,0.115726,17.700195,-245.361328,357.421875,0,0
4261,2024 10 17,09:00:35.498,0.65257,0.236489,-0.683251,0.226703,-2.603107,-0.331065,0.090335,13.916016,-264.343262,363.28125,0,0
4262,2024 10 17,09:00:35.506,0.628626,0.220341,-0.705474,0.242043,-2.923917,-0.783227,0.163579,4.089355,-273.132324,367.1875,0,0
4263,2024 10 17,09:00:35.515,0.604102,0.203744,-0.726656,0.255968,-3.282327,-1.230995,0.393567,-4.760742,-271.240234,359.25293,0,0
4264,2024 10 17,09:00:35.523,0.580774,0.187656,-0.745333,0.268263,-3.487411,-1.817438,0.597674,-9.521484,-244.873047,333.435059,0,0
4265,2024 10 17,09:00:35.531,0.580774,0.187656,-0.745333,0.268263,-3.487411,-1.817438,0.597674,-9.521484,-244.873047,333.435059,0,0
4266,2024 10 17,09:00:35.540,0.560204,0.173163,-0.760686,0.278465,-3.271096,-2.415601,0.833033,-11.230469,-209.899902,290.039063,0,0
4267,2024 10 17,09:00:35.548,0.542499,0.161714,-0.773176,0.285906,-2.658772,-2.84579,1.106967,-11.59668,-187.866211,230.224609,0,0
4268,2024 10 17,09:00:35.556,0.526307,0.154598,-0.784146,0.290199,-1.958556,-3.17539,1.540086,-9.521484,-192.138672,165.466309,0,0
4269,2024 10 17,09:00:35.565,0.510596,0.152018,-0.79436,0.291847,-1.67925,-3.504013,1.991272,-2.624512,-206.298828,109.130859,0,0
4270,2024 10 17,09:00:35.573,0.495652,0.15331,-0.803475,0.291981,-2.098209,-3.867306,2.337962,10.437012,-203.369141,64.819336,0,0
4271,2024 10 17,09:00:35.581,0.495652,0.15331,-0.803475,0.291981,-2.098209,-3.867306,2.337962,10.437012,-203.369141,64.819336,0,0
4272,2024 10 17,09:00:35.590,0.484579,0.156921,-0.809633,0.291639,-2.684652,-4.103153,2.463454,21.911621,-147.583008,25.512695,0,0
4273,2024 10 17,09:00:35.598,0.481945,0.160985,-0.810495,0.291395,-2.596271,-4.015748,2.250557,26.306152,-26.672363,-14.465332,0,0
4274,2024 10 17,09:00:35.606,0.487532,0.164971,-0.80783,0.287241,-15.066866,-2.090396,-6.15302,-52.185059,27.587891,-88.07373,0,0
4275,2024 10 17,09:00:35.615,0.505688,0.184822,-0.7965,0.275151,-0.871609,-3.068941,0.534196,141.906738,373.962402,-283.447266,0,0
4276,2024 10 17,09:00:35.623,0.555902,0.185777,-0.768505,0.256631,1.70806,3.389264,-5.635426,-38.208008,508.483887,-321.594238,0,0
4277,2024 10 17,09:00:35.631,0.555902,0.185777,-0.768505,0.256631,1.70806,3.389264,-5.635426,-38.208008,508.483887,-321.594238,0,0
4278,2024 10 17,09:00:35.640,0.554953,0.209362,-0.767743,0.242415,-2.861415,1.226112,4.062135,-41.015625,-199.279785,-330.810547,1,0
4279,2024 10 17,09:00:35.648,0.573064,0.226913,-0.751505,0.235261,-1.495651,-0.479507,0.853053,76.477051,323.791504,-268.981934,0,0
4280,2024 10 17,09:00:35.656,0.589512,0.240996,-0.734587,0.234046,-1.58208,-0.748558,0.377453,77.392578,134.277344,-195.19043,0,0
4281,2024 10 17,09:00:35.665,0.603336,0.247655,-0.722198,0.230398,-1.664113,-0.008301,0.353038,-7.324219,214.172363,-130.737305,0,0
4282,2024 10 17,09:00:35.673,0.617799,0.251155,-0.707196,0.234775,-0.934599,0.0,-1.067415,84.533691,196.533203,-63.476563,0,0
4283,2024 10 17,09:00:35.681,0.617799,0.251155,-0.707196,0.234775,-0.934599,0.0,-1.067415,84.533691,196.533203,-63.476563,0,0
4284,2024 10 17,09:00:35.690,0.623428,0.257125,-0.697352,0.242741,-1.322306,-0.028809,0.494644,129.272461,121.276855,-27.099609,0,0
4285,2024 10 17,09:00:35.698,0.631346,0.26133,-0.684484,0.254147,-0.777367,-0.287118,-0.037599,125.793457,187.072754,-9.94873,0,0
4286,2024 10 17,09:00:35.706,0.637954,0.263662,-0.674552,0.261681,-0.832057,-0.095218,-0.301767,73.547363,116.027832,-11.657715,0,0
4287,2024 10 17,09:00:35.715,0.641267,0.265819,-0.668271,0.267451,-1.076693,-0.053224,0.254402,69.946289,82.885742,0.183105,0,0
4288,2024 10 17,09:00:35.723,0.645269,0.266822,-0.661801,0.272863,-0.822291,-0.113773,-0.124516,47.912598,87.341309,-1.037598,0,0
4289,2024 10 17,09:00:35.731,0.645269,0.266822,-0.661801,0.272863,-0.822291,-0.113773,-0.124516,47.912598,87.341309,-1.037598,0,0
4290,2024 10 17,09:00:35.740,0.647765,0.267322,-0.65821,0.275135,-0.829127,0.010743,0.324229,20.141602,40.039063,-5.554199,0,0
4291,2024 10 17,09:00:35.748,0.649385,0.267688,-0.655897,0.276481,-0.92288,0.028321,0.06592,12.756348,29.418945,-5.249023,0,0
4292,2024 10 17,09:00:35.756,0.650409,0.268039,-0.654588,0.276835,-0.983917,0.06299,0.032228,3.78418,12.512207,-8.239746,0,0
4293,2024 10 17,09:00:35.765,0.650971,0.268533,-0.653893,0.276676,-1.016144,0.064943,0.094241,2.502441,6.591797,-9.58252,0,0
4294,2024 10 17,09:00:35.773,0.651514,0.269113,-0.653347,0.276128,-1.05179,0.093753,-0.044435,-1.403809,2.380371,-13.244629,0,0
4295,2024 10 17,09:00:35.781,0.651908,0.26989,-0.652986,0.275289,-1.070345,0.02588,0.038087,-0.915527,1.342773,-15.50293,0,0
4296,2024 10 17,09:00:35.790,0.651908,0.26989,-0.652986,0.275289,-1.070345,0.02588,0.038087,-0.915527,1.342773,-15.50293,0,0
4297,2024 10 17,09:00:35.798,0.652619,0.270552,-0.652392,0.274362,-1.031281,0.001465,-0.031739,-1.159668,5.004883,-15.991211,0,0
4298,2024 10 17,09:00:35.806,0.653305,0.271101,-0.651977,0.273171,-1.053255,0.054201,-0.004883,-5.981445,2.380371,-16.479492,0,0
4299,2024 10 17,09:00:35.815,0.654058,0.271593,-0.651434,0.272175,-1.046419,0.04883,0.028321,-4.211426,6.408691,-15.380859,0,0
4300,2024 10 17,09:00:35.823,0.655011,0.272019,-0.650634,0.271369,-1.007355,0.046876,0.032716,-2.929688,9.338379,-14.892578,0,0
4301,2024 10 17,09:00:35.831,0.655887,0.272505,-0.649873,0.270589,-0.981964,0.046876,0.070803,-2.441406,7.507324,-14.953613,0,0
4302,2024 10 17,09:00:35.840,0.655887,0.272505,-0.649873,0.270589,-0.981964,0.046876,0.070803,-2.441406,7.507324,-14.953613,0,0
4303,2024 10 17,09:00:35.848,0.656716,0.273039,-0.64916,0.269752,-0.979522,0.033692,0.038575,-2.929688,6.530762,-15.625,0,0
4304,2024 10 17,09:00:35.856,0.657425,0.273606,-0.64867,0.268624,-0.990753,0.029786,0.020508,-5.371094,2.13623,-17.028809,0,0
4305,2024 10 17,09:00:35.865,0.658002,0.27418,-0.648447,0.267162,-1.023957,0.028321,0.031739,-8.056641,-0.915527,-18.371582,0,0
4306,2024 10 17,09:00:35.873,0.658673,0.274775,-0.64813,0.26566,-1.022004,0.028321,0.000488,-7.629395,1.281738,-19.287109,0,0
4307,2024 10 17,09:00:35.881,0.659347,0.275482,-0.647723,0.264247,-1.00882,0.031251,0.051759,-5.493164,1.403809,-19.65332,0,0
4308,2024 10 17,09:00:35.890,0.659347,0.275482,-0.647723,0.264247,-1.00882,0.031251,0.051759,-5.493164,1.403809,-19.65332,0,0
4309,2024 10 17,09:00:35.898,0.660044,0.276288,-0.647189,0.262969,-0.981475,0.054689,0.082522,-2.746582,2.746582,-19.775391,0,0
4310,2024 10 17,09:00:35.906,0.660627,0.277353,-0.646558,0.261935,-1.001007,0.04297,0.081545,1.464844,1.831055,-20.263672,0,0
4311,2024 10 17,09:00:35.915,0.661155,0.278583,-0.645849,0.261044,-1.000031,0.02002,0.075198,2.868652,2.380371,-20.385742,0,0
4312,2024 10 17,09:00:35.923,0.661689,0.279879,-0.645075,0.260217,-1.009308,0.036622,0.076662,5.615234,2.807617,-20.324707,0,0
4313,2024 10 17,09:00:35.931,0.662275,0.281246,-0.644106,0.259655,-1.01175,-0.025391,0.031739,6.591797,6.469727,-19.226074,0,0
4314,2024 10 17,09:00:35.940,0.662275,0.281246,-0.644106,0.259655,-1.01175,-0.025391,0.031739,6.591797,6.469727,-19.226074,0,0
4315,2024 10 17,09:00:35.948,0.66301,0.282347,-0.643152,0.258946,-0.974151,0.018067,0.104984,3.234863,6.591797,-18.676758,0,0
4316,2024 10 17,09:00:35.956,0.663699,0.283441,-0.642203,0.258341,-1.014679,-0.024415,0.058596,4.699707,6.835938,-17.883301,0,0
4317,2024 10 17,09:00:35.965,0.664546,0.284442,-0.641072,0.257874,-0.999054,0.001953,0.056642,4.943848,11.169434,-17.211914,0,0
4318,2024 10 17,09:00:35.973,0.665535,0.285297,-0.639856,0.257397,-1.008332,0.010254,0.056154,2.380371,11.962891,-17.456055,0,0
4319,2024 10 17,09:00:35.981,0.66652,0.286183,-0.63868,0.256784,-1.068392,-0.003906,0.079592,2.441406,11.535645,-18.493652,0,0
4320,2024 10 17,09:00:35.990,0.66652,0.286183,-0.63868,0.256784,-1.068392,-0.003906,0.079592,2.441406,11.535645,-18.493652,0,0
4321,2024 10 17,09:00:35.998,0.66771,0.287126,-0.637285,0.256108,-1.09183,0.025391,0.044435,2.685547,15.197754,-21.42334,0,0
4322,2024 10 17,09:00:36.006,0.669169,0.28819,-0.635602,0.255284,-1.117222,0.013184,0.06592,1.831055,17.883301,-25.634766,0,0
4323,2024 10 17,09:00:36.015,0.670766,0.289525,-0.633776,0.254121,-1.114292,0.007324,0.10889,1.525879,17.76123,-31.616211,0,0
4324,2024 10 17,09:00:36.023,0.672577,0.291133,-0.631808,0.252388,-1.162633,0.014649,0.072268,0.0,17.089844,-39.001465,0,0
4325,2024 10 17,09:00:36.031,0.674437,0.293148,-0.629886,0.249885,-1.17777,-0.012696,0.096194,-3.479004,13.244629,-48.88916,0,0
4326,2024 10 17,09:00:36.040,0.674437,0.293148,-0.629886,0.249885,-1.17777,-0.012696,0.096194,-3.479004,13.244629,-48.88916,0,0
4327,2024 10 17,09:00:36.048,0.676621,0.295411,-0.627858,0.246395,-1.181188,0.007324,0.052736,-10.986328,12.817383,-59.448242,0,0
4328,2024 10 17,09:00:36.056,0.678886,0.298151,-0.625764,0.242155,-1.248573,0.012207,0.079592,-11.413574,9.643555,-69.641113,0,0
4329,2024 10 17,09:00:36.065,0.681333,0.301396,-0.623416,0.237273,-1.347209,0.030763,0.04883,-11.291504,10.803223,-79.162598,0,0
4330,2024 10 17,09:00:36.073,0.684275,0.305164,-0.62027,0.232182,-1.394086,0.047365,0.126469,-7.69043,20.385742,-88.989258,0,0
4331,2024 10 17,09:00:36.081,0.687844,0.309575,-0.616053,0.226965,-1.434126,0.063478,0.038087,-4.089355,29.907227,-101.257324,0,0
4332,2024 10 17,09:00:36.090,0.687844,0.309575,-0.616053,0.226965,-1.434126,0.063478,0.038087,-4.089355,29.907227,-101.257324,0,0
4333,2024 10 17,09:00:36.098,0.691733,0.314809,-0.611152,0.221119,-1.459517,0.090335,0.162603,1.159668,32.531738,-116.149902,0,0
4334,2024 10 17,09:00:36.106,0.695983,0.321064,-0.605351,0.214652,-1.400433,0.161626,0.236824,6.103516,37.231445,-132.446289,0,0
4335,2024 10 17,09:00:36.115,0.700043,0.328869,-0.598852,0.207754,-1.534715,0.157231,0.141118,17.211914,32.958984,-150.268555,0,0
4336,2024 10 17,09:00:36.123,0.703964,0.338313,-0.591617,0.199919,-1.781304,0.173833,0.125004,26.977539,33.26416,-173.76709,0,0
4337,2024 10 17,09:00:36.131,0.708441,0.349269,-0.582878,0.190724,-1.944884,0.20069,0.118168,30.639648,42.663574,-204.345703,0,0
4338,2024 10 17,09:00:36.140,0.708441,0.349269,-0.582878,0.190724,-1.944884,0.20069,0.118168,30.639648,42.663574,-204.345703,0,0
4339,2024 10 17,09:00:36.148,0.713958,0.361524,-0.572163,0.179426,-2.201727,0.272469,-0.044923,23.803711,55.480957,-242.675781,0,0
4340,2024 10 17,09:00:36.156,0.720506,0.375209,-0.55917,0.165583,-2.515702,0.399915,-0.078616,20.263672,68.725586,-287.475586,0,0
4341,2024 10 17,09:00:36.165,0.728117,0.390657,-0.543154,0.149051,-2.959563,0.479507,-0.18067,19.40918,88.806152,-339.904785,0,0
4342,2024 10 17,09:00:36.173,0.737479,0.407771,-0.52242,0.130099,-3.275491,0.469253,-0.407727,17.089844,130.92041,-397.766113,0,0
4343,2024 10 17,09:00:36.181,0.747966,0.426405,-0.497017,0.108163,-3.680288,0.531266,-0.075686,13.427734,157.897949,-456.787109,0,0
4344,2024 10 17,09:00:36.190,0.747966,0.426405,-0.497017,0.108163,-3.680288,0.531266,-0.075686,13.427734,157.897949,-456.787109,0,0
4345,2024 10 17,09:00:36.198,0.759501,0.446217,-0.465639,0.085021,-3.764275,0.31251,-0.014161,22.521973,214.172363,-502.807617,0,0
4346,2024 10 17,09:00:36.206,0.769935,0.467317,-0.430217,0.061064,-3.927366,-0.187994,-0.186041,41.870117,224.42627,-532.958984,0,0
4347,2024 10 17,09:00:36.215,0.779311,0.48748,-0.39204,0.03663,-3.419538,-0.123539,-0.379894,27.648926,251.586914,-540.222168,0,1
4348,2024 10 17,09:00:36.223,0.787457,0.504713,-0.353597,0.012066,-3.077731,0.383801,-0.522965,7.263184,232.36084,-522.705078,0,0
4349,2024 10 17,09:00:36.231,0.794439,0.518856,-0.315451,-0.012067,-2.782311,1.033235,-0.641621,-9.094238,242.553711,-510.864258,0,0
4350,2024 10 17,09:00:36.240,0.799838,0.531033,-0.277437,-0.035934,-1.873104,1.515671,-1.382366,-14.831543,219.909668,-496.09375,0,0
4351,2024 10 17,09:00:36.248,0.799838,0.531033,-0.277437,-0.035934,-1.873104,1.515671,-1.382366,-14.831543,219.909668,-496.09375,0,0
4352,2024 10 17,09:00:36.256,0.801217,0.542493,-0.244773,-0.061959,-1.871639,1.465377,-0.93704,-3.356934,134.887695,-486.206055,0,0
4353,2024 10 17,09:00:36.265,0.801168,0.55095,-0.214863,-0.091754,-0.876492,1.384808,-1.648976,-37.414551,87.402344,-493.835449,0,0
4354,2024 10 17,09:00:36.273,0.800187,0.555104,-0.190245,-0.123968,1.381878,0.67336,-1.407269,-89.294434,4.760742,-451.23291,0,0
4355,2024 10 17,09:00:36.281,0.802864,0.550549,-0.176001,-0.146045,1.387249,1.739311,-0.560564,-139.282227,-17.089844,-199.035645,0,0
4356,2024 10 17,09:00:36.290,0.807307,0.542421,-0.17668,-0.151061,0.135258,1.83697,-0.296884,-96.313477,-51.879883,42.236328,0,0
4357,2024 10 17,09:00:36.298,0.807307,0.542421,-0.17668,-0.151061,0.135258,1.83697,-0.296884,-96.313477,-51.879883,42.236328,0,0
4358,2024 10 17,09:00:36.306,0.813164,0.532778,-0.186649,-0.14168,-0.254402,1.851619,0.092776,-76.843262,-28.442383,219.177246,0,0
4359,2024 10 17,09:00:36.315,0.818502,0.524752,-0.200942,-0.119634,-0.524918,1.234413,-0.229011,-25.695801,4.943848,339.96582,0,0
4360,2024 10 17,09:00:36.323,0.822213,0.517432,-0.218347,-0.092489,-0.694357,0.756371,-0.276376,1.831055,-1.647949,384.460449,0,0
4361,2024 10 17,09:00:36.331,0.824438,0.509904,-0.236746,-0.065201,-0.532243,0.575213,-0.706565,4.699707,-19.836426,380.432129,0,0
4362,2024 10 17,09:00:36.340,0.824707,0.502034,-0.257108,-0.041412,-0.559587,0.3755,-0.692892,-0.488281,-67.504883,354.797363,0,0
4363,2024 10 17,09:00:36.348,0.824707,0.502034,-0.257108,-0.041412,-0.559587,0.3755,-0.692892,-0.488281,-67.504883,354.797363,0,0
4364,2024 10 17,09:00:36.356,0.823664,0.493449,-0.27861,-0.021483,-0.564959,0.231452,-0.706076,-12.756348,-101.5625,327.087402,0,0
4365,2024 10 17,09:00:36.365,0.821608,0.483871,-0.301341,-0.004712,-0.686544,0.307138,-0.567888,-25.20752,-132.995605,310.546875,0,0
4366,2024 10 17,09:00:36.373,0.818761,0.473272,-0.324853,0.010676,-0.816431,0.442396,-0.402356,-32.836914,-145.690918,308.166504,0,0
4367,2024 10 17,09:00:36.381,0.815264,0.461678,-0.348563,0.026468,-0.91702,0.537614,-0.27784,-35.03418,-145.141602,319.030762,0,0
4368,2024 10 17,09:00:36.390,0.811283,0.448911,-0.371979,0.043942,-0.919462,0.542009,-0.289071,-36.254883,-132.93457,339.172363,0,0
4369,2024 10 17,09:00:36.398,0.811283,0.448911,-0.371979,0.043942,-0.919462,0.542009,-0.289071,-36.254883,-132.93457,339.172363,0,0
4370,2024 10 17,09:00:36.406,0.806602,0.434788,-0.395456,0.062981,-0.889676,0.448744,-0.288583,-39.428711,-130.859375,359.741211,0,0
4371,2024 10 17,09:00:36.415,0.800844,0.419275,-0.419644,0.082196,-0.884304,0.367687,-0.301767,-47.546387,-144.775391,369.934082,0,0
4372,2024 10 17,09:00:36.423,0.793651,0.402607,-0.444965,0.100163,-0.946318,0.357921,-0.290048,-59.448242,-169.067383,368.652344,0,0
4373,2024 10 17,09:00:36.431,0.784674,0.385184,-0.471577,0.116344,-1.168981,0.384289,-0.218757,-67.871094,-197.509766,363.037109,0,0
4374,2024 10 17,09:00:36.440,0.774055,0.36734,-0.498743,0.130977,-1.426801,0.428724,-0.085452,-71.411133,-213.806152,355.285645,0,0
4375,2024 10 17,09:00:36.448,0.774055,0.36734,-0.498743,0.130977,-1.426801,0.428724,-0.085452,-71.411133,-213.806152,355.285645,0,0
4376,2024 10 17,09:00:36.456,0.762234,0.349384,-0.525307,0.144849,-1.627979,0.471206,0.044435,-68.54248,-216.064453,348.266602,0,0
4377,2024 10 17,09:00:36.465,0.749367,0.331656,-0.55071,0.158654,-1.756401,0.514664,0.183111,-58.898926,-212.158203,343.933105,0,0
4378,2024 10 17,09:00:36.473,0.735483,0.314323,-0.574737,0.173043,-1.81988,0.551775,0.237312,-44.494629,-206.176758,344.482422,0,0
4379,2024 10 17,09:00:36.481,0.720239,0.297381,-0.59776,0.188422,-1.902402,0.563005,0.263192,-27.160645,-205.932617,350.891113,0,0
4380,2024 10 17,09:00:36.490,0.70326,0.280914,-0.620143,0.204783,-2.07477,0.552263,0.250008,-9.58252,-212.463379,357.36084,0,0
4381,2024 10 17,09:00:36.498,0.70326,0.280914,-0.620143,0.204783,-2.07477,0.552263,0.250008,-9.58252,-212.463379,357.36084,0,0
4382,2024 10 17,09:00:36.506,0.684373,0.265146,-0.641976,0.221806,-2.334544,0.477554,0.242683,7.873535,-220.76416,359.802246,0,0
4383,2024 10 17,09:00:36.515,0.663858,0.25016,-0.663082,0.238817,-2.556719,0.229499,0.181646,18.920898,-230.46875,355.46875,0,0
4384,2024 10 17,09:00:36.523,0.642141,0.235813,-0.683355,0.255095,-2.752525,-0.205084,0.118656,21.240234,-235.717773,347.77832,0,0
4385,2024 10 17,09:00:36.531,0.619501,0.222008,-0.702893,0.269948,-3.018158,-0.651875,0.152348,17.700195,-243.774414,335.9375,0,0
4386,2024 10 17,09:00:36.540,0.59688,0.208714,-0.721017,0.283383,-3.328227,-1.094272,0.250496,15.136719,-234.49707,320.617676,0,0
4387,2024 10 17,09:00:36.548,0.59688,0.208714,-0.721017,0.283383,-3.328227,-1.094272,0.250496,15.136719,-234.49707,320.617676,0,0
4388,2024 10 17,09:00:36.556,0.575824,0.195955,-0.736575,0.29578,-3.409772,-1.745659,0.28956,16.052246,-205.13916,300.048828,0,0
4389,2024 10 17,09:00:36.565,0.557268,0.184037,-0.749295,0.306821,-3.049898,-2.502029,0.295907,13.549805,-172.668457,271.118164,0,0
4390,2024 10 17,09:00:36.573,0.540437,0.174144,-0.760431,0.315193,-2.306711,-3.134861,0.497085,4.821777,-169.73877,226.68457,0,0
4391,2024 10 17,09:00:36.581,0.523482,0.168081,-0.771799,0.31944,-1.455611,-3.365825,1.012726,-8.544922,-203.979492,166.564941,0,0
4392,2024 10 17,09:00:36.590,0.50502,0.167407,-0.784168,0.319391,-1.178259,-3.715446,1.614307,-11.657715,-256.896973,99.914551,0,0
4393,2024 10 17,09:00:36.598,0.50502,0.167407,-0.784168,0.319391,-1.178259,-3.715446,1.614307,-11.657715,-256.896973,99.914551,0,0
4394,2024 10 17,09:00:36.606,0.484753,0.17181,-0.797248,0.316055,-2.210517,-4.133427,2.080142,-11.169434,-297.424316,50.415039,0,0
4395,2024 10 17,09:00:36.615,0.468069,0.177951,-0.807698,0.311238,-3.205664,-4.321421,2.307688,-10.498047,-233.276367,14.099121,0,0
4396,2024 10 17,09:00:36.623,0.464218,0.181421,-0.810776,0.306969,-2.817469,-4.110965,2.012269,-23.925781,-36.743164,-16.357422,0,0
4397,2024 10 17,09:00:36.631,0.472421,0.181716,-0.807606,0.302607,-1.58208,-3.288675,1.267128,-44.921875,89.477539,-45.898438,0,0
4398,2024 10 17,09:00:36.640,0.48064,0.183301,-0.807995,0.28728,-15.107394,-1.666066,-1.168493,-241.394043,-35.217285,-157.470703,0,0
4399,2024 10 17,09:00:36.648,0.48064,0.183301,-0.807995,0.28728,-15.107394,-1.666066,-1.168493,-241.394043,-35.217285,-157.470703,0,0
4400,2024 10 17,09:00:36.656,0.508763,0.197762,-0.791479,0.274974,-0.61916,-2.432203,-0.963897,20.324707,531.066895,-264.526367,0,0
4401,2024 10 17,09:00:36.665,0.560832,0.194997,-0.763029,0.255401,1.9859,2.772546,-6.401074,-31.25,472.595215,-306.884766,0,0
4402,2024 10 17,09:00:36.673,0.556991,0.219446,-0.764724,0.238333,-3.702261,2.031312,6.580768,-44.128418,-223.693848,-341.003418,1,0
4403,2024 10 17,09:00:36.681,0.580136,0.236899,-0.74286,0.235543,-1.328166,0.004883,-0.016114,93.62793,386.413574,-271.240234,0,0
4404,2024 10 17,09:00:36.690,0.595438,0.250547,-0.725884,0.236159,-1.904355,-1.04886,1.033723,71.960449,151.855469,-177.734375,0,0
4405,2024 10 17,09:00:36.698,0.612959,0.254418,-0.709825,0.236013,-1.55913,0.066408,0.04883,27.893066,283.325195,-99.79248,0,0
4406,2024 10 17,09:00:36.706,0.612959,0.254418,-0.709825,0.236013,-1.55913,0.066408,0.04883,27.893066,283.325195,-99.79248,0,0
4407,2024 10 17,09:00:36.715,0.627118,0.257428,-0.692719,0.24616,-0.9429,0.151372,-0.67629,127.01416,225.891113,-28.625488,0,0
4408,2024 10 17,09:00:36.723,0.633435,0.263176,-0.680036,0.258939,-1.060091,-0.268075,0.593768,165.95459,160.461426,-4.821777,0,0
4409,2024 10 17,09:00:36.731,0.641666,0.266375,-0.666445,0.27048,-0.658223,-0.22071,-0.376476,114.379883,185.48584,-7.202148,0,0
4410,2024 10 17,09:00:36.740,0.646354,0.268908,-0.65775,0.277994,-0.993683,-0.070315,-0.016114,83.984375,95.092773,-1.89209,0,0
4411,2024 10 17,09:00:36.748,0.649831,0.270847,-0.65048,0.285019,-0.963897,-0.152348,0.193365,77.087402,102.111816,4.943848,0,0
4412,2024 10 17,09:00:36.756,0.649831,0.270847,-0.65048,0.285019,-0.963897,-0.152348,0.193365,77.087402,102.111816,4.943848,0,0
4413,2024 10 17,09:00:36.765,0.653817,0.271212,-0.64419,0.289804,-0.693381,-0.034181,0.080081,33.996582,76.538086,-0.244141,0,0
4414,2024 10 17,09:00:36.773,0.655483,0.271607,-0.641216,0.292258,-0.849635,-0.021485,0.411634,26.062012,33.813477,1.525879,0,0
4415,2024 10 17,09:00:36.781,0.656877,0.271787,-0.63893,0.293961,-0.966338,0.052248,-0.054201,15.74707,28.381348,-0.671387,0,0
4416,2024 10 17,09:00:36.790,0.657469,0.272123,-0.637732,0.294925,-0.974639,0.04297,0.179205,8.605957,12.268066,-1.586914,0,0
4417,2024 10 17,09:00:36.798,0.658059,0.272376,-0.636762,0.295474,-1.010285,0.068361,0.061037,8.300781,11.59668,-3.417969,0,0
4418,2024 10 17,09:00:36.806,0.658059,0.272376,-0.636762,0.295474,-1.010285,0.068361,0.061037,8.300781,11.59668,-3.417969,0,0
4419,2024 10 17,09:00:36.815,0.658515,0.272894,-0.636021,0.295574,-1.081576,0.089358,0.040529,4.699707,5.79834,-8.789063,0,0
4420,2024 10 17,09:00:36.823,0.659144,0.273651,-0.635204,0.295231,-1.099643,0.061037,0.050783,3.90625,8.728027,-14.709473,0,0
4421,2024 10 17,09:00:36.831,0.660226,0.274433,-0.633999,0.294675,-1.086459,0.035646,-0.022462,2.01416,13.61084,-18.310547,0,0
4422,2024 10 17,09:00:36.840,0.661558,0.275124,-0.632666,0.293908,-1.061068,0.036134,0.035157,-0.671387,16.296387,-20.080566,0,0
4423,2024 10 17,09:00:36.848,0.663107,0.275676,-0.631136,0.293187,-1.037629,0.051271,0.023438,-0.305176,19.40918,-19.65332,0,0
4424,2024 10 17,09:00:36.856,0.663107,0.275676,-0.631136,0.293187,-1.037629,0.051271,0.023438,-0.305176,19.40918,-19.65332,0,0
4425,2024 10 17,09:00:36.865,0.664664,0.27624,-0.629544,0.292554,-0.946318,0.059572,0.133793,-0.12207,18.798828,-19.226074,0,0
4426,2024 10 17,09:00:36.873,0.666025,0.276885,-0.628032,0.292099,-0.930204,0.003418,0.113773,2.868652,16.845703,-17.456055,0,0
4427,2024 10 17,09:00:36.881,0.667189,0.277477,-0.626846,0.291427,-0.96292,0.040529,0.096194,-0.061035,11.108398,-17.211914,0,0
4428,2024 10 17,09:00:36.890,0.668103,0.278205,-0.625919,0.29063,-0.998566,0.014161,0.093265,-0.732422,8.178711,-17.944336,0,0
4429,2024 10 17,09:00:36.898,0.669154,0.278782,-0.625001,0.289632,-1.02298,0.033204,0.082034,-3.78418,9.643555,-18.676758,0,0
4430,2024 10 17,09:00:36.906,0.669154,0.278782,-0.625001,0.289632,-1.02298,0.033204,0.082034,-3.78418,9.643555,-18.676758,0,0
4431,2024 10 17,09:00:36.915,0.670164,0.279469,-0.624079,0.288623,-1.018098,0.056642,0.126469,-1.220703,7.629395,-19.165039,0,0
4432,2024 10 17,09:00:36.923,0.671047,0.280457,-0.623107,0.287712,-1.001007,0.075198,0.163091,1.77002,7.141113,-20.690918,0,0
4433,2024 10 17,09:00:36.931,0.67175,0.281781,-0.62213,0.286891,-0.996124,0.02295,0.104495,6.04248,5.249023,-21.850586,0,0
4434,2024 10 17,09:00:36.940,0.672444,0.283139,-0.621158,0.286032,-1.012238,-0.013184,0.120121,5.249023,4.577637,-22.155762,0,0
4435,2024 10 17,09:00:36.948,0.673221,0.284431,-0.620156,0.285095,-0.978057,0.042482,0.15186,3.356934,5.79834,-22.521973,0,0
4436,2024 10 17,09:00:36.956,0.673221,0.284431,-0.620156,0.285095,-0.978057,0.042482,0.15186,3.356934,5.79834,-22.521973,0,0
4437,2024 10 17,09:00:36.965,0.674054,0.285702,-0.619022,0.284319,-1.001984,0.013672,0.08887,4.577637,7.69043,-21.789551,0,0
4438,2024 10 17,09:00:36.973,0.674858,0.28694,-0.617959,0.283478,-0.992218,0.00586,0.179205,3.78418,6.591797,-21.850586,0,0
4439,2024 10 17,09:00:36.981,0.675849,0.288046,-0.616715,0.282702,-1.035676,-0.015137,0.115726,4.943848,11.59668,-21.179199,0,0
4440,2024 10 17,09:00:36.990,0.676992,0.289055,-0.615439,0.281715,-1.020539,-0.015625,0.095706,1.220703,11.59668,-23.254395,0,0
4441,2024 10 17,09:00:36.998,0.678236,0.290028,-0.614184,0.280461,-1.027863,0.028321,0.127445,-3.051758,10.559082,-25.817871,0,0
4442,2024 10 17,09:00:37.006,0.678236,0.290028,-0.614184,0.280461,-1.027863,0.028321,0.127445,-3.051758,10.559082,-25.817871,0,0
4443,2024 10 17,09:00:37.015,0.679652,0.291009,-0.612784,0.279074,-1.066927,-0.010743,0.10889,-3.78418,13.122559,-28.381348,0,0
4444,2024 10 17,09:00:37.023,0.681329,0.291945,-0.611263,0.277338,-1.069369,-0.057619,0.107913,-4.638672,15.686035,-31.433105,0,0
4445,2024 10 17,09:00:37.031,0.683171,0.29292,-0.609776,0.275042,-1.096713,0.025391,0.141606,-12.023926,11.901855,-37.414551,0,0
4446,2024 10 17,09:00:37.040,0.685088,0.294128,-0.608228,0.2724,-1.109409,0.002441,0.156743,-10.803223,13.61084,-42.053223,0,0
4447,2024 10 17,09:00:37.048,0.687339,0.295462,-0.60634,0.26948,-1.105502,-0.001953,0.110843,-11.169434,15.930176,-47.607422,0,0
4448,2024 10 17,09:00:37.056,0.687339,0.295462,-0.60634,0.26948,-1.105502,-0.001953,0.110843,-11.169434,15.930176,-47.607422,0,0
4449,2024 10 17,09:00:37.065,0.689538,0.297144,-0.604615,0.265865,-1.173376,0.033204,0.164068,-12.695313,10.314941,-55.175781,0,0
4450,2024 10 17,09:00:37.073,0.691894,0.299289,-0.60258,0.261928,-1.236854,0.068361,0.181646,-12.023926,13.000488,-63.415527,0,0
4451,2024 10 17,09:00:37.081,0.69453,0.30197,-0.600047,0.257654,-1.30961,0.049318,0.163091,-7.8125,16.235352,-72.570801,0,0
4452,2024 10 17,09:00:37.090,0.697401,0.305373,-0.597037,0.252836,-1.351115,0.064455,0.144047,-6.225586,16.601563,-84.655762,0,0
4453,2024 10 17,09:00:37.098,0.700481,0.3096,-0.593456,0.247557,-1.408246,0.081545,0.177252,-2.441406,19.958496,-96.923828,0,0
4454,2024 10 17,09:00:37.106,0.703897,0.314662,-0.589068,0.241901,-1.414106,0.057131,0.169927,3.601074,25.085449,-110.473633,0,0
4455,2024 10 17,09:00:37.115,0.703897,0.314662,-0.589068,0.241901,-1.414106,0.057131,0.169927,3.601074,25.085449,-110.473633,0,0
4456,2024 10 17,09:00:37.123,0.70761,0.320606,-0.583917,0.23567,-1.434126,0.099612,0.167486,9.70459,27.954102,-124.206543,0,0
4457,2024 10 17,09:00:37.131,0.711273,0.327859,-0.578165,0.228743,-1.621632,0.148442,0.187994,15.74707,25.146484,-142.883301,0,0
4458,2024 10 17,09:00:37.140,0.715309,0.33644,-0.571306,0.220798,-1.773492,0.133305,0.200201,20.874023,32.958984,-167.297363,0,0
4459,2024 10 17,09:00:37.148,0.720389,0.345975,-0.562713,0.211412,-1.953673,0.186529,0.084964,19.958496,47.668457,-195.739746,0,0
4460,2024 10 17,09:00:37.156,0.726424,0.356781,-0.552145,0.200379,-2.148503,0.250008,-0.009278,19.226074,59.875488,-230.102539,0,0
4461,2024 10 17,09:00:37.165,0.726424,0.356781,-0.552145,0.200379,-2.148503,0.250008,-0.009278,19.226074,59.875488,-230.102539,0,0
4462,2024 10 17,09:00:37.173,0.733375,0.368928,-0.539353,0.187487,-2.429762,0.3296,-0.032716,21.972656,76.416016,-267.272949,0,0
4463,2024 10 17,09:00:37.181,0.741435,0.382566,-0.523602,0.172503,-2.798913,0.442885,-0.141118,21.911621,97.961426,-312.5,0,0
4464,2024 10 17,09:00:37.190,0.750832,0.397699,-0.503963,0.155269,-3.224708,0.406262,-0.347179,21.66748,129.882813,-364.196777,0,0
4465,2024 10 17,09:00:37.198,0.761619,0.414234,-0.479621,0.135314,-3.629994,0.471694,-0.188482,20.385742,165.893555,-422.424316,0,0
4466,2024 10 17,09:00:37.206,0.773896,0.431775,-0.449107,0.113834,-3.785272,0.269539,-0.1919,24.597168,223.205566,-471.008301,0,0
4467,2024 10 17,09:00:37.215,0.773896,0.431775,-0.449107,0.113834,-3.785272,0.269539,-0.1919,24.597168,223.205566,-471.008301,0,0
4468,2024 10 17,09:00:37.223,0.786001,0.449735,-0.414344,0.090883,-3.958617,-0.039064,0.011719,23.010254,243.164063,-504.943848,0,0
4469,2024 10 17,09:00:37.231,0.79726,0.466808,-0.376862,0.066646,-3.644642,-0.165044,-0.506851,11.291504,253.601074,-519.165039,0,1
4470,2024 10 17,09:00:37.240,0.806953,0.481503,-0.339431,0.042054,-3.414167,0.291025,-0.141118,2.13623,254.211426,-504.272461,0,0
4471,2024 10 17,09:00:37.248,0.816076,0.493236,-0.300596,0.019491,-2.950774,1.064486,-0.548845,-15.075684,271.54541,-484.313965,0,0
4472,2024 10 17,09:00:37.256,0.823302,0.50338,-0.26225,-0.002716,-2.166082,1.580126,-1.201697,-12.878418,255.981445,-474.304199,0,0
4473,2024 10 17,09:00:37.265,0.823302,0.50338,-0.26225,-0.002716,-2.166082,1.580126,-1.201697,-12.878418,255.981445,-474.304199,0,0
4474,2024 10 17,09:00:37.273,0.826805,0.513631,-0.227705,-0.026986,-1.66802,1.273965,-1.33842,0.0,181.45752,-475.036621,0,0
4475,2024 10 17,09:00:37.281,0.828311,0.521439,-0.196705,-0.057526,-1.020051,0.929228,-1.532762,-34.484863,109.375,-509.277344,0,0
4476,2024 10 17,09:00:37.290,0.82851,0.525288,-0.169634,-0.094166,1.014679,0.018555,-0.943876,-81.115723,22.583008,-509.460449,0,0
4477,2024 10 17,09:00:37.298,0.830563,0.521239,-0.153264,-0.122415,0.503433,1.765191,-0.675314,-129.089355,-28.747559,-291.809082,0,0
4478,2024 10 17,09:00:37.306,0.833298,0.514618,-0.150923,-0.134184,0.673849,2.300851,-0.102054,-97.717285,-57.739258,-49.987793,0,0
4479,2024 10 17,09:00:37.315,0.833298,0.514618,-0.150923,-0.134184,0.673849,2.300851,-0.102054,-97.717285,-57.739258,-49.987793,0,0
4480,2024 10 17,09:00:37.323,0.836931,0.508209,-0.157827,-0.127909,0.1919,1.923398,-0.021973,-37.597656,-22.277832,171.875,0,0
4481,2024 10 17,09:00:37.331,0.839744,0.503996,-0.170898,-0.107753,-0.451674,1.255898,-0.344737,11.901855,-9.338379,305.603027,0,0
4482,2024 10 17,09:00:37.340,0.840817,0.500762,-0.187935,-0.083334,-0.677267,0.746605,-0.411145,40.405273,-31.494141,341.97998,0,0
4483,2024 10 17,09:00:37.348,0.840079,0.497944,-0.206486,-0.060691,-0.483413,0.586444,-0.751488,41.381836,-55.786133,318.237305,0,0
4484,2024 10 17,09:00:37.356,0.837908,0.495071,-0.225943,-0.042003,-0.367199,0.448256,-0.768578,38.818359,-97.351074,285.095215,0,0
4485,2024 10 17,09:00:37.365,0.837908,0.495071,-0.225943,-0.042003,-0.367199,0.448256,-0.768578,38.818359,-97.351074,285.095215,0,0
4486,2024 10 17,09:00:37.373,0.834392,0.492055,-0.246806,-0.02753,-0.557146,0.34376,-0.503433,34.423828,-134.70459,253.051758,0,0
4487,2024 10 17,09:00:37.381,0.830153,0.488526,-0.268216,-0.015754,-0.671896,0.389172,-0.432142,26.916504,-152.587891,235.717773,0,0
4488,2024 10 17,09:00:37.390,0.825404,0.48433,-0.290022,-0.004337,-0.696799,0.447279,-0.292489,24.353027,-156.799316,241.516113,0,0
4489,2024 10 17,09:00:37.398,0.820415,0.479106,-0.311933,0.0086,-0.72219,0.466811,-0.24073,21.179199,-147.705078,262.756348,0,0
4490,2024 10 17,09:00:37.406,0.815118,0.47248,-0.334355,0.023501,-0.750999,0.44142,-0.207526,16.052246,-145.019531,289.978027,0,0
4491,2024 10 17,09:00:37.415,0.815118,0.47248,-0.334355,0.023501,-0.750999,0.44142,-0.207526,16.052246,-145.019531,289.978027,0,0
4492,2024 10 17,09:00:37.423,0.809341,0.464156,-0.357655,0.040118,-0.752953,0.397961,-0.207526,8.850098,-146.54541,317.199707,0,0
4493,2024 10 17,09:00:37.431,0.802747,0.453951,-0.382348,0.057752,-0.80813,0.365246,-0.190924,-1.525879,-159.606934,341.308594,0,0
4494,2024 10 17,09:00:37.440,0.794936,0.442001,-0.408659,0.075562,-0.972686,0.357921,-0.15186,-11.291504,-178.894043,357.23877,0,0
4495,2024 10 17,09:00:37.448,0.785745,0.428682,-0.436121,0.092922,-1.149449,0.345225,-0.058596,-19.042969,-195.678711,364.074707,0,0
4496,2024 10 17,09:00:37.456,0.775218,0.414408,-0.463989,0.109623,-1.297891,0.353526,-0.018555,-23.742676,-207.519531,364.624023,0,0
4497,2024 10 17,09:00:37.465,0.775218,0.414408,-0.463989,0.109623,-1.297891,0.353526,-0.018555,-23.742676,-207.519531,364.624023,0,0
4498,2024 10 17,09:00:37.473,0.763312,0.399561,-0.491845,0.125674,-1.433149,0.382824,0.092776,-24.597168,-216.247559,363.098145,0,0
4499,2024 10 17,09:00:37.481,0.750186,0.384405,-0.519043,0.141591,-1.582568,0.394055,0.145024,-19.897461,-215.820313,362.487793,0,0
4500,2024 10 17,09:00:37.490,0.735836,0.369201,-0.545304,0.157732,-1.801813,0.3755,0.211432,-11.291504,-214.599609,362.670898,0,0
4501,2024 10 17,09:00:37.498,0.720452,0.353975,-0.570311,0.174345,-1.911191,0.378918,0.249519,-1.647949,-207.03125,363.891602,0,0
4502,2024 10 17,09:00:37.506,0.704095,0.338685,-0.593967,0.191691,-2.066958,0.368175,0.281259,9.765625,-200.012207,368.041992,0,0
4503,2024 10 17,09:00:37.515,0.704095,0.338685,-0.593967,0.191691,-2.066958,0.368175,0.281259,9.765625,-200.012207,368.041992,0,0
4504,2024 10 17,09:00:37.523,0.686848,0.323212,-0.616177,0.210001,-2.223701,0.267586,0.276376,20.751953,-190.063477,374.267578,0,0
4505,2024 10 17,09:00:37.531,0.668652,0.307414,-0.637236,0.228763,-2.365307,0.074221,0.229011,26.184082,-187.805176,378.967285,0,0
4506,2024 10 17,09:00:37.540,0.649516,0.291068,-0.65744,0.247347,-2.479079,-0.270028,0.082034,23.620605,-187.62207,382.751465,0,0
4507,2024 10 17,09:00:37.548,0.62959,0.273845,-0.677099,0.264882,-2.55916,-0.681661,-0.024903,10.986328,-191.28418,384.094238,0,0
4508,2024 10 17,09:00:37.556,0.60891,0.255865,-0.696501,0.280443,-2.705161,-1.119663,-0.00293,-7.446289,-200.561523,378.417969,0,0
4509,2024 10 17,09:00:37.565,0.587893,0.2377,-0.715287,0.293675,-2.972747,-1.623096,0.15479,-22.644043,-202.880859,363.952637,0,0
4510,2024 10 17,09:00:37.573,0.587893,0.2377,-0.715287,0.293675,-2.972747,-1.623096,0.15479,-22.644043,-202.880859,363.952637,0,0
4511,2024 10 17,09:00:37.581,0.567934,0.219969,-0.732221,0.304823,-3.12949,-2.196356,0.282723,-31.494141,-186.096191,338.500977,0,0
4512,2024 10 17,09:00:37.590,0.550214,0.203709,-0.746616,0.313578,-2.814539,-2.657796,0.442396,-37.536621,-162.353516,295.288086,0,0
4513,2024 10 17,09:00:37.598,0.534391,0.190677,-0.759109,0.319095,-2.066958,-2.962493,0.715354,-41.687012,-163.269043,233.642578,0,0
4514,2024 10 17,09:00:37.606,0.518119,0.182891,-0.771612,0.320496,-1.521531,-3.125584,1.329142,-44.006348,-205.26123,163.696289,0,0
4515,2024 10 17,09:00:37.615,0.500502,0.180678,-0.784599,0.31821,-1.545946,-3.288186,2.010803,-40.95459,-249.389648,101.135254,0,0
4516,2024 10 17,09:00:37.623,0.500502,0.180678,-0.784599,0.31821,-1.545946,-3.288186,2.010803,-40.95459,-249.389648,101.135254,0,0
4517,2024 10 17,09:00:37.631,0.483077,0.182494,-0.796711,0.31398,-2.18952,-3.681265,2.495682,-31.616211,-250.793457,58.288574,0,0
4518,2024 10 17,09:00:37.640,0.470135,0.184792,-0.805436,0.309996,-2.840907,-4.018677,2.576739,-24.719238,-176.879883,40.344238,0,0
4519,2024 10 17,09:00:37.648,0.467072,0.185,-0.808178,0.307354,-2.768639,-3.88049,2.350169,-22.766113,-25.634766,18.066406,0,0
4520,2024 10 17,09:00:37.656,0.471464,0.186921,-0.811486,0.290299,-7.352764,-4.212043,11.705924,-303.039551,-114.379883,-190.734863,0,0
4521,2024 10 17,09:00:37.665,0.508638,0.196589,-0.791296,0.276568,-1.435591,-0.990265,-1.271523,-267.211914,584.289551,-304.260254,0,0
4522,2024 10 17,09:00:37.673,0.508638,0.196589,-0.791296,0.276568,-1.435591,-0.990265,-1.271523,-267.211914,584.289551,-304.260254,0,0
4523,2024 10 17,09:00:37.681,0.553351,0.199223,-0.765013,0.262426,1.466353,1.095248,-5.382488,79.772949,325.439453,-268.371582,0,0
4524,2024 10 17,09:00:37.690,0.55035,0.220725,-0.767497,0.243605,-4.270638,1.729545,5.886898,-48.583984,-139.099121,-307.250977,1,0
4525,2024 10 17,09:00:37.698,0.576096,0.233712,-0.74404,0.244738,-0.801294,-0.124516,-0.91995,86.364746,364.685059,-219.970703,0,0
4526,2024 10 17,09:00:37.706,0.587765,0.24591,-0.730611,0.245494,-1.990783,-0.635762,1.452681,66.711426,115.356445,-153.503418,0,0
4527,2024 10 17,09:00:37.715,0.604313,0.249333,-0.71532,0.24689,-1.091342,-0.191412,-0.250984,37.658691,266.235352,-86.364746,0,0
4528,2024 10 17,09:00:37.723,0.604313,0.249333,-0.71532,0.24689,-1.091342,-0.191412,-0.250984,37.658691,266.235352,-86.364746,0,0
4529,2024 10 17,09:00:37.731,0.615971,0.251787,-0.702468,0.252432,-1.015656,0.281259,-0.637226,76.660156,157.226563,-42.419434,0,0
4530,2024 10 17,09:00:37.740,0.621993,0.256757,-0.69192,0.261625,-1.210974,-0.047853,0.425306,130.493164,149.414063,-18.737793,0,0
4531,2024 10 17,09:00:37.748,0.630782,0.260015,-0.678397,0.27255,-0.764672,-0.284677,-0.511246,120.605469,185.36377,-11.657715,0,0
4532,2024 10 17,09:00:37.756,0.636427,0.262337,-0.669378,0.279416,-0.974151,-0.020508,0.135258,68.237305,105.529785,-10.742188,0,0
4533,2024 10 17,09:00:37.765,0.640983,0.263843,-0.661665,0.285879,-0.990753,-0.080081,0.068361,73.608398,109.680176,0.244141,0,0
4534,2024 10 17,09:00:37.773,0.640983,0.263843,-0.661665,0.285879,-0.990753,-0.080081,0.068361,73.608398,109.680176,0.244141,0,0
4535,2024 10 17,09:00:37.781,0.645365,0.264551,-0.655037,0.290591,-0.803735,0.001465,0.084475,40.893555,81.848145,-6.896973,0,0
4536,2024 10 17,09:00:37.790,0.648111,0.265182,-0.651001,0.292966,-0.87698,0.031739,0.299814,24.169922,49.682617,-8.422852,0,0
4537,2024 10 17,09:00:37.798,0.650238,0.26575,-0.647946,0.294505,-0.950224,0.011231,-0.023438,18.371582,36.376953,-9.765625,0,0
4538,2024 10 17,09:00:37.806,0.651618,0.266393,-0.646086,0.294961,-0.961943,0.047853,0.159673,9.155273,20.263672,-11.901855,0,0
4539,2024 10 17,09:00:37.815,0.652766,0.267115,-0.644646,0.29492,-1.041047,0.06885,0.000488,6.04248,14.892578,-15.014648,0,0
4540,2024 10 17,09:00:37.823,0.652766,0.267115,-0.644646,0.29492,-1.041047,0.06885,0.000488,6.04248,14.892578,-15.014648,0,0
4541,2024 10 17,09:00:37.831,0.653785,0.267919,-0.643556,0.294315,-1.008332,0.084964,0.063478,-0.183105,9.765625,-18.249512,0,0
4542,2024 10 17,09:00:37.840,0.654751,0.26867,-0.642686,0.293382,-1.016633,0.048341,0.022462,-3.967285,7.324219,-19.104004,0,0
4543,2024 10 17,09:00:37.848,0.655684,0.269312,-0.642058,0.292081,-1.060579,0.028321,-0.006348,-5.92041,5.065918,-19.836426,0,0
4544,2024 10 17,09:00:37.856,0.656697,0.269855,-0.641414,0.290715,-1.076205,0.052248,0.026856,-6.04248,7.446289,-19.470215,0,0
4545,2024 10 17,09:00:37.865,0.657883,0.270356,-0.64046,0.28967,-1.030793,0.04883,0.030763,-3.479004,11.901855,-18.310547,0,0
4546,2024 10 17,09:00:37.873,0.657883,0.270356,-0.64046,0.28967,-1.030793,0.04883,0.030763,-3.479004,11.901855,-18.310547,0,0
4547,2024 10 17,09:00:37.881,0.65909,0.270874,-0.639349,0.288896,-0.984405,0.066897,0.070315,-1.464844,13.244629,-17.028809,0,0
4548,2024 10 17,09:00:37.890,0.660236,0.271438,-0.638163,0.28837,-0.96878,0.055666,0.089846,1.708984,13.427734,-15.869141,0,0
4549,2024 10 17,09:00:37.898,0.661182,0.272181,-0.637129,0.28779,-0.994171,0.050783,0.034669,2.075195,9.033203,-16.784668,0,0
4550,2024 10 17,09:00:37.906,0.661966,0.273039,-0.636286,0.287037,-0.998077,0.033204,0.050295,0.488281,6.713867,-17.883301,0,0
4551,2024 10 17,09:00:37.915,0.662756,0.273927,-0.635468,0.286178,-1.002472,0.046876,0.082522,1.403809,5.554199,-18.737793,0,0
4552,2024 10 17,09:00:37.923,0.662756,0.273927,-0.635468,0.286178,-1.002472,0.046876,0.082522,1.403809,5.554199,-18.737793,0,0
4553,2024 10 17,09:00:37.931,0.66343,0.275054,-0.634671,0.285306,-1.00296,0.065432,0.095706,3.78418,4.089355,-20.080566,0,0
4554,2024 10 17,09:00:37.940,0.664059,0.27632,-0.633785,0.284585,-1.004425,0.045412,0.088382,5.249023,5.126953,-19.897461,0,0
4555,2024 10 17,09:00:37.948,0.664582,0.277642,-0.633039,0.283738,-0.948271,0.026856,0.094241,5.371094,0.976563,-20.690918,0,0
4556,2024 10 17,09:00:37.956,0.664886,0.279049,-0.632459,0.282936,-0.975127,0.01709,0.086428,5.310059,-1.708984,-19.40918,0,0
4557,2024 10 17,09:00:37.965,0.665123,0.28039,-0.632031,0.28201,-0.994659,0.014649,0.114261,3.967285,-2.258301,-18.920898,0,0
4558,2024 10 17,09:00:37.973,0.665123,0.28039,-0.632031,0.28201,-0.994659,0.014649,0.114261,3.967285,-2.258301,-18.920898,0,0
4559,2024 10 17,09:00:37.981,0.665482,0.281618,-0.631474,0.281187,-0.978545,0.00293,0.091311,4.272461,-0.12207,-18.188477,0,0
4560,2024 10 17,09:00:37.990,0.665865,0.282772,-0.630949,0.280299,-0.988311,0.016602,0.093753,1.953125,-0.183105,-18.432617,0,0
4561,2024 10 17,09:00:37.998,0.666396,0.283794,-0.630264,0.279545,-0.999054,-0.025391,0.044923,2.258301,4.577637,-16.845703,0,0
4562,2024 10 17,09:00:38.006,0.66715,0.284528,-0.629531,0.278651,-0.986847,-0.000488,0.082522,-0.854492,5.859375,-16.845703,0,0
4563,2024 10 17,09:00:38.015,0.667911,0.285251,-0.62882,0.277692,-1.033235,-0.012207,0.093753,-1.525879,5.187988,-17.76123,0,0
4564,2024 10 17,09:00:38.023,0.668858,0.285946,-0.627955,0.276653,-1.068392,-0.011231,0.06299,-3.295898,8.544922,-19.470215,0,0
4565,2024 10 17,09:00:38.031,0.668858,0.285946,-0.627955,0.276653,-1.068392,-0.011231,0.06299,-3.295898,8.544922,-19.470215,0,0
4566,2024 10 17,09:00:38.040,0.670098,0.286586,-0.626868,0.275454,-1.070833,0.005371,0.118656,-6.530762,11.535645,-22.644043,0,0
4567,2024 10 17,09:00:38.048,0.671624,0.287247,-0.625547,0.274046,-1.086459,0.038087,0.100101,-7.080078,14.282227,-26.367188,0,0
4568,2024 10 17,09:00:38.056,0.673369,0.288054,-0.62406,0.272303,-1.096225,0.039552,0.11475,-8.911133,15.014648,-31.799316,0,0
4569,2024 10 17,09:00:38.065,0.675222,0.289126,-0.622455,0.270241,-1.125034,-0.037599,0.056154,-6.286621,15.136719,-36.132813,0,0
4570,2024 10 17,09:00:38.073,0.677134,0.290453,-0.620995,0.26738,-1.112339,-0.004883,0.10303,-10.986328,10.437012,-44.128418,0,0
4571,2024 10 17,09:00:38.081,0.677134,0.290453,-0.620995,0.26738,-1.112339,-0.004883,0.10303,-10.986328,10.437012,-44.128418,0,0
4572,2024 10 17,09:00:38.090,0.679096,0.292164,-0.619423,0.264168,-1.159703,0.030763,0.102542,-11.962891,9.887695,-50.415039,0,0
4573,2024 10 17,09:00:38.098,0.681234,0.294204,-0.617583,0.260682,-1.164098,0.026856,0.103519,-9.94873,12.023926,-56.274414,0,0
4574,2024 10 17,09:00:38.106,0.683546,0.296673,-0.615291,0.25723,-1.251015,0.032716,0.127445,-4.699707,15.686035,-61.401367,0,0
4575,2024 10 17,09:00:38.115,0.686103,0.299719,-0.612471,0.253596,-1.382366,0.055177,0.081545,-0.915527,19.836426,-70.739746,0,0
4576,2024 10 17,09:00:38.123,0.689088,0.303414,-0.609025,0.249371,-1.434126,0.080081,0.093753,-0.732422,23.864746,-84.350586,0,0
4577,2024 10 17,09:00:38.131,0.689088,0.303414,-0.609025,0.249371,-1.434126,0.080081,0.093753,-0.732422,23.864746,-84.350586,0,0
4578,2024 10 17,09:00:38.140,0.692403,0.307967,-0.605007,0.244337,-1.414106,0.106449,0.16895,1.586914,24.719238,-100.585938,0,0
4579,2024 10 17,09:00:38.148,0.696054,0.313559,-0.600152,0.238763,-1.40434,0.15479,0.225105,8.728027,28.747559,-115.966797,0,0
4580,2024 10 17,09:00:38.156,0.699646,0.320588,-0.594622,0.232688,-1.505905,0.159185,0.185064,18.920898,26.062012,-133.178711,0,0
4581,2024 10 17,09:00:38.165,0.703159,0.329124,-0.588557,0.225491,-1.72515,0.177252,0.296884,24.414063,22.949219,-155.883789,0,0
4582,2024 10 17,09:00:38.173,0.707594,0.338807,-0.580905,0.216956,-1.897519,0.161626,-0.029786,23.31543,38.513184,-184.692383,0,0
4583,2024 10 17,09:00:38.181,0.707594,0.338807,-0.580905,0.216956,-1.897519,0.161626,-0.029786,23.31543,38.513184,-184.692383,0,0
4584,2024 10 17,09:00:38.190,0.712846,0.34973,-0.571765,0.206455,-2.103091,0.182134,-0.135746,19.165039,42.785645,-218.933105,0,0
4585,2024 10 17,09:00:38.198,0.719184,0.36179,-0.560696,0.193655,-2.449782,0.32667,-0.141606,13.549805,58.837891,-257.93457,0,0
4586,2024 10 17,09:00:38.206,0.727047,0.375194,-0.546622,0.178428,-2.665609,0.442396,-0.179205,12.268066,81.970215,-306.091309,0,0
4587,2024 10 17,09:00:38.215,0.736517,0.390193,-0.528598,0.160859,-2.944426,0.529801,-0.327647,11.535645,115.112305,-358.215332,0,0
4588,2024 10 17,09:00:38.223,0.747307,0.406869,-0.50617,0.140648,-3.248146,0.549333,-0.242195,10.925293,143.493652,-415.83252,0,0
4589,2024 10 17,09:00:38.231,0.747307,0.406869,-0.50617,0.140648,-3.248146,0.549333,-0.242195,10.925293,143.493652,-415.83252,0,0
4590,2024 10 17,09:00:38.240,0.758919,0.424988,-0.479117,0.117789,-3.212012,0.494644,0.048341,13.977051,178.894043,-469.787598,0,0
4591,2024 10 17,09:00:38.248,0.769897,0.444376,-0.448553,0.092673,-3.471786,0.284188,0.270516,20.141602,172.180176,-508.972168,0,0
4592,2024 10 17,09:00:38.256,0.779275,0.464572,-0.415228,0.066998,-3.355083,-0.088382,0.198737,35.522461,206.970215,-526.855469,0,0
4593,2024 10 17,09:00:38.265,0.78787,0.483568,-0.379094,0.041356,-2.879483,0.119633,-0.225105,30.639648,209.838867,-528.747559,0,1
4594,2024 10 17,09:00:38.273,0.794654,0.500198,-0.343624,0.015778,-2.846766,0.343272,-0.204108,11.84082,207.336426,-511.59668,0,0
4595,2024 10 17,09:00:38.281,0.794654,0.500198,-0.343624,0.015778,-2.846766,0.343272,-0.204108,11.84082,207.336426,-511.59668,0,0
4596,2024 10 17,09:00:38.290,0.800326,0.51453,-0.307654,-0.009325,-2.045473,0.819361,-0.667501,0.0,206.604004,-504.211426,0,0
4597,2024 10 17,09:00:38.298,0.803814,0.526905,-0.27391,-0.035036,-1.524949,1.173376,-1.149937,-2.685547,160.461426,-482.849121,0,0
4598,2024 10 17,09:00:38.306,0.803766,0.538193,-0.245447,-0.063751,-1.835017,1.231483,-0.781762,-3.051758,80.13916,-486.14502,0,0
4599,2024 10 17,09:00:38.315,0.802318,0.546839,-0.21887,-0.096689,-1.398968,0.92288,-1.353557,-30.700684,37.231445,-506.958008,0,0
4600,2024 10 17,09:00:38.323,0.800152,0.550815,-0.195976,-0.133989,-0.059084,0.617695,-0.739769,-89.904785,-38.879395,-502.502441,0,0
4601,2024 10 17,09:00:38.331,0.800152,0.550815,-0.195976,-0.133989,-0.059084,0.617695,-0.739769,-89.904785,-38.879395,-502.502441,0,0
4602,2024 10 17,09:00:38.340,0.801642,0.547181,-0.178677,-0.161364,2.115787,1.349162,-0.442885,-152.404785,-0.915527,-271.972656,0,0
4603,2024 10 17,09:00:38.348,0.806596,0.539206,-0.174931,-0.167508,0.79397,2.244209,-0.59035,-99.853516,-28.625488,23.742676,0,0
4604,2024 10 17,09:00:38.356,0.812104,0.530876,-0.184583,-0.156801,-0.298837,1.68804,0.625507,-62.316895,-14.770508,234.924316,0,0
4605,2024 10 17,09:00:38.365,0.818364,0.523668,-0.197122,-0.131129,-0.648946,1.080111,-0.519547,-13.000488,49.926758,364.501953,0,0
4606,2024 10 17,09:00:38.373,0.822932,0.516935,-0.213347,-0.100224,-0.768578,0.630879,-0.053224,12.878418,29.052734,413.94043,0,0
4607,2024 10 17,09:00:38.381,0.822932,0.516935,-0.213347,-0.100224,-0.768578,0.630879,-0.053224,12.878418,29.052734,413.94043,0,0
4608,2024 10 17,09:00:38.390,0.825667,0.51017,-0.230593,-0.06948,-0.702658,0.375011,-0.499527,10.742188,19.40918,401.000977,0,0
4609,2024 10 17,09:00:38.398,0.826684,0.503182,-0.248148,-0.042705,-0.504898,0.172369,-0.759301,7.202148,-24.230957,360.229492,0,0
4610,2024 10 17,09:00:38.406,0.82622,0.495748,-0.266683,-0.021804,-0.490738,-0.064943,-0.820338,-6.04248,-66.711426,311.340332,0,0
4611,2024 10 17,09:00:38.415,0.824796,0.487586,-0.286239,-0.006152,-0.52443,-0.004883,-0.61916,-25.146484,-110.534668,273.803711,0,0
4612,2024 10 17,09:00:38.423,0.822845,0.478285,-0.306799,0.006594,-0.619648,0.215339,-0.483902,-39.428711,-131.652832,262.390137,0,0
4613,2024 10 17,09:00:38.431,0.822845,0.478285,-0.306799,0.006594,-0.619648,0.215339,-0.483902,-39.428711,-131.652832,262.390137,0,0
4614,2024 10 17,09:00:38.440,0.820468,0.46776,-0.328097,0.019646,-0.837428,0.407239,-0.293466,-43.640137,-133.300781,278.747559,0,0
4615,2024 10 17,09:00:38.448,0.817901,0.456045,-0.349036,0.035148,-0.878933,0.439467,-0.220222,-42.84668,-112.976074,304.199219,0,0
4616,2024 10 17,09:00:38.456,0.814922,0.443268,-0.369651,0.052663,-0.712912,0.354991,-0.269051,-42.84668,-106.567383,323.791504,0,0
4617,2024 10 17,09:00:38.465,0.810841,0.429558,-0.391257,0.070246,-0.584979,0.251473,-0.340831,-48.217773,-125.610352,332.397461,0,0
4618,2024 10 17,09:00:38.473,0.805053,0.41494,-0.415043,0.08633,-0.699728,0.228034,-0.336436,-57.678223,-163.635254,333.862305,0,0
4619,2024 10 17,09:00:38.481,0.797422,0.399587,-0.440824,0.100609,-0.986847,0.301279,-0.190435,-65.368652,-195.739746,330.322266,0,0
4620,2024 10 17,09:00:38.490,0.797422,0.399587,-0.440824,0.100609,-0.986847,0.301279,-0.190435,-65.368652,-195.739746,330.322266,0,0
4621,2024 10 17,09:00:38.498,0.788283,0.383928,-0.467221,0.113637,-1.24662,0.348643,-0.064943,-65.612793,-210.266113,323.364258,0,0
4622,2024 10 17,09:00:38.506,0.777989,0.36843,-0.493068,0.126004,-1.45024,0.36964,0.094729,-59.875488,-211.791992,314.880371,0,0
4623,2024 10 17,09:00:38.515,0.767021,0.353339,-0.517365,0.138434,-1.495651,0.340831,0.177252,-49.865723,-200.012207,307.800293,0,0
4624,2024 10 17,09:00:38.523,0.755253,0.338612,-0.540442,0.151182,-1.57915,0.364757,0.229987,-39.306641,-196.777344,306.884766,0,0
4625,2024 10 17,09:00:38.531,0.742552,0.324037,-0.562559,0.164751,-1.652394,0.372082,0.317881,-27.160645,-189.697266,312.62207,0,0
4626,2024 10 17,09:00:38.540,0.742552,0.324037,-0.562559,0.164751,-1.652394,0.372082,0.317881,-27.160645,-189.697266,312.62207,0,0
4627,2024 10 17,09:00:38.548,0.728997,0.309428,-0.583653,0.17935,-1.749565,0.357433,0.30958,-16.174316,-185.241699,319.641113,0,0
4628,2024 10 17,09:00:38.556,0.714363,0.294917,-0.603988,0.1947,-1.88287,0.316416,0.346202,-5.249023,-183.71582,324.462891,0,0
4629,2024 10 17,09:00:38.565,0.698537,0.28065,-0.623718,0.210374,-2.046449,0.246101,0.332041,3.845215,-189.758301,325.744629,0,0
4630,2024 10 17,09:00:38.573,0.681381,0.266684,-0.6431,0.225881,-2.249092,0.018067,0.311533,8.972168,-197.20459,325.317383,0,0
4631,2024 10 17,09:00:38.581,0.663064,0.252803,-0.662118,0.240907,-2.457106,-0.384289,0.271981,8.972168,-205.200195,324.768066,0,0
4632,2024 10 17,09:00:38.590,0.663064,0.252803,-0.662118,0.240907,-2.457106,-0.384289,0.271981,8.972168,-205.200195,324.768066,0,0
4633,2024 10 17,09:00:38.598,0.643939,0.238739,-0.680646,0.255085,-2.651448,-0.867214,0.292978,3.356934,-207.763672,323.181152,0,0
4634,2024 10 17,09:00:38.606,0.624641,0.224179,-0.698311,0.268196,-2.777429,-1.331584,0.292001,-6.225586,-203.308105,320.861816,0,0
4635,2024 10 17,09:00:38.615,0.605745,0.208935,-0.714662,0.280494,-2.943449,-1.844783,0.254891,-13.48877,-188.171387,318.969727,0,0
4636,2024 10 17,09:00:38.623,0.588224,0.193419,-0.728967,0.29187,-2.940519,-2.485427,0.183599,-19.042969,-162.29248,304.870605,0,0
4637,2024 10 17,09:00:38.631,0.572686,0.179369,-0.741163,0.300891,-2.398999,-3.052828,0.174322,-26.428223,-145.751953,261.230469,0,0
4638,2024 10 17,09:00:38.640,0.572686,0.179369,-0.741163,0.300891,-2.398999,-3.052828,0.174322,-26.428223,-145.751953,261.230469,0,0
4639,2024 10 17,09:00:38.648,0.557763,0.169554,-0.752898,0.305445,-1.633351,-3.364361,0.492203,-35.339355,-174.072266,188.537598,0,0
4640,2024 10 17,09:00:38.656,0.541381,0.166124,-0.765932,0.304397,-1.230018,-3.340922,1.216834,-44.006348,-236.328125,103.881836,0,0
4641,2024 10 17,09:00:38.665,0.523017,0.169326,-0.780128,0.298634,-1.484909,-3.252541,2.009827,-42.602539,-291.870117,27.832031,0,0
4642,2024 10 17,09:00:38.673,0.505372,0.176777,-0.793007,0.29067,-2.187567,-3.450789,2.397534,-32.287598,-281.616211,-19.470215,0,0
4643,2024 10 17,09:00:38.681,0.492974,0.184187,-0.801819,0.283088,-2.690512,-3.564074,2.4073,-27.832031,-192.382813,-33.752441,0,0
4644,2024 10 17,09:00:38.690,0.492974,0.184187,-0.801819,0.283088,-2.690512,-3.564074,2.4073,-27.832031,-192.382813,-33.752441,0,0
4645,2024 10 17,09:00:38.698,0.49134,0.188276,-0.803757,0.277689,-2.317454,-3.435652,1.972228,-26.489258,-23.620605,-39.367676,0,0
4646,2024 10 17,09:00:38.706,0.498096,0.190428,-0.800685,0.273022,-1.858455,-2.870693,1.127964,-32.897949,62.316895,-61.889648,0,0
4647,2024 10 17,09:00:38.715,0.510676,0.201002,-0.795337,0.257386,-3.846309,-2.694906,3.717399,101.5625,182.067871,-250.305176,1,0
4648,2024 10 17,09:00:38.723,0.567264,0.193754,-0.760454,0.249758,1.841853,4.322398,-6.508011,-224.243164,717.529297,-245.788574,0,0
4649,2024 10 17,09:00:38.731,0.56696,0.21374,-0.757079,0.244343,-1.631886,0.041994,3.101169,68.115234,-235.717773,-245.666504,0,0
4650,2024 10 17,09:00:38.740,0.56696,0.21374,-0.757079,0.244343,-1.631886,0.041993,3.101169,68.115234,-235.717773,-245.666504,0,0
4651,2024 10 17,09:00:38.748,0.57856,0.23097,-0.744737,0.239347,-1.967345,-0.055666,1.854061,101.806641,316.955566,-225.524902,0,0
4652,2024 10 17,09:00:38.756,0.598224,0.242312,-0.723504,0.244855,-1.138707,-1.215369,-1.156285,113.098145,196.594238,-151.977539,0,0
4653,2024 10 17,09:00:38.765,0.608975,0.248433,-0.713652,0.241106,-1.730522,-0.116215,1.480514,5.432129,162.353516,-116.333008,0,0
4654,2024 10 17,09:00:38.773,0.625274,0.249295,-0.69747,0.245806,-0.782739,0.121097,-1.355022,53.222656,244.506836,-50.109863,0,0
4655,2024 10 17,09:00:38.781,0.631145,0.253474,-0.68813,0.252753,-1.237342,-0.030274,0.350108,106.506348,99.54834,-22.094727,0,0
4656,2024 10 17,09:00:38.790,0.631145,0.253474,-0.68813,0.252753,-1.237342,-0.030274,0.350108,106.506348,99.54834,-22.094727,0,0
4657,2024 10 17,09:00:38.798,0.638058,0.257088,-0.676968,0.26173,-0.871609,-0.19483,0.066897,106.018066,170.654297,-13.427734,0,0
4658,2024 10 17,09:00:38.806,0.644653,0.258937,-0.667431,0.268161,-0.901883,-0.100589,-0.300302,59.143066,109.130859,-14.343262,0,0
4659,2024 10 17,09:00:38.815,0.648706,0.260556,-0.66083,0.27312,-1.092807,-0.004395,0.230476,64.51416,95.64209,-4.272461,0,0
4660,2024 10 17,09:00:38.823,0.653301,0.261452,-0.65366,0.278512,-0.823267,-0.119633,-0.085452,48.217773,94.177246,-3.112793,0,0
4661,2024 10 17,09:00:38.831,0.656412,0.261839,-0.649143,0.281382,-0.908231,0.019044,0.30079,27.404785,58.349609,-3.90625,0,0
4662,2024 10 17,09:00:38.840,0.656412,0.261839,-0.649143,0.281382,-0.908231,0.019044,0.30079,27.404785,58.349609,-3.90625,0,0
4663,2024 10 17,09:00:38.848,0.658899,0.261998,-0.645581,0.28361,-0.828639,0.003906,0.164068,18.005371,46.325684,-3.662109,0,0
4664,2024 10 17,09:00:38.856,0.660418,0.262262,-0.643543,0.284461,-0.996612,0.051759,0.066897,9.94873,22.583008,-7.263184,0,0
4665,2024 10 17,09:00:38.865,0.661509,0.262725,-0.642099,0.284764,-1.001495,0.055177,0.094729,5.615234,17.39502,-10.192871,0,0
4666,2024 10 17,09:00:38.873,0.66246,0.263305,-0.641033,0.284418,-1.063509,0.050783,-0.00293,1.525879,9.70459,-14.770508,0,0
4667,2024 10 17,09:00:38.881,0.663355,0.263964,-0.640197,0.283603,-1.05472,0.029298,0.034181,-1.647949,8.666992,-17.333984,0,0
4668,2024 10 17,09:00:38.890,0.664422,0.264549,-0.639316,0.282547,-1.041047,0.009278,0.001953,-3.295898,9.338379,-18.920898,0,0
4669,2024 10 17,09:00:38.898,0.664422,0.264549,-0.639316,0.282547,-1.041047,0.009278,0.001953,-3.295898,9.338379,-18.920898,0,0
4670,2024 10 17,09:00:38.906,0.665516,0.265059,-0.638561,0.281198,-1.056185,0.059084,0.033692,-6.530762,7.995605,-19.958496,0,0
4671,2024 10 17,09:00:38.915,0.666682,0.265578,-0.637624,0.280068,-1.033723,0.050783,0.057131,-5.249023,11.535645,-19.226074,0,0
4672,2024 10 17,09:00:38.923,0.667856,0.266159,-0.636538,0.279191,-1.001984,0.026856,0.063478,-0.854492,12.329102,-17.883301,0,0
4673,2024 10 17,09:00:38.931,0.668969,0.266817,-0.635398,0.278494,-0.991241,0.055177,0.075198,0.671387,12.390137,-17.272949,0,0
4674,2024 10 17,09:00:38.940,0.669902,0.267661,-0.634333,0.277868,-1.004425,0.025391,0.047365,3.234863,9.399414,-17.63916,0,0
4675,2024 10 17,09:00:38.948,0.669902,0.267661,-0.634333,0.277868,-1.004425,0.025391,0.047365,3.234863,9.399414,-17.63916,0,0
4676,2024 10 17,09:00:38.956,0.670688,0.268572,-0.633509,0.276972,-0.986847,0.019532,0.054689,-0.305176,5.187988,-19.165039,0,0
4677,2024 10 17,09:00:38.965,0.67141,0.269536,-0.632797,0.275911,-1.000031,0.033692,0.061037,-0.305176,3.967285,-20.019531,0,0
4678,2024 10 17,09:00:38.973,0.672076,0.2706,-0.632121,0.274795,-0.995148,0.055666,0.129398,-0.305176,2.746582,-21.179199,0,0
4679,2024 10 17,09:00:38.981,0.672731,0.271781,-0.631386,0.273716,-0.990265,0.021973,0.102054,2.685547,3.601074,-21.362305,0,0
4680,2024 10 17,09:00:38.990,0.673298,0.273049,-0.630738,0.272552,-0.947783,0.041017,0.146001,1.831055,-0.366211,-22.399902,0,0
4681,2024 10 17,09:00:38.998,0.673298,0.273049,-0.630738,0.272552,-0.947783,0.041017,0.146001,1.831055,-0.366211,-22.399902,0,0
4682,2024 10 17,09:00:39.006,0.673576,0.274555,-0.630243,0.271494,-0.980499,0.010743,0.124516,5.187988,-2.990723,-21.66748,0,0
4683,2024 10 17,09:00:39.015,0.673818,0.276138,-0.629688,0.270573,-0.992706,-0.004395,0.057131,6.530762,-1.831055,-21.179199,0,0
4684,2024 10 17,09:00:39.023,0.674057,0.277677,-0.629167,0.269614,-0.999542,-0.011231,0.0918,5.981445,-2.13623,-21.118164,0,0
4685,2024 10 17,09:00:39.031,0.674442,0.279081,-0.628527,0.268693,-1.012726,-0.008301,0.0918,4.577637,0.732422,-20.751953,0,0
4686,2024 10 17,09:00:39.040,0.674981,0.28032,-0.627815,0.267712,-1.001984,-0.014649,0.07178,2.258301,2.868652,-20.629883,0,0
4687,2024 10 17,09:00:39.048,0.674981,0.28032,-0.627815,0.267712,-1.001984,-0.014649,0.07178,2.258301,2.868652,-20.629883,0,0
4688,2024 10 17,09:00:39.056,0.675606,0.281442,-0.627082,0.266674,-1.006378,0.001953,0.121586,0.793457,3.112793,-21.057129,0,0
4689,2024 10 17,09:00:39.065,0.676366,0.282528,-0.626246,0.265562,-1.020051,-0.019044,0.100589,0.0,5.371094,-22.094727,0,0
4690,2024 10 17,09:00:39.073,0.677314,0.283528,-0.62527,0.264378,-1.029328,-0.008789,0.076662,-1.281738,7.324219,-23.010254,0,0
4691,2024 10 17,09:00:39.081,0.678332,0.284549,-0.62426,0.263053,-1.049348,-0.014649,0.087893,-2.441406,7.751465,-24.780273,0,0
4692,2024 10 17,09:00:39.090,0.679451,0.285594,-0.623185,0.261578,-1.072298,-0.030274,0.08301,-1.525879,8.789063,-26.306152,0,0
4693,2024 10 17,09:00:39.098,0.679451,0.285594,-0.623185,0.261578,-1.072298,-0.030274,0.08301,-1.525879,8.789063,-26.306152,0,0
4694,2024 10 17,09:00:39.106,0.680688,0.286756,-0.622038,0.259817,-1.07474,-0.001465,0.110355,-5.737305,7.629395,-31.12793,0,0
4695,2024 10 17,09:00:39.115,0.68211,0.288047,-0.620669,0.257923,-1.087435,-0.036134,0.087893,-3.723145,11.352539,-33.813477,0,0
4696,2024 10 17,09:00:39.123,0.683673,0.289477,-0.619213,0.255674,-1.119175,-0.013672,0.08301,-6.04248,10.314941,-38.94043,0,0
4697,2024 10 17,09:00:39.131,0.685396,0.291178,-0.617565,0.253103,-1.115757,-0.007324,0.096194,-6.103516,11.901855,-44.677734,0,0
4698,2024 10 17,09:00:39.140,0.68727,0.293159,-0.615666,0.250345,-1.18656,-0.018067,0.060549,-4.089355,13.366699,-49.255371,0,0
4699,2024 10 17,09:00:39.148,0.68727,0.293159,-0.615666,0.250345,-1.18656,-0.018067,0.060549,-4.089355,13.366699,-49.255371,0,0
4700,2024 10 17,09:00:39.156,0.6893,0.295529,-0.613549,0.247154,-1.215857,0.030763,0.143559,-4.455566,13.916016,-57.189941,0,0
4701,2024 10 17,09:00:39.165,0.691606,0.298403,-0.610916,0.243759,-1.256386,0.021485,0.104984,-0.915527,17.51709,-65.734863,0,0
4702,2024 10 17,09:00:39.173,0.693968,0.302011,-0.608017,0.239819,-1.317423,0.050783,0.150884,2.685547,15.441895,-76.782227,0,0
4703,2024 10 17,09:00:39.181,0.696521,0.306459,-0.604572,0.235444,-1.38432,0.063478,0.138676,6.225586,18.371582,-89.477539,0,0
4704,2024 10 17,09:00:39.190,0.69939,0.311814,-0.600398,0.230537,-1.425336,0.099612,0.162114,11.291504,21.972656,-104.187012,0,0
4705,2024 10 17,09:00:39.198,0.69939,0.311814,-0.600398,0.230537,-1.425336,0.099612,0.162114,11.291504,21.972656,-104.187012,0,0
4706,2024 10 17,09:00:39.206,0.702362,0.318399,-0.595609,0.224855,-1.440962,0.112796,0.225593,17.211914,20.202637,-122.375488,0,0
4707,2024 10 17,09:00:39.215,0.705392,0.326301,-0.590203,0.218198,-1.604541,0.109867,0.17481,22.521973,18.432617,-142.76123,0,0
4708,2024 10 17,09:00:39.223,0.708855,0.335372,-0.583932,0.209937,-1.812555,0.121586,0.064455,19.53125,22.766113,-169.73877,0,0
4709,2024 10 17,09:00:39.231,0.713232,0.345511,-0.576166,0.199887,-1.916074,0.141606,-0.049318,16.235352,31.982422,-200.98877,0,0
4710,2024 10 17,09:00:39.240,0.718448,0.356749,-0.56698,0.187339,-2.198309,0.267098,-0.06592,6.958008,37.04834,-238.708496,0,0
4711,2024 10 17,09:00:39.248,0.718448,0.356749,-0.56698,0.187339,-2.198309,0.267098,-0.06592,6.958008,37.04834,-238.708496,0,0
4712,2024 10 17,09:00:39.256,0.724766,0.369415,-0.5554,0.172563,-2.498611,0.434584,0.072756,8.239746,56.091309,-281.616211,0,0
4713,2024 10 17,09:00:39.265,0.732375,0.38398,-0.540362,0.155548,-2.744713,0.483413,-0.087405,12.268066,81.176758,-332.824707,0,0
4714,2024 10 17,09:00:39.273,0.741322,0.400416,-0.521142,0.136086,-3.094333,0.456069,-0.333018,11.047363,110.961914,-389.221191,0,0
4715,2024 10 17,09:00:39.281,0.750772,0.418632,-0.498229,0.113388,-3.394146,0.500504,0.161138,12.390137,127.380371,-445.19043,0,0
4716,2024 10 17,09:00:39.290,0.760552,0.438195,-0.470812,0.088778,-3.45909,0.271493,0.162114,18.432617,154.907227,-490.356445,0,0
4717,2024 10 17,09:00:39.298,0.760552,0.438195,-0.470812,0.088778,-3.45909,0.271493,0.162114,18.432617,154.907227,-490.356445,0,0
4718,2024 10 17,09:00:39.306,0.768832,0.459468,-0.440249,0.062985,-3.774041,-0.121586,0.095706,38.635254,168.151855,-519.897461,0,0
4719,2024 10 17,09:00:39.315,0.776338,0.48017,-0.40662,0.037355,-3.426374,-0.032228,-0.066408,35.888672,194.091797,-527.34375,0,1
4720,2024 10 17,09:00:39.323,0.783053,0.498822,-0.371268,0.012828,-3.151463,0.331065,-0.35548,24.902344,209.899902,-510.253906,0,0
4721,2024 10 17,09:00:39.331,0.789061,0.514591,-0.335369,-0.010284,-2.90585,0.862331,-0.383801,11.84082,220.76416,-492.736816,0,0
4722,2024 10 17,09:00:39.340,0.793973,0.528563,-0.298567,-0.032952,-1.717338,1.625538,-1.145543,3.540039,224.060059,-487.182617,0,0
4723,2024 10 17,09:00:39.348,0.795468,0.541817,-0.265366,-0.056961,-1.864315,1.44438,-0.923368,20.507813,148.55957,-475.219727,0,0
4724,2024 10 17,09:00:39.356,0.795468,0.541817,-0.265366,-0.056961,-1.864315,1.44438,-0.923368,20.507813,148.55957,-475.219727,0,0
4725,2024 10 17,09:00:39.365,0.794253,0.553652,-0.235197,-0.085517,-1.006378,1.371624,-1.165563,-0.305176,97.351074,-502.929688,0,0
4726,2024 10 17,09:00:39.373,0.791557,0.561797,-0.208849,-0.119179,0.245125,0.56447,-2.062075,-48.88916,-3.051758,-502.441406,0,0
4727,2024 10 17,09:00:39.381,0.791326,0.560338,-0.192564,-0.150807,2.773522,0.829615,-0.430677,-135.925293,-65.307617,-313.537598,0,0
4728,2024 10 17,09:00:39.390,0.795583,0.550226,-0.192853,-0.164639,0.213874,2.273019,-0.491226,-133.483887,-118.774414,-13.549805,0,0
4729,2024 10 17,09:00:39.398,0.801168,0.538673,-0.205929,-0.159858,-0.771996,2.147527,0.665548,-98.266602,-77.087402,209.655762,0,0
4730,2024 10 17,09:00:39.406,0.801168,0.538673,-0.205929,-0.159858,-0.771996,2.147527,0.665548,-98.266602,-77.087402,209.655762,0,0
4731,2024 10 17,09:00:39.415,0.807993,0.52903,-0.220148,-0.137147,-1.084018,1.376995,-0.217292,-29.23584,32.226563,356.994629,0,0
4732,2024 10 17,09:00:39.423,0.81358,0.52118,-0.235239,-0.105454,-1.066439,0.792993,-0.064943,6.469727,61.279297,416.320801,0,0
4733,2024 10 17,09:00:39.431,0.8181,0.513381,-0.248915,-0.072068,-0.59328,0.426771,-0.646016,7.93457,77.148438,409.240723,0,0
4734,2024 10 17,09:00:39.440,0.820632,0.505206,-0.263589,-0.04302,-0.396985,0.161626,-0.704123,-2.685547,20.935059,369.934082,0,0
4735,2024 10 17,09:00:39.448,0.821753,0.496216,-0.279453,-0.019936,-0.227546,-0.037599,-0.949736,-23.4375,-27.038574,323.486328,0,0
4736,2024 10 17,09:00:39.456,0.821753,0.496216,-0.279453,-0.019936,-0.227546,-0.037599,-0.949736,-23.4375,-27.038574,323.486328,0,0
4737,2024 10 17,09:00:39.465,0.821693,0.485951,-0.297766,-0.002666,-0.288095,0.077151,-0.734397,-46.630859,-89.233398,292.480469,0,0
4738,2024 10 17,09:00:39.473,0.820736,0.474066,-0.318626,0.011437,-0.463393,0.344737,-0.549821,-64.27002,-127.01416,288.574219,0,0
4739,2024 10 17,09:00:39.481,0.818845,0.460729,-0.341429,0.025453,-0.754906,0.551286,-0.357433,-68.969727,-143.981934,306.82373,0,0
4740,2024 10 17,09:00:39.490,0.816173,0.446148,-0.364815,0.041515,-0.941923,0.57326,-0.241218,-65.856934,-134.887695,333.92334,0,0
4741,2024 10 17,09:00:39.498,0.812815,0.430522,-0.387813,0.059865,-0.949248,0.476089,-0.228523,-62.072754,-123.474121,355.285645,0,0
4742,2024 10 17,09:00:39.506,0.812815,0.430522,-0.387813,0.059865,-0.949248,0.476089,-0.228523,-62.072754,-123.474121,355.285645,0,0
4743,2024 10 17,09:00:39.515,0.808381,0.414236,-0.410743,0.078855,-0.936064,0.344249,-0.265633,-61.523438,-128.173828,360.961914,0,0
4744,2024 10 17,09:00:39.523,0.802581,0.397537,-0.434146,0.096668,-0.89993,0.24073,-0.273934,-66.772461,-147.766113,353.271484,0,0
4745,2024 10 17,09:00:39.531,0.795117,0.380585,-0.458618,0.112313,-1.015656,0.224616,-0.243171,-73.364258,-177.185059,341.491699,0,0
4746,2024 10 17,09:00:39.540,0.785878,0.363472,-0.484175,0.125932,-1.235389,0.303232,-0.093265,-77.941895,-203.24707,331.298828,0,0
4747,2024 10 17,09:00:39.548,0.775172,0.346324,-0.50987,0.138564,-1.454634,0.38966,0.043947,-75.683594,-213.07373,325.805664,0,0
4748,2024 10 17,09:00:39.556,0.775172,0.346324,-0.50987,0.138564,-1.454634,0.38966,0.043947,-75.683594,-213.07373,325.805664,0,0
4749,2024 10 17,09:00:39.565,0.763255,0.329329,-0.534915,0.15116,-1.649464,0.457045,0.189459,-66.52832,-213.378906,324.279785,0,0
4750,2024 10 17,09:00:39.573,0.750279,0.31272,-0.558785,0.164459,-1.767632,0.50148,0.299814,-51.208496,-206.970215,326.11084,0,0
4751,2024 10 17,09:00:39.581,0.736334,0.296531,-0.58124,0.179001,-1.855525,0.523453,0.31251,-32.775879,-197.570801,331.787109,0,0
4752,2024 10 17,09:00:39.590,0.721268,0.280854,-0.602428,0.194868,-1.985412,0.482925,0.284188,-13.427734,-192.565918,337.768555,0,0
4753,2024 10 17,09:00:39.598,0.704984,0.265768,-0.622576,0.211574,-2.155828,0.431166,0.245125,2.197266,-191.894531,339.416504,0,0
4754,2024 10 17,09:00:39.606,0.704984,0.265768,-0.622576,0.211574,-2.155828,0.431166,0.245125,2.197266,-191.894531,339.416504,0,0
4755,2024 10 17,09:00:39.615,0.687614,0.251258,-0.641711,0.22861,-2.3155,0.264657,0.176275,13.48877,-192.199707,337.768555,0,0
4756,2024 10 17,09:00:39.623,0.669165,0.23726,-0.660089,0.245372,-2.537675,0.069826,0.188482,19.592285,-196.594238,333.374023,0,0
4757,2024 10 17,09:00:39.631,0.65024,0.223692,-0.67727,0.261641,-2.689535,-0.188971,0.22364,22.949219,-191.955566,325.195313,0,0
4758,2024 10 17,09:00:39.640,0.631406,0.210599,-0.693012,0.276964,-2.696371,-0.641621,0.222663,21.728516,-185.668945,311.828613,0,0
4759,2024 10 17,09:00:39.648,0.612398,0.198107,-0.707902,0.290857,-2.769616,-1.198279,0.259285,17.272949,-188.537598,299.438477,0,0
4760,2024 10 17,09:00:39.656,0.612398,0.198107,-0.707902,0.290857,-2.769616,-1.198279,0.259285,17.272949,-188.537598,299.438477,0,0
4761,2024 10 17,09:00:39.665,0.593413,0.185823,-0.722,0.303392,-2.874111,-1.702689,0.333995,10.009766,-184.387207,290.527344,0,0
4762,2024 10 17,09:00:39.673,0.57564,0.173706,-0.734507,0.314584,-2.771081,-2.254952,0.354015,3.601074,-164.672852,272.338867,0,0
4763,2024 10 17,09:00:39.681,0.559353,0.163223,-0.745667,0.32321,-2.382885,-2.807214,0.535661,-5.554199,-160.095215,230.224609,0,0
4764,2024 10 17,09:00:39.690,0.544203,0.15617,-0.756321,0.327769,-1.729057,-3.073336,0.906278,-19.287109,-173.034668,167.419434,0,0
4765,2024 10 17,09:00:39.698,0.528676,0.153922,-0.767681,0.327835,-1.405316,-3.160253,1.564013,-28.991699,-215.576172,100.646973,0,0
4766,2024 10 17,09:00:39.706,0.528676,0.153922,-0.767681,0.327835,-1.405316,-3.160253,1.564013,-28.991699,-215.576172,100.646973,0,0
4767,2024 10 17,09:00:39.715,0.512553,0.156105,-0.779468,0.324578,-1.783257,-3.414655,2.052797,-30.700684,-241.699219,49.804688,0,0
4768,2024 10 17,09:00:39.723,0.498443,0.159907,-0.789626,0.320117,-2.549394,-3.761834,2.171941,-28.869629,-207.763672,26.916504,0,0
4769,2024 10 17,09:00:39.731,0.491303,0.162357,-0.795308,0.315829,-2.836024,-3.852168,2.12653,-31.25,-95.703125,7.93457,0,0
4770,2024 10 17,09:00:39.740,0.493451,0.165042,-0.798652,0.30236,-6.202338,-4.453749,6.554399,-205.688477,-80.810547,-149.230957,0,0
4771,2024 10 17,09:00:39.748,0.515366,0.178938,-0.786362,0.289851,-2.87167,-3.689077,2.672445,-56.884766,306.335449,-286.010742,0,0
4772,2024 10 17,09:00:39.756,0.515366,0.178938,-0.786362,0.289851,-2.87167,-3.689077,2.672445,-56.884766,306.335449,-286.010742,0,0
4773,2024 10 17,09:00:39.765,0.559709,0.181666,-0.760878,0.273473,1.267128,1.252968,-2.727134,-117.858887,484.130859,-305.603027,0,0
4774,2024 10 17,09:00:39.773,0.569494,0.199327,-0.755257,0.255993,-2.30134,1.680227,1.046907,-68.847656,-83.984375,-325.683594,1,0
4775,2024 10 17,09:00:39.781,0.578725,0.217564,-0.746694,0.245337,-2.903409,-0.457534,1.423383,58.288574,156.921387,-251.159668,0,0
4776,2024 10 17,09:00:39.790,0.598912,0.22802,-0.727419,0.245302,-1.097201,-0.474136,0.057131,77.392578,242.553711,-172.485352,0,0
4777,2024 10 17,09:00:39.798,0.612274,0.23486,-0.714196,0.244714,-1.460006,-0.161626,0.305185,35.03418,181.82373,-117.1875,0,0
4778,2024 10 17,09:00:39.806,0.624209,0.238497,-0.701144,0.248754,-1.017609,-0.146489,-0.464858,69.824219,178.710938,-54.077148,0,0
4779,2024 10 17,09:00:39.815,0.624209,0.238497,-0.701144,0.248754,-1.017609,-0.146489,-0.464858,69.824219,178.710938,-54.077148,0,0
4780,2024 10 17,09:00:39.823,0.631061,0.242379,-0.691247,0.255328,-1.201697,0.019044,0.098636,102.783203,126.464844,-23.498535,0,0
4781,2024 10 17,09:00:39.831,0.63826,0.24572,-0.680104,0.264015,-1.003449,-0.082522,-0.035646,100.524902,161.010742,-14.221191,0,0
4782,2024 10 17,09:00:39.840,0.645341,0.247719,-0.669636,0.271582,-0.907743,-0.107425,-0.299326,78.796387,136.779785,-9.460449,0,0
4783,2024 10 17,09:00:39.848,0.650106,0.249372,-0.661882,0.277646,-0.980499,-0.00293,0.154302,69.946289,100.646973,-1.77002,0,0
4784,2024 10 17,09:00:39.856,0.654407,0.250544,-0.654825,0.283166,-0.879421,-0.026368,0.058596,54.931641,94.360352,-2.075195,0,0
4785,2024 10 17,09:00:39.865,0.654407,0.250544,-0.654825,0.283166,-0.879421,-0.026368,0.058596,54.931641,94.360352,-2.075195,0,0
4786,2024 10 17,09:00:39.873,0.657819,0.251294,-0.649527,0.286776,-0.84817,0.010743,0.165044,36.010742,65.063477,-4.943848,0,0
4787,2024 10 17,09:00:39.881,0.66007,0.251946,-0.64594,0.289124,-0.833522,0.024415,0.248054,24.719238,43.09082,-5.065918,0,0
4788,2024 10 17,09:00:39.890,0.661658,0.252484,-0.643539,0.290374,-0.98001,0.066408,0.010254,14.648438,26.489258,-7.507324,0,0
4789,2024 10 17,09:00:39.898,0.662666,0.253148,-0.642006,0.290893,-0.989776,0.056642,0.120609,9.155273,16.662598,-9.521484,0,0
4790,2024 10 17,09:00:39.906,0.663624,0.253779,-0.640785,0.29085,-1.009308,0.055666,0.029786,4.699707,12.268066,-12.878418,0,0
4791,2024 10 17,09:00:39.915,0.663624,0.253779,-0.640785,0.29085,-1.009308,0.055666,0.029786,4.699707,12.268066,-12.878418,0,0
4792,2024 10 17,09:00:39.923,0.664373,0.254468,-0.64005,0.290156,-1.022492,0.054201,0.0459,-1.037598,5.310059,-15.686035,0,0
4793,2024 10 17,09:00:39.931,0.665124,0.255061,-0.639525,0.289069,-1.001984,0.033204,0.039064,-5.126953,4.150391,-17.089844,0,0
4794,2024 10 17,09:00:39.940,0.66583,0.255521,-0.639263,0.287615,-1.032258,0.056154,0.024415,-8.972168,0.183105,-17.76123,0,0
4795,2024 10 17,09:00:39.948,0.666495,0.255946,-0.639058,0.286149,-1.044465,0.067385,0.074709,-8.178711,1.586914,-17.150879,0,0
4796,2024 10 17,09:00:39.956,0.667337,0.25635,-0.638511,0.285043,-1.016144,0.056642,0.042482,-4.760742,6.530762,-15.686035,0,0
4797,2024 10 17,09:00:39.965,0.667337,0.25635,-0.638511,0.285043,-1.016144,0.056642,0.042482,-4.760742,6.530762,-15.686035,0,0
4798,2024 10 17,09:00:39.973,0.668165,0.256739,-0.637905,0.28411,-0.996124,0.062502,0.092776,-4.02832,6.652832,-14.404297,0,0
4799,2024 10 17,09:00:39.981,0.668966,0.257208,-0.637183,0.283417,-1.020051,0.055177,0.053224,-0.671387,8.117676,-13.61084,0,0
4800,2024 10 17,09:00:39.990,0.6698,0.257706,-0.636414,0.282724,-1.041536,0.041017,0.02002,-1.708984,8.239746,-14.404297,0,0
4801,2024 10 17,09:00:39.998,0.670742,0.258169,-0.635612,0.281871,-1.0347,0.035646,0.027833,-3.295898,9.460449,-15.991211,0,0
4802,2024 10 17,09:00:40.006,0.671868,0.258577,-0.634696,0.280879,-1.001984,0.068361,0.06885,-4.455566,11.230469,-17.456055,0,0
4803,2024 10 17,09:00:40.015,0.671868,0.258577,-0.634696,0.280879,-1.001984,0.068361,0.06885,-4.455566,11.230469,-17.456055,0,0
4804,2024 10 17,09:00:40.023,0.672901,0.259146,-0.63379,0.279925,-1.025422,0.079592,0.081057,-2.319336,9.338379,-17.883301,0,0
4805,2024 10 17,09:00:40.031,0.673813,0.259992,-0.632868,0.279031,-0.985382,0.102054,0.15186,1.403809,8.178711,-19.592285,0,0
4806,2024 10 17,09:00:40.040,0.674546,0.261303,-0.63178,0.2785,-1.001495,0.033692,0.087405,8.605957,6.591797,-19.958496,0,0
4807,2024 10 17,09:00:40.048,0.67503,0.262846,-0.630993,0.277661,-1.004913,0.019044,0.107425,7.93457,1.464844,-22.033691,0,0
4808,2024 10 17,09:00:40.056,0.675597,0.264415,-0.630053,0.276922,-0.996124,0.035646,0.058107,6.896973,4.02832,-22.277832,0,0
4809,2024 10 17,09:00:40.065,0.675597,0.264415,-0.630053,0.276922,-0.996124,0.035646,0.058107,6.896973,4.02832,-22.277832,0,0
4810,2024 10 17,09:00:40.073,0.676121,0.265936,-0.629256,0.276001,-0.978545,0.021973,0.124516,5.249023,1.525879,-22.583008,0,0
4811,2024 10 17,09:00:40.081,0.676694,0.267394,-0.628402,0.275129,-1.002472,0.009766,0.118656,6.835938,4.150391,-21.66748,0,0
4812,2024 10 17,09:00:40.090,0.677396,0.268783,-0.627399,0.274338,-0.992706,0.001953,0.072756,6.713867,6.286621,-21.42334,0,0
4813,2024 10 17,09:00:40.098,0.678104,0.270117,-0.626456,0.273432,-1.015656,0.01709,0.088382,5.249023,5.432129,-21.911621,0,0
4814,2024 10 17,09:00:40.106,0.67893,0.271441,-0.62538,0.272533,-1.043489,-0.016114,0.083499,4.882813,8.239746,-22.766113,0,0
4815,2024 10 17,09:00:40.115,0.67893,0.271441,-0.62538,0.272533,-1.043489,-0.016114,0.083499,4.882813,8.239746,-22.766113,0,0
4816,2024 10 17,09:00:40.123,0.679937,0.272709,-0.624204,0.27145,-1.053743,0.010743,0.108402,1.464844,8.728027,-25.32959,0,0
4817,2024 10 17,09:00:40.131,0.681127,0.273993,-0.622947,0.270057,-1.072787,0.044923,0.107425,-2.13623,9.643555,-29.23584,0,0
4818,2024 10 17,09:00:40.140,0.682497,0.275381,-0.62157,0.268352,-1.102573,0.006348,0.090335,-1.953125,10.559082,-33.691406,0,0
4819,2024 10 17,09:00:40.148,0.684044,0.276937,-0.620161,0.266064,-1.107456,-0.033692,0.084964,-3.417969,10.559082,-39.672852,0,0
4820,2024 10 17,09:00:40.156,0.685756,0.278614,-0.618812,0.263031,-1.116245,0.041505,0.104495,-11.169434,6.408691,-47.180176,0,0
4821,2024 10 17,09:00:40.165,0.685756,0.278614,-0.618812,0.263031,-1.116245,0.041505,0.104495,-11.169434,6.408691,-47.180176,0,0
4822,2024 10 17,09:00:40.173,0.687471,0.280676,-0.617436,0.259573,-1.196326,0.014649,0.071291,-11.047363,6.164551,-53.771973,0,0
4823,2024 10 17,09:00:40.181,0.689556,0.28298,-0.615733,0.255556,-1.230506,0.020508,0.10303,-11.474609,9.094238,-62.255859,0,0
4824,2024 10 17,09:00:40.190,0.691905,0.285744,-0.613706,0.250964,-1.268105,0.082034,0.168462,-11.84082,9.765625,-72.509766,0,0
4825,2024 10 17,09:00:40.198,0.694486,0.289171,-0.611193,0.245991,-1.352092,0.061037,0.115238,-8.605957,12.451172,-83.190918,0,0
4826,2024 10 17,09:00:40.206,0.69738,0.29335,-0.608063,0.240555,-1.339885,0.078616,0.147954,-3.601074,16.601563,-94.970703,0,0
4827,2024 10 17,09:00:40.215,0.69738,0.29335,-0.608063,0.240555,-1.339885,0.078616,0.147954,-3.601074,16.601563,-94.970703,0,0
4828,2024 10 17,09:00:40.223,0.700483,0.298432,-0.604185,0.234993,-1.335978,0.12891,0.19776,4.02832,20.507813,-105.712891,0,0
4829,2024 10 17,09:00:40.231,0.703562,0.304651,-0.599743,0.229121,-1.354045,0.133793,0.255867,13.183594,19.104004,-119.262695,0,0
4830,2024 10 17,09:00:40.240,0.706566,0.312226,-0.594646,0.222882,-1.411176,0.13477,0.201666,25.024414,19.226074,-133.605957,0,0
4831,2024 10 17,09:00:40.248,0.709355,0.32129,-0.589071,0.215832,-1.626026,0.133793,0.114261,30.334473,13.73291,-153.869629,0,0
4832,2024 10 17,09:00:40.256,0.7124,0.33165,-0.582745,0.20713,-1.871151,0.142582,0.106449,30.334473,15.991211,-181.335449,0,0
4833,2024 10 17,09:00:40.265,0.716503,0.343061,-0.574782,0.196364,-2.165593,0.181646,-0.077639,22.094727,28.808594,-217.102051,0,0
4834,2024 10 17,09:00:40.273,0.716503,0.343061,-0.574782,0.196364,-2.165593,0.181646,-0.077639,22.094727,28.808594,-217.102051,0,0
4835,2024 10 17,09:00:40.281,0.721935,0.355589,-0.564691,0.183007,-2.427809,0.317881,-0.063967,14.953613,43.457031,-259.277344,0,0
4836,2024 10 17,09:00:40.290,0.728755,0.369712,-0.551631,0.167128,-2.786706,0.480483,-0.084964,12.512207,66.040039,-309.570313,0,0
4837,2024 10 17,09:00:40.298,0.737385,0.385549,-0.534228,0.149052,-3.053804,0.462905,-0.288095,13.977051,105.224609,-364.135742,0,0
4838,2024 10 17,09:00:40.306,0.747295,0.403069,-0.512622,0.127687,-3.475204,0.505875,-0.044435,8.483887,126.525879,-425.354004,0,0
4839,2024 10 17,09:00:40.315,0.757729,0.422155,-0.486709,0.103667,-3.539171,0.39259,0.049806,13.73291,155.029297,-476.013184,0,0
4840,2024 10 17,09:00:40.323,0.757729,0.422155,-0.486709,0.103667,-3.539171,0.39259,0.049806,13.73291,155.029297,-476.013184,0,0
4841,2024 10 17,09:00:40.331,0.767731,0.442728,-0.456569,0.078268,-3.784783,-0.049806,0.142094,30.944824,178.466797,-513.671875,0,0
4842,2024 10 17,09:00:40.340,0.776811,0.463318,-0.42326,0.052456,-3.622181,-0.077151,-0.122074,26.672363,201.049805,-527.22168,0,1
4843,2024 10 17,09:00:40.348,0.785005,0.482229,-0.387917,0.027257,-3.363872,0.17188,-0.277352,20.690918,215.820313,-518.676758,0,0
4844,2024 10 17,09:00:40.356,0.792167,0.498598,-0.351941,0.002956,-2.96054,0.707053,-0.402356,4.02832,224.609375,-502.807617,0,0
4845,2024 10 17,09:00:40.365,0.79806,0.512797,-0.315753,-0.020975,-2.432691,1.541551,-0.695822,-5.065918,220.703125,-496.09375,0,0
4846,2024 10 17,09:00:40.373,0.79806,0.512797,-0.315753,-0.020975,-2.432691,1.541551,-0.695822,-5.065918,220.703125,-496.09375,0,0
4847,2024 10 17,09:00:40.381,0.801558,0.526271,-0.280363,-0.044048,-1.814997,1.212439,-1.325236,18.188477,196.105957,-474.975586,0,0
4848,2024 10 17,09:00:40.390,0.801605,0.538473,-0.249587,-0.07199,-1.074252,0.93704,-1.211951,-6.103516,107.421875,-500.427246,0,0
4849,2024 10 17,09:00:40.398,0.800663,0.546332,-0.221965,-0.105789,0.227546,0.212409,-1.843806,-68.969727,27.770996,-515.380859,0,0
4850,2024 10 17,09:00:40.406,0.80124,0.544896,-0.203811,-0.139871,1.835017,0.509293,-0.368664,-163.574219,-66.833496,-357.727051,0,0
4851,2024 10 17,09:00:40.415,0.8056,0.534367,-0.200588,-0.158822,-0.085452,1.96588,-0.836451,-156.005859,-103.271484,-92.895508,0,0
4852,2024 10 17,09:00:40.423,0.8056,0.534367,-0.200588,-0.158822,-0.085452,1.96588,-0.836451,-156.005859,-103.271484,-92.895508,0,0
4853,2024 10 17,09:00:40.431,0.811206,0.521613,-0.209331,-0.161384,-0.663594,2.187078,0.658223,-130.67627,-99.914551,114.990234,0,0
4854,2024 10 17,09:00:40.440,0.817951,0.511284,-0.219572,-0.146056,-1.047395,1.501999,-0.084475,-56.45752,28.015137,268.615723,0,0
4855,2024 10 17,09:00:40.448,0.823517,0.504033,-0.230403,-0.121182,-1.024934,0.908719,-0.050295,-6.896973,44.616699,325.683594,0,0
4856,2024 10 17,09:00:40.456,0.827544,0.498101,-0.240693,-0.095567,-0.612812,0.569353,-0.500992,6.164551,61.401367,310.119629,0,0
4857,2024 10 17,09:00:40.465,0.8299,0.492794,-0.251012,-0.073568,-0.173833,0.429212,-0.688498,7.385254,13.85498,271.972656,0,0
4858,2024 10 17,09:00:40.473,0.8299,0.492794,-0.251012,-0.073568,-0.173833,0.429212,-0.688498,7.385254,13.85498,271.972656,0,0
4859,2024 10 17,09:00:40.481,0.830461,0.487606,-0.263347,-0.056781,-0.138676,0.253426,-0.721702,0.244141,-34.179688,234.25293,0,0
4860,2024 10 17,09:00:40.490,0.829881,0.481888,-0.277724,-0.044173,-0.301279,0.288095,-0.5674,-9.277344,-81.604004,211.608887,0,0
4861,2024 10 17,09:00:40.498,0.828661,0.47523,-0.293878,-0.033375,-0.456557,0.44142,-0.472182,-17.39502,-103.942871,211.547852,0,0
4862,2024 10 17,09:00:40.506,0.826914,0.467704,-0.311412,-0.022113,-0.646504,0.533708,-0.238777,-17.883301,-112.609863,228.820801,0,0
4863,2024 10 17,09:00:40.515,0.824929,0.459304,-0.329326,-0.008787,-0.683615,0.551286,-0.213874,-16.174316,-103.45459,254.150391,0,0
4864,2024 10 17,09:00:40.523,0.824929,0.459304,-0.329326,-0.008787,-0.683615,0.551286,-0.213874,-16.174316,-103.45459,254.150391,0,0
4865,2024 10 17,09:00:40.531,0.822527,0.449977,-0.347741,0.006827,-0.601581,0.47853,-0.187017,-14.465332,-99.853516,282.348633,0,0
4866,2024 10 17,09:00:40.540,0.819466,0.439402,-0.367179,0.024098,-0.514664,0.39259,-0.247566,-17.76123,-106.811523,307.800293,0,0
4867,2024 10 17,09:00:40.548,0.815343,0.427322,-0.3884,0.041904,-0.532243,0.335948,-0.274422,-26.550293,-127.685547,327.392578,0,0
4868,2024 10 17,09:00:40.556,0.809883,0.413598,-0.411713,0.059316,-0.645527,0.314951,-0.247078,-38.879395,-155.517578,340.332031,0,0
4869,2024 10 17,09:00:40.565,0.802908,0.398308,-0.436945,0.075955,-0.832545,0.364269,-0.201666,-50.65918,-182.373047,349.79248,0,0
4870,2024 10 17,09:00:40.573,0.802908,0.398308,-0.436945,0.075955,-0.832545,0.364269,-0.201666,-50.65918,-182.373047,349.79248,0,0
4871,2024 10 17,09:00:40.581,0.794248,0.381655,-0.463732,0.091991,-1.09183,0.43263,-0.136235,-58.410645,-205.749512,358.642578,0,0
4872,2024 10 17,09:00:40.590,0.783926,0.363982,-0.491279,0.107805,-1.311075,0.50148,-0.017579,-60.791016,-217.956543,365.844727,0,0
4873,2024 10 17,09:00:40.598,0.77227,0.345621,-0.518455,0.123891,-1.49028,0.496109,0.054201,-57.556152,-218.017578,371.154785,0,0
4874,2024 10 17,09:00:40.606,0.759272,0.327019,-0.544892,0.140205,-1.670949,0.483902,0.162603,-51.330566,-219.299316,372.741699,0,0
4875,2024 10 17,09:00:40.615,0.745018,0.308339,-0.570353,0.15676,-1.784722,0.50734,0.190924,-43.945313,-217.346191,374.084473,0,0
4876,2024 10 17,09:00:40.623,0.745018,0.308339,-0.570353,0.15676,-1.784722,0.50734,0.190924,-43.945313,-217.346191,374.084473,0,0
4877,2024 10 17,09:00:40.631,0.729362,0.289643,-0.594919,0.173807,-1.944884,0.525407,0.25782,-33.630371,-218.505859,378.90625,0,0
4878,2024 10 17,09:00:40.640,0.71224,0.270978,-0.618508,0.191658,-2.171453,0.54152,0.330576,-20.324707,-217.773438,385.803223,0,0
4879,2024 10 17,09:00:40.648,0.693608,0.252436,-0.640958,0.210609,-2.466872,0.507828,0.398938,-3.845215,-216.308594,394.53125,0,0
4880,2024 10 17,09:00:40.656,0.673664,0.234135,-0.661894,0.230768,-2.837489,0.347179,0.402844,14.465332,-210.266113,401.611328,0,0
4881,2024 10 17,09:00:40.665,0.653019,0.216107,-0.680731,0.251929,-3.11533,-0.145512,0.366222,30.151367,-196.350098,404.418945,0,0
4882,2024 10 17,09:00:40.673,0.653019,0.216107,-0.680731,0.251929,-3.11533,-0.145512,0.366222,30.151367,-196.350098,404.418945,0,0
4883,2024 10 17,09:00:40.681,0.632219,0.198185,-0.697475,0.273038,-3.237892,-1.015656,0.290048,33.752441,-182.556152,401.733398,0,0
4884,2024 10 17,09:00:40.690,0.611571,0.18048,-0.712511,0.292808,-3.246193,-1.812555,0.381848,27.954102,-175.842285,388.061523,0,0
4885,2024 10 17,09:00:40.698,0.591382,0.164498,-0.725984,0.310088,-3.251564,-2.459059,0.539567,25.695801,-172.119141,350.708008,0,0
4886,2024 10 17,09:00:40.706,0.572599,0.152067,-0.737488,0.324219,-3.007416,-2.922941,0.763207,29.907227,-167.419434,288.879395,0,0
4887,2024 10 17,09:00:40.715,0.555725,0.144691,-0.74703,0.334933,-2.288156,-3.315042,1.094272,39.18457,-165.95459,212.890625,0,0
4888,2024 10 17,09:00:40.723,0.539639,0.143045,-0.755759,0.34228,-1.591357,-3.700308,1.525437,48.339844,-191.40625,140.258789,0,0
4889,2024 10 17,09:00:40.731,0.539639,0.143045,-0.755759,0.34228,-1.591357,-3.700308,1.525437,48.339844,-191.40625,140.258789,0,0
4890,2024 10 17,09:00:40.740,0.522884,0.147346,-0.764707,0.34656,-1.703665,-3.952757,2.030824,59.631348,-227.966309,76.171875,0,0
4891,2024 10 17,09:00:40.748,0.507527,0.155855,-0.772233,0.348972,-2.341868,-4.137822,2.174383,71.533203,-213.623047,24.902344,0,0
4892,2024 10 17,09:00:40.756,0.49798,0.165191,-0.775711,0.350714,-2.714438,-4.531388,1.887265,72.509766,-127.685547,-10.742188,0,0
4893,2024 10 17,09:00:40.765,0.495899,0.175138,-0.778761,0.341968,-8.806421,-7.150609,6.165716,-114.196777,-142.089844,-166.503906,0,0
4894,2024 10 17,09:00:40.773,0.514241,0.197589,-0.768781,0.324792,-1.497116,-2.80868,1.185095,-84.960938,230.773926,-359.619141,0,0
4895,2024 10 17,09:00:40.781,0.514241,0.197589,-0.768781,0.324792,-1.497116,-2.80868,1.185095,-84.960938,230.773926,-359.619141,0,0
4896,2024 10 17,09:00:40.790,0.556291,0.202467,-0.74759,0.301094,0.689963,2.123112,-2.371166,-117.1875,398.742676,-365.234375,1,0
4897,2024 10 17,09:00:40.798,0.566121,0.221658,-0.742853,0.280257,-3.211524,1.618702,0.952178,-117.06543,-71.166992,-362.976074,0,0
4898,2024 10 17,09:00:40.806,0.58147,0.238936,-0.729858,0.268533,-2.690512,-0.842311,0.63039,50.170898,221.435547,-284.606934,0,0
4899,2024 10 17,09:00:40.815,0.603385,0.249922,-0.708724,0.266788,-1.0889,-0.314463,-0.119144,82.702637,259.277344,-203.735352,0,0
4900,2024 10 17,09:00:40.823,0.617401,0.25787,-0.693208,0.26792,-1.537156,-0.379894,-0.029786,65.307617,192.993164,-121.21582,0,0
4901,2024 10 17,09:00:40.831,0.617401,0.25787,-0.693208,0.26792,-1.537156,-0.379894,-0.029786,65.307617,192.993164,-121.21582,0,0
4902,2024 10 17,09:00:40.840,0.628553,0.262246,-0.678656,0.274908,-1.108432,0.006348,0.064455,107.055664,197.937012,-44.555664,0,0
4903,2024 10 17,09:00:40.848,0.636273,0.266511,-0.665147,0.285846,-1.063021,-0.265145,-0.207038,143.371582,169.555664,-11.962891,0,0
4904,2024 10 17,09:00:40.856,0.642638,0.269266,-0.653608,0.29548,-0.826685,-0.080081,0.050783,100.402832,147.399902,-4.455566,0,0
4905,2024 10 17,09:00:40.865,0.647218,0.271312,-0.644519,0.30347,-0.878445,-0.066408,-0.061037,89.660645,108.947754,1.464844,0,0
4906,2024 10 17,09:00:40.873,0.650292,0.273063,-0.637609,0.309858,-0.848659,-0.142582,0.239265,68.664551,82.824707,3.112793,0,0
4907,2024 10 17,09:00:40.881,0.650292,0.273063,-0.637609,0.309858,-0.848659,-0.142582,0.239265,68.664551,82.824707,3.112793,0,0
4908,2024 10 17,09:00:40.890,0.653013,0.27361,-0.632518,0.314058,-0.844264,-0.025391,0.039552,36.437988,61.584473,2.197266,0,0
4909,2024 10 17,09:00:40.898,0.654385,0.273941,-0.629781,0.316404,-0.895047,-0.012696,0.227058,22.460938,29.296875,1.647949,0,0
