frame,date,time,quaternion_x,quaternion_y,quaternion_z,quaternion_w,accel_x,accel_y,accel_z,gyro_x,gyro_y,gyro_z,HS,TO
12220,2024 10 23,05:25:51.820,0.501373,-0.443243,-0.505305,-0.544818,-0.946806,0.139164,-0.091311,-0.732422,0.671387,2.502441,0,0
12221,2024 10 23,05:25:51.829,0.501167,-0.443183,-0.505391,-0.544977,-0.949736,0.133793,-0.096194,-1.037598,0.610352,2.990723,0,0
12222,2024 10 23,05:25:51.837,0.50092,-0.443109,-0.505487,-0.545176,-0.936064,0.135746,-0.095706,-1.708984,0.732422,3.662109,0,0
12223,2024 10 23,05:25:51.845,0.500591,-0.443062,-0.505594,-0.545417,-0.934111,0.132328,-0.103519,-2.197266,1.281738,4.333496,0,0
12224,2024 10 23,05:25:51.854,0.500172,-0.443036,-0.505765,-0.545663,-0.952178,0.139164,-0.087405,-2.685547,2.502441,5.187988,0,0
12225,2024 10 23,05:25:51.862,0.500172,-0.443036,-0.505765,-0.545663,-0.952178,0.139164,-0.087405,-2.685547,2.502441,5.187988,0,0
12226,2024 10 23,05:25:51.870,0.499676,-0.443004,-0.505931,-0.54599,-0.961943,0.129398,-0.077639,-3.234863,1.586914,6.103516,0,0
12227,2024 10 23,05:25:51.879,0.499234,-0.442859,-0.506056,-0.546396,-0.946806,0.136235,-0.091311,-3.112793,0.061035,6.591797,0,0
12228,2024 10 23,05:25:51.887,0.498791,-0.442666,-0.506159,-0.546862,-0.934111,0.134281,-0.097659,-3.295898,-0.183105,7.019043,0,0
12229,2024 10 23,05:25:51.895,0.498309,-0.442466,-0.50634,-0.547295,-0.938994,0.1377,-0.092288,-2.441406,0.610352,7.629395,0,0
12230,2024 10 23,05:25:51.904,0.497811,-0.442245,-0.506558,-0.547725,-0.946318,0.146001,-0.090823,-2.685547,0.671387,7.873535,0,0
12231,2024 10 23,05:25:51.912,0.497811,-0.442245,-0.506558,-0.547725,-0.946318,0.146001,-0.090823,-2.685547,0.671387,7.873535,0,0
12232,2024 10 23,05:25:51.920,0.497326,-0.442041,-0.506771,-0.548133,-0.953154,0.146977,-0.087893,-2.258301,0.915527,7.385254,0,0
12233,2024 10 23,05:25:51.929,0.496874,-0.441856,-0.507019,-0.548463,-0.955596,0.152837,-0.082522,-1.586914,1.342773,6.713867,0,0
12234,2024 10 23,05:25:51.937,0.49653,-0.44165,-0.507242,-0.548734,-0.950224,0.149419,-0.074709,-0.549316,0.549316,5.615234,0,0
12235,2024 10 23,05:25:51.945,0.496255,-0.441498,-0.507462,-0.548901,-0.955596,0.146977,-0.096683,-0.427246,1.159668,4.333496,0,0
12236,2024 10 23,05:25:51.954,0.496097,-0.441316,-0.507653,-0.549014,-0.936552,0.156743,-0.08594,1.159668,0.488281,3.295898,0,0
12237,2024 10 23,05:25:51.962,0.496097,-0.441316,-0.507653,-0.549014,-0.936552,0.156743,-0.08594,1.159668,0.488281,3.295898,0,0
12238,2024 10 23,05:25:51.970,0.495881,-0.441245,-0.507907,-0.549031,-0.949248,0.155766,-0.08887,0.427246,2.624512,2.868652,0,0
12239,2024 10 23,05:25:51.979,0.495672,-0.441209,-0.508156,-0.549019,-0.950713,0.150395,-0.084964,0.671387,2.380371,2.502441,0,0
12240,2024 10 23,05:25:51.987,0.495486,-0.441184,-0.508388,-0.548992,-0.949248,0.150395,-0.088382,0.366211,2.563477,2.197266,0,0
12241,2024 10 23,05:25:51.995,0.495275,-0.441189,-0.508602,-0.54898,-0.949248,0.159185,-0.083499,0.305176,2.563477,2.13623,0,0
12242,2024 10 23,05:25:52.004,0.49504,-0.441238,-0.508798,-0.548971,-0.961455,0.15772,-0.073244,-0.732422,3.173828,1.953125,0,0
12243,2024 10 23,05:25:52.012,0.49504,-0.441238,-0.508798,-0.548971,-0.961455,0.15772,-0.073244,-0.732422,3.173828,1.953125,0,0
12244,2024 10 23,05:25:52.020,0.494782,-0.441308,-0.508968,-0.54899,-0.963408,0.153813,-0.078127,-0.732422,2.502441,2.075195,0,0
12245,2024 10 23,05:25:52.029,0.494594,-0.441324,-0.509109,-0.549016,-0.957549,0.161626,-0.071291,-0.610352,1.89209,1.708984,0,0
12246,2024 10 23,05:25:52.037,0.494406,-0.441395,-0.509176,-0.549066,-0.94583,0.142094,-0.095218,-1.159668,1.647949,1.098633,0,0
12247,2024 10 23,05:25:52.045,0.494328,-0.441405,-0.509286,-0.549026,-0.935087,0.159673,-0.08594,0.732422,1.525879,0.488281,0,0
12248,2024 10 23,05:25:52.054,0.494193,-0.441522,-0.509416,-0.548933,-0.931669,0.15186,-0.101077,-0.549316,3.295898,-0.0,0,0
12249,2024 10 23,05:25:52.062,0.494193,-0.441522,-0.509416,-0.548933,-0.931669,0.15186,-0.101077,-0.549316,3.295898,-0.0,0,0
12250,2024 10 23,05:25:52.070,0.494017,-0.441715,-0.509584,-0.548779,-0.938994,0.150884,-0.106449,0.366211,4.394531,-0.244141,0,0
12251,2024 10 23,05:25:52.079,0.493821,-0.441947,-0.509861,-0.548512,-0.972686,0.155278,-0.054201,0.915527,6.164551,-0.366211,0,0
12252,2024 10 23,05:25:52.087,0.493629,-0.44217,-0.510117,-0.548268,-0.973662,0.155278,-0.069826,0.610352,4.211426,-0.305176,0,0
12253,2024 10 23,05:25:52.095,0.493542,-0.442285,-0.510267,-0.548113,-0.967803,0.156255,-0.060549,0.732422,2.868652,-0.366211,0,0
12254,2024 10 23,05:25:52.104,0.493481,-0.442351,-0.510391,-0.547999,-0.956572,0.15479,-0.072756,0.366211,1.342773,-0.12207,0,0
12255,2024 10 23,05:25:52.112,0.493481,-0.442351,-0.510391,-0.547999,-0.956572,0.15479,-0.072756,0.366211,1.342773,-0.12207,0,0
12256,2024 10 23,05:25:52.120,0.493464,-0.442352,-0.510444,-0.547964,-0.942412,0.150395,-0.084964,0.488281,0.671387,-0.0,0,0
12257,2024 10 23,05:25:52.129,0.493395,-0.442385,-0.510528,-0.547921,-0.944853,0.146489,-0.087893,-0.12207,1.464844,0.427246,0,0
12258,2024 10 23,05:25:52.137,0.493387,-0.442376,-0.510624,-0.547847,-0.960479,0.172369,-0.061037,1.159668,0.854492,-0.061035,0,0
12259,2024 10 23,05:25:52.145,0.493312,-0.442444,-0.510655,-0.547831,-0.983917,0.150395,-0.061525,-1.037598,0.976563,-0.0,0,0
12260,2024 10 23,05:25:52.154,0.493338,-0.442379,-0.510621,-0.547891,-0.95999,0.153813,-0.06885,0.12207,-2.01416,0.366211,0,0
12261,2024 10 23,05:25:52.162,0.493338,-0.442379,-0.510621,-0.547891,-0.95999,0.153813,-0.06885,0.12207,-2.01416,0.366211,0,0
12262,2024 10 23,05:25:52.170,0.49341,-0.442235,-0.510489,-0.548066,-0.926298,0.146489,-0.087405,-1.159668,-2.868652,0.671387,0,0
12263,2024 10 23,05:25:52.179,0.493394,-0.44215,-0.510421,-0.548212,-0.918485,0.144047,-0.101566,-0.427246,-0.976563,1.037598,0,0
12264,2024 10 23,05:25:52.187,0.493315,-0.442107,-0.510433,-0.548306,-0.918973,0.145512,-0.097171,-0.976563,0.610352,1.281738,0,0
12265,2024 10 23,05:25:52.195,0.493144,-0.442156,-0.510559,-0.548303,-0.943876,0.15186,-0.079104,-0.244141,2.502441,1.342773,0,0
12266,2024 10 23,05:25:52.204,0.492976,-0.442202,-0.510744,-0.548246,-0.940947,0.14893,-0.076174,0.244141,2.563477,1.220703,0,0
12267,2024 10 23,05:25:52.212,0.492878,-0.44221,-0.510918,-0.548165,-0.941923,0.149419,-0.077151,1.342773,1.831055,0.732422,0,0
12268,2024 10 23,05:25:52.220,0.492878,-0.44221,-0.510918,-0.548165,-0.941923,0.149419,-0.077151,1.342773,1.831055,0.732422,0,0
12269,2024 10 23,05:25:52.229,0.492817,-0.442199,-0.511136,-0.548025,-0.950713,0.153325,-0.069826,1.831055,2.319336,0.671387,0,0
12270,2024 10 23,05:25:52.237,0.492799,-0.442156,-0.511323,-0.547902,-0.938994,0.150884,-0.070315,1.953125,1.159668,0.427246,0,0
12271,2024 10 23,05:25:52.245,0.492831,-0.442105,-0.511487,-0.547761,-0.937529,0.168462,-0.078127,2.319336,1.220703,-0.244141,0,0
12272,2024 10 23,05:25:52.254,0.492828,-0.442157,-0.511576,-0.547638,-0.942412,0.15479,-0.08301,0.366211,1.77002,-0.915527,0,0
12273,2024 10 23,05:25:52.262,0.492858,-0.44225,-0.51166,-0.547459,-0.943876,0.147954,-0.095218,1.586914,1.831055,-1.647949,0,0
12274,2024 10 23,05:25:52.270,0.492858,-0.44225,-0.51166,-0.547459,-0.943876,0.147954,-0.095218,1.586914,1.831055,-1.647949,0,0
12275,2024 10 23,05:25:52.279,0.492951,-0.442324,-0.511818,-0.547167,-0.975616,0.157231,-0.06299,2.685547,2.624512,-2.01416,0,0
12276,2024 10 23,05:25:52.287,0.493116,-0.442354,-0.511927,-0.546892,-0.958037,0.153325,-0.073733,3.173828,0.549316,-2.441406,0,0
12277,2024 10 23,05:25:52.295,0.493388,-0.442319,-0.51201,-0.546596,-0.934111,0.150884,-0.08887,3.601074,0.366211,-3.051758,0,0
12278,2024 10 23,05:25:52.304,0.493639,-0.442358,-0.512164,-0.546194,-0.929716,0.155278,-0.098148,4.638672,2.13623,-3.662109,0,0
12279,2024 10 23,05:25:52.312,0.493858,-0.442488,-0.512396,-0.545673,-0.945341,0.158208,-0.092288,4.516602,4.272461,-4.211426,0,0
12280,2024 10 23,05:25:52.320,0.493858,-0.442488,-0.512396,-0.545673,-0.945341,0.158208,-0.092288,4.516602,4.272461,-4.211426,0,0
12281,2024 10 23,05:25:52.329,0.494069,-0.442689,-0.512724,-0.54501,-0.971221,0.170415,-0.069826,5.859375,5.371094,-4.882813,0,0
12282,2024 10 23,05:25:52.337,0.494241,-0.44295,-0.51297,-0.544411,-0.969268,0.156743,-0.083499,3.845215,4.943848,-5.004883,0,0
12283,2024 10 23,05:25:52.345,0.49443,-0.443203,-0.513186,-0.543829,-0.977081,0.166997,-0.054689,4.150391,4.760742,-5.065918,0,0
12284,2024 10 23,05:25:52.354,0.494589,-0.443508,-0.513366,-0.543266,-0.985382,0.162603,-0.057131,3.051758,4.455566,-5.371094,0,0
12285,2024 10 23,05:25:52.362,0.494825,-0.443784,-0.513431,-0.542763,-0.98001,0.163091,-0.048341,2.746582,2.868652,-5.92041,0,0
12286,2024 10 23,05:25:52.370,0.494825,-0.443784,-0.513431,-0.542763,-0.98001,0.163091,-0.048341,2.746582,2.868652,-5.92041,0,0
12287,2024 10 23,05:25:52.379,0.495076,-0.444081,-0.513394,-0.542327,-0.960479,0.144536,-0.078127,1.525879,2.197266,-6.225586,0,0
12288,2024 10 23,05:25:52.387,0.495397,-0.444331,-0.513374,-0.541848,-0.94583,0.159673,-0.066408,3.173828,2.075195,-6.469727,0,0
12289,2024 10 23,05:25:52.395,0.495639,-0.444685,-0.513315,-0.541391,-0.932157,0.146001,-0.101077,0.976563,3.173828,-6.713867,0,0
12290,2024 10 23,05:25:52.404,0.495849,-0.445094,-0.513327,-0.540852,-0.929716,0.138188,-0.087405,2.441406,4.882813,-6.958008,0,0
12291,2024 10 23,05:25:52.412,0.496009,-0.445599,-0.513476,-0.540147,-0.947295,0.139164,-0.069826,2.685547,7.141113,-7.507324,0,0
12292,2024 10 23,05:25:52.420,0.496009,-0.445599,-0.513476,-0.540147,-0.947295,0.139164,-0.069826,2.685547,7.141113,-7.507324,0,0
12293,2024 10 23,05:25:52.429,0.496202,-0.446135,-0.513638,-0.539373,-0.953154,0.1377,-0.06592,3.723145,7.019043,-8.178711,0,0
12294,2024 10 23,05:25:52.437,0.49648,-0.446634,-0.513806,-0.538543,-0.963408,0.140629,-0.052248,4.394531,6.469727,-8.728027,0,0
12295,2024 10 23,05:25:52.445,0.496825,-0.447089,-0.513898,-0.53776,-0.965361,0.149907,-0.056642,4.211426,4.882813,-9.033203,0,0
12296,2024 10 23,05:25:52.454,0.497218,-0.447519,-0.513892,-0.537043,-0.95999,0.147465,-0.044923,3.173828,3.662109,-9.277344,0,0
12297,2024 10 23,05:25:52.462,0.497562,-0.447997,-0.513768,-0.536445,-0.944853,0.132328,-0.073733,1.464844,3.112793,-9.155273,0,0
12298,2024 10 23,05:25:52.470,0.497562,-0.447997,-0.513768,-0.536445,-0.944853,0.132328,-0.073733,1.464844,3.112793,-9.155273,0,0
12299,2024 10 23,05:25:52.479,0.497935,-0.448444,-0.51365,-0.535839,-0.941435,0.136723,-0.054201,2.13623,3.234863,-9.155273,0,0
12300,2024 10 23,05:25:52.487,0.498249,-0.448945,-0.513502,-0.535268,-0.940947,0.126957,-0.075198,0.671387,3.356934,-9.033203,0,0
12301,2024 10 23,05:25:52.495,0.498575,-0.449418,-0.513379,-0.534685,-0.977569,0.139653,-0.042482,1.831055,3.295898,-8.850098,0,0
12302,2024 10 23,05:25:52.504,0.498924,-0.449873,-0.513169,-0.534178,-0.987335,0.136723,-0.031739,0.244141,1.464844,-9.033203,0,0
12303,2024 10 23,05:25:52.512,0.499375,-0.450241,-0.512873,-0.533731,-1.001007,0.12891,-0.029298,1.586914,-0.427246,-9.277344,0,0
12304,2024 10 23,05:25:52.520,0.499375,-0.450241,-0.512873,-0.533731,-1.001007,0.12891,-0.029298,1.586914,-0.427246,-9.277344,0,0
12305,2024 10 23,05:25:52.529,0.500044,-0.450404,-0.512482,-0.533342,-0.980987,0.136235,-0.034669,2.01416,-4.394531,-9.399414,0,0
12306,2024 10 23,05:25:52.537,0.500748,-0.450532,-0.511926,-0.533108,-0.93997,0.133305,-0.079592,0.488281,-5.432129,-9.521484,0,0
12307,2024 10 23,05:25:52.545,0.501363,-0.450765,-0.511401,-0.532836,-0.919462,0.131352,-0.096683,0.0,-2.746582,-9.70459,0,0
12308,2024 10 23,05:25:52.554,0.501848,-0.451183,-0.511,-0.53241,-0.967315,0.13184,-0.062502,0.12207,0.427246,-10.253906,0,0
12309,2024 10 23,05:25:52.562,0.502327,-0.451655,-0.510612,-0.53193,-0.988311,0.127445,-0.043458,0.061035,-0.0,-10.742188,0,0
12310,2024 10 23,05:25:52.570,0.502327,-0.451655,-0.510612,-0.53193,-0.988311,0.127445,-0.043458,0.061035,-0.0,-10.742188,0,0
12311,2024 10 23,05:25:52.579,0.502907,-0.45207,-0.510157,-0.531467,-0.993194,0.128422,-0.037599,0.854492,-1.586914,-11.291504,0,0
12312,2024 10 23,05:25:52.587,0.503556,-0.452421,-0.509646,-0.531044,-1.000031,0.125492,-0.036134,0.12207,-2.990723,-11.169434,0,0
12313,2024 10 23,05:25:52.595,0.504263,-0.452715,-0.508967,-0.530773,-0.975127,0.130863,-0.059572,-0.793457,-5.554199,-11.291504,0,0
12314,2024 10 23,05:25:52.604,0.504973,-0.453002,-0.508221,-0.530568,-0.977569,0.132328,-0.050295,-1.281738,-5.310059,-11.413574,0,0
12315,2024 10 23,05:25:52.612,0.505589,-0.453377,-0.507465,-0.530385,-1.00296,0.124027,-0.078616,-3.051758,-4.760742,-10.864258,0,0
12316,2024 10 23,05:25:52.620,0.506314,-0.453697,-0.506705,-0.530146,-1.044954,0.150395,0.004395,-0.854492,-5.981445,-11.962891,0,0
12317,2024 10 23,05:25:52.629,0.506314,-0.453697,-0.506705,-0.530146,-1.044954,0.150395,0.004395,-0.854492,-5.981445,-11.962891,0,0
12318,2024 10 23,05:25:52.637,0.507164,-0.453992,-0.505606,-0.530129,-1.006867,0.140141,-0.061525,-4.638672,-10.986328,-13.183594,0,0
12319,2024 10 23,05:25:52.645,0.508158,-0.454245,-0.504314,-0.530193,-0.972686,0.11182,-0.087405,-4.02832,-11.535645,-14.221191,0,0
12320,2024 10 23,05:25:52.654,0.509215,-0.454543,-0.503145,-0.530034,-0.980499,0.137211,-0.069826,-1.831055,-9.765625,-16.174316,0,0
12321,2024 10 23,05:25:52.662,0.510283,-0.455089,-0.501883,-0.529735,-0.966826,0.113285,-0.034669,-3.90625,-7.324219,-19.104004,0,0
12322,2024 10 23,05:25:52.670,0.511166,-0.456026,-0.500664,-0.52923,-1.013214,0.13477,-0.118656,-3.601074,-2.13623,-21.42334,0,0
12323,2024 10 23,05:25:52.679,0.511166,-0.456026,-0.500664,-0.52923,-1.013214,0.13477,-0.118656,-3.601074,-2.13623,-21.42334,0,0
12324,2024 10 23,05:25:52.687,0.512202,-0.457283,-0.499491,-0.528252,-0.984893,0.11475,-0.02295,-5.493164,1.098633,-26.245117,0,0
12325,2024 10 23,05:25:52.695,0.513154,-0.45893,-0.498447,-0.526884,-1.084018,0.124027,-0.109867,-2.319336,5.554199,-31.188965,0,0
12326,2024 10 23,05:25:52.704,0.514727,-0.460805,-0.496909,-0.525164,-0.940947,0.158208,-0.031739,-2.929688,3.540039,-40.405273,0,0
12327,2024 10 23,05:25:52.712,0.515777,-0.463643,-0.495406,-0.523051,-1.030793,0.073244,-0.205084,-8.300781,15.563965,-44.98291,0,0
12328,2024 10 23,05:25:52.720,0.517492,-0.466456,-0.494011,-0.520168,-0.992218,0.140141,-0.041993,-0.305176,13.244629,-52.734375,0,0
12329,2024 10 23,05:25:52.729,0.517492,-0.466456,-0.494011,-0.520168,-0.992218,0.140141,-0.041993,-0.305176,13.244629,-52.734375,0,0
12330,2024 10 23,05:25:52.737,0.519028,-0.470002,-0.492364,-0.516996,-1.110385,0.13184,-0.172857,-4.333496,22.949219,-59.692383,0,0
12331,2024 10 23,05:25:52.745,0.52113,-0.473817,-0.49035,-0.513301,-1.082064,0.1377,-0.036134,-2.746582,17.028809,-69.946289,0,0
12332,2024 10 23,05:25:52.754,0.52338,-0.478067,-0.488077,-0.509221,-1.155797,0.131352,-0.104984,-4.02832,21.54541,-76.477051,0,0
12333,2024 10 23,05:25:52.762,0.526255,-0.482428,-0.485372,-0.504712,-1.209998,0.122074,-0.013672,-0.061035,16.784668,-86.242676,0,0
12334,2024 10 23,05:25:52.770,0.529719,-0.487195,-0.481931,-0.499781,-1.245643,0.10889,-0.014649,-2.502441,14.587402,-99.243164,0,0
12335,2024 10 23,05:25:52.779,0.529719,-0.487195,-0.481931,-0.499781,-1.245643,0.10889,-0.014649,-2.502441,14.587402,-99.243164,0,0
12336,2024 10 23,05:25:52.787,0.533887,-0.492189,-0.477806,-0.494386,-1.232948,0.055666,-0.054201,0.244141,7.507324,-111.51123,0,0
12337,2024 10 23,05:25:52.795,0.538864,-0.497459,-0.472935,-0.488358,-1.24955,0.051759,0.028809,1.281738,8.544922,-124.87793,0,0
12338,2024 10 23,05:25:52.804,0.544396,-0.503106,-0.467881,-0.481254,-1.357952,0.143559,-0.0,8.117676,9.338379,-138.85498,0,0
12339,2024 10 23,05:25:52.812,0.550745,-0.508918,-0.461912,-0.473625,-1.395062,0.195318,0.041993,7.202148,2.990723,-153.442383,0,0
12340,2024 10 23,05:25:52.820,0.557477,-0.515424,-0.454799,-0.465527,-1.453658,0.1919,-0.041017,1.281738,1.464844,-169.677734,0,0
12341,2024 10 23,05:25:52.829,0.557477,-0.515424,-0.454799,-0.465527,-1.453658,0.1919,-0.041017,1.281738,1.464844,-169.677734,0,0
12342,2024 10 23,05:25:52.837,0.564871,-0.52229,-0.446563,-0.456854,-1.556688,0.262215,-0.196295,0.976563,-5.79834,-185.180664,0,0
12343,2024 10 23,05:25:52.845,0.573411,-0.529253,-0.436732,-0.447611,-1.485397,0.253914,0.070315,-0.305176,-16.479492,-207.641602,0,0
12344,2024 10 23,05:25:52.854,0.582026,-0.537577,-0.42591,-0.436872,-1.603565,0.195318,-0.164068,-2.685547,-4.882813,-230.957031,0,0
12345,2024 10 23,05:25:52.862,0.591952,-0.545852,-0.413849,-0.424696,-1.62505,0.30665,0.003418,5.371094,-14.648438,-255.065918,0,0
12346,2024 10 23,05:25:52.870,0.601899,-0.55519,-0.400082,-0.411601,-1.773003,0.17774,-0.124027,-10.681152,-12.695313,-276.794434,0,0
12347,2024 10 23,05:25:52.879,0.601899,-0.55519,-0.400082,-0.411601,-1.773003,0.17774,-0.124027,-10.681152,-12.695313,-276.794434,0,0
12348,2024 10 23,05:25:52.887,0.612461,-0.564858,-0.384702,-0.39728,-1.585498,0.171392,0.049318,-2.075195,-20.141602,-302.91748,0,0
12349,2024 10 23,05:25:52.895,0.622479,-0.575735,-0.36828,-0.381338,-1.780816,-0.033692,-0.103519,-24.658203,-0.305176,-319.030762,0,0
12350,2024 10 23,05:25:52.904,0.63174,-0.587556,-0.350814,-0.36416,-2.042054,-0.185064,-0.297372,-27.893066,0.427246,-336.05957,0,0
12351,2024 10 23,05:25:52.912,0.641426,-0.5985,-0.332433,-0.346206,-1.952696,0.117191,-0.081545,-14.892578,-7.324219,-343.933105,0,0
12352,2024 10 23,05:25:52.920,0.650002,-0.608948,-0.314708,-0.328084,-1.787164,0.145512,-0.241707,-21.118164,5.79834,-335.144043,0,0
12353,2024 10 23,05:25:52.929,0.650002,-0.608948,-0.314708,-0.328084,-1.787164,0.145512,-0.241707,-21.118164,5.79834,-335.144043,0,0
12354,2024 10 23,05:25:52.937,0.658709,-0.619039,-0.295597,-0.309056,-1.548387,0.229011,0.15186,-20.080566,-5.981445,-353.942871,0,0
12355,2024 10 23,05:25:52.945,0.665959,-0.630316,-0.275974,-0.288163,-1.339885,0.063478,0.041993,-30.029297,24.230957,-371.520996,0,0
12356,2024 10 23,05:25:52.954,0.673267,-0.640932,-0.257268,-0.264065,-0.981475,-0.012696,0.188971,-5.371094,48.583984,-384.765625,0,0
12357,2024 10 23,05:25:52.962,0.680411,-0.650327,-0.240441,-0.237283,-0.780786,-0.133305,0.466811,11.779785,84.04541,-379.516602,0,0
12358,2024 10 23,05:25:52.970,0.686874,-0.658037,-0.227455,-0.208463,-1.084994,0.025391,0.132328,38.818359,124.572754,-358.276367,0,0
12359,2024 10 23,05:25:52.979,0.686874,-0.658037,-0.227455,-0.208463,-1.084994,0.025391,0.132328,38.818359,124.572754,-358.276367,0,0
12360,2024 10 23,05:25:52.987,0.694264,-0.66227,-0.216771,-0.18002,-0.591815,0.869655,-0.112308,83.862305,111.450195,-328.430176,0,0
12361,2024 10 23,05:25:52.995,0.702624,-0.66046,-0.210498,-0.160628,-1.41557,1.122593,0.46144,104.187012,72.20459,-174.438477,0,0
12362,2024 10 23,05:25:53.004,0.707456,-0.65658,-0.213765,-0.15071,-1.136753,1.043001,-0.742698,110.229492,66.040039,-33.02002,0,0
12363,2024 10 23,05:25:53.012,0.714782,-0.646742,-0.21847,-0.151928,-0.732444,1.443892,0.500015,133.300781,-15.075684,74.890137,0,0
12364,2024 10 23,05:25:53.020,0.717584,-0.638649,-0.227899,-0.158942,-0.489273,0.920927,-0.339854,78.00293,6.713867,152.587891,0,0
12365,2024 10 23,05:25:53.029,0.72042,-0.628665,-0.239393,-0.16872,-0.22071,1.004913,0.120609,101.5625,-1.831055,187.744141,0,0
12366,2024 10 23,05:25:53.037,0.72042,-0.628665,-0.239393,-0.16872,-0.22071,1.004913,0.120609,101.5625,-1.831055,187.744141,0,0
12367,2024 10 23,05:25:53.045,0.721261,-0.619549,-0.253455,-0.178052,-0.183599,0.916044,0.038575,75.134277,40.039063,199.707031,0,0
12368,2024 10 23,05:25:53.054,0.720087,-0.611872,-0.269081,-0.186231,-0.340831,0.908719,-0.082522,60.36377,63.476563,198.730469,0,0
12369,2024 10 23,05:25:53.062,0.717245,-0.605464,-0.285276,-0.193882,-0.577654,0.958525,-0.186041,34.484863,78.186035,197.937012,0,0
12370,2024 10 23,05:25:53.070,0.712595,-0.600492,-0.30094,-0.202614,-0.765648,0.953642,-0.298349,7.080078,68.664551,202.819824,0,0
12371,2024 10 23,05:25:53.079,0.706552,-0.596422,-0.315203,-0.213804,-0.834986,0.852565,-0.305673,-23.254395,46.630859,214.294434,0,0
12372,2024 10 23,05:25:53.087,0.706552,-0.596422,-0.315203,-0.213804,-0.834986,0.852565,-0.305673,-23.254395,46.630859,214.294434,0,0
12373,2024 10 23,05:25:53.095,0.699239,-0.592749,-0.328681,-0.227337,-0.838893,0.680197,-0.237312,-41.19873,31.677246,231.262207,0,0
12374,2024 10 23,05:25:53.104,0.691015,-0.588659,-0.342212,-0.24263,-0.826197,0.512711,-0.176763,-47.546387,24.169922,250.488281,0,0
12375,2024 10 23,05:25:53.112,0.682217,-0.583598,-0.356441,-0.258734,-0.852077,0.354991,-0.140629,-41.503906,25.878906,267.028809,0,0
12376,2024 10 23,05:25:53.120,0.67317,-0.577109,-0.371781,-0.274894,-0.935575,0.26661,-0.138676,-27.099609,31.25,281.677246,0,0
12377,2024 10 23,05:25:53.129,0.664108,-0.568918,-0.388128,-0.290946,-1.069369,0.235847,-0.166997,-10.070801,33.26416,294.433594,0,0
12378,2024 10 23,05:25:53.137,0.664108,-0.568918,-0.388128,-0.290946,-1.069369,0.235847,-0.166997,-10.070801,33.26416,294.433594,0,0
12379,2024 10 23,05:25:53.145,0.655144,-0.558946,-0.405088,-0.307032,-1.182165,0.248054,-0.222175,5.310059,30.578613,306.213379,0,0
12380,2024 10 23,05:25:53.154,0.646189,-0.547238,-0.42239,-0.323354,-1.302774,0.259285,-0.268563,18.127441,24.780273,317.687988,0,0
12381,2024 10 23,05:25:53.162,0.637254,-0.53407,-0.439322,-0.340106,-1.36137,0.252449,-0.290048,22.949219,12.695313,324.09668,0,0
12382,2024 10 23,05:25:53.170,0.628304,-0.519899,-0.455461,-0.357063,-1.354534,0.205084,-0.288095,26.855469,2.990723,325.012207,0,0
12383,2024 10 23,05:25:53.179,0.619213,-0.505025,-0.471084,-0.373638,-1.342326,0.182623,-0.22364,30.334473,2.258301,323.791504,0,0
12384,2024 10 23,05:25:53.187,0.619213,-0.505025,-0.471084,-0.373638,-1.342326,0.182623,-0.22364,30.334473,2.258301,323.791504,0,0
12385,2024 10 23,05:25:53.195,0.609638,-0.489714,-0.486642,-0.389489,-1.412641,0.203619,-0.182134,34.973145,6.591797,323.486328,0,0
12386,2024 10 23,05:25:53.204,0.599279,-0.474086,-0.502218,-0.404826,-1.554247,0.241218,-0.169439,34.057617,12.939453,326.049805,0,0
12387,2024 10 23,05:25:53.212,0.588056,-0.458327,-0.51733,-0.420114,-1.68511,0.274911,-0.124027,26.977539,12.084961,327.697754,0,0
12388,2024 10 23,05:25:53.220,0.575908,-0.442693,-0.531438,-0.435805,-1.748589,0.268563,-0.045412,12.023926,9.216309,329.223633,0,0
12389,2024 10 23,05:25:53.229,0.562539,-0.427535,-0.544519,-0.451954,-1.783257,0.187017,0.007813,-5.249023,10.681152,330.871582,0,0
12390,2024 10 23,05:25:53.237,0.562539,-0.427535,-0.544519,-0.451954,-1.783257,0.187017,0.007813,-5.249023,10.681152,330.871582,0,0
12391,2024 10 23,05:25:53.245,0.547884,-0.412993,-0.556711,-0.46833,-1.792047,0.024415,0.074709,-21.118164,15.625,331.359863,0,0
12392,2024 10 23,05:25:53.254,0.532026,-0.399461,-0.568114,-0.484382,-1.803278,-0.182134,0.095706,-33.935547,26.855469,325.134277,0,0
12393,2024 10 23,05:25:53.262,0.515292,-0.387265,-0.578846,-0.499437,-1.92291,-0.353526,0.089846,-43.09082,40.283203,312.37793,0,0
12394,2024 10 23,05:25:53.270,0.498187,-0.376498,-0.588527,-0.513513,-2.025452,-0.594745,0.029786,-52.55127,47.180176,295.227051,0,0
12395,2024 10 23,05:25:53.279,0.481261,-0.36694,-0.59704,-0.526579,-2.068423,-0.849147,-0.028809,-57.434082,51.330566,276.977539,0,0
12396,2024 10 23,05:25:53.287,0.481261,-0.36694,-0.59704,-0.526579,-2.068423,-0.849147,-0.028809,-57.434082,51.330566,276.977539,0,0
12397,2024 10 23,05:25:53.295,0.464751,-0.358572,-0.604418,-0.538621,-2.160711,-1.113804,-0.048341,-62.5,52.062988,257.629395,0,0
12398,2024 10 23,05:25:53.304,0.449206,-0.350782,-0.610385,-0.550086,-2.174871,-1.367718,-0.017579,-65.246582,41.19873,241.760254,0,0
12399,2024 10 23,05:25:53.312,0.435219,-0.342875,-0.614938,-0.561135,-1.989318,-1.656301,0.11475,-63.842773,22.155762,225.952148,0,0
12400,2024 10 23,05:25:53.320,0.422788,-0.335455,-0.618392,-0.571237,-1.82281,-1.991272,0.144047,-59.387207,16.601563,202.636719,0,0
12401,2024 10 23,05:25:53.329,0.412273,-0.329266,-0.62121,-0.579408,-1.715873,-2.205145,0.149419,-47.119141,14.465332,168.09082,0,0
12402,2024 10 23,05:25:53.337,0.412273,-0.329266,-0.62121,-0.579408,-1.715873,-2.205145,0.149419,-47.119141,14.465332,168.09082,0,0
12403,2024 10 23,05:25:53.345,0.404078,-0.324881,-0.623042,-0.585655,-1.57036,-2.340404,0.080081,-41.564941,14.404297,126.464844,0,0
12404,2024 10 23,05:25:53.354,0.397861,-0.32273,-0.623982,-0.590083,-1.552293,-2.386792,0.027833,-37.353516,18.127441,87.219238,0,0
12405,2024 10 23,05:25:53.362,0.39376,-0.322129,-0.624121,-0.593008,-1.529832,-2.423414,0.078616,-31.616211,12.756348,53.527832,0,0
12406,2024 10 23,05:25:53.370,0.392095,-0.322279,-0.623618,-0.594557,-1.418989,-2.337962,0.146001,-17.63916,1.220703,23.498535,0,0
12407,2024 10 23,05:25:53.379,0.392672,-0.323232,-0.622943,-0.594367,-1.349651,-2.106998,0.132328,-1.89209,-1.525879,-6.896973,0,0
12408,2024 10 23,05:25:53.387,0.39532,-0.324837,-0.621964,-0.59276,-1.287637,-1.734916,0.160161,-1.89209,-1.525879,-6.896973,0,0
12409,2024 10 23,05:25:53.395,0.39532,-0.324837,-0.621964,-0.59276,-1.287637,-1.734916,0.160161,9.521484,-9.155273,-33.508301,0,0
12410,2024 10 23,05:25:53.404,0.399529,-0.326877,-0.620473,-0.590374,-1.234413,-1.155309,0.15186,13.977051,-16.418457,-52.67334,0,0
12411,2024 10 23,05:25:53.412,0.410053,-0.339574,-0.620375,-0.575917,0.396497,-0.297372,-2.480056,68.969727,57.250977,-276.733398,0,0
12412,2024 10 23,05:25:53.420,0.440624,-0.340848,-0.613253,-0.559995,-0.69631,2.192938,2.363842,201.293945,-180.603027,-322.814941,1,0
12413,2024 10 23,05:25:53.429,0.456718,-0.355613,-0.595554,-0.557013,-0.995148,0.370617,0.656758,-219.360352,-74.829102,-294.73877,0,0
12414,2024 10 23,05:25:53.437,0.468909,-0.374874,-0.575551,-0.555279,-1.909238,-0.241707,-1.316446,-131.835938,-77.941895,-300.415039,0,0
12415,2024 10 23,05:25:53.445,0.468909,-0.374874,-0.575551,-0.555279,-1.909238,-0.241707,-1.316446,-131.835938,-77.941895,-300.415039,0,0
12416,2024 10 23,05:25:53.454,0.485732,-0.38611,-0.559574,-0.549419,-1.876034,0.311533,-0.153325,-44.433594,-88.439941,-267.456055,0,0
12417,2024 10 23,05:25:53.462,0.493333,-0.39854,-0.546586,-0.546838,-2.005432,-0.868191,-0.74514,-102.966309,-10.009766,-172.485352,0,0
12418,2024 10 23,05:25:53.470,0.49798,-0.405518,-0.54258,-0.541459,-1.658742,-0.344737,-0.357433,31.799316,24.963379,-99.853516,0,0
12419,2024 10 23,05:25:53.479,0.503045,-0.407344,-0.543418,-0.534522,-1.340373,0.556169,0.563982,50.842285,13.122559,-70.678711,0,0
12420,2024 10 23,05:25:53.487,0.504688,-0.411134,-0.541014,-0.532506,-0.973662,0.275887,-0.075198,-36.437988,0.793457,-56.091309,0,0
12421,2024 10 23,05:25:53.495,0.504688,-0.411134,-0.541014,-0.532506,-0.973662,0.275887,-0.075198,-36.437988,0.793457,-56.091309,0,0
12422,2024 10 23,05:25:53.504,0.506278,-0.414919,-0.536207,-0.532923,-0.769066,-0.175787,-0.179693,-44.311523,-18.066406,-51.452637,0,0
12423,2024 10 23,05:25:53.512,0.508057,-0.417415,-0.533856,-0.531639,-0.902371,-0.193854,-0.233406,0.976563,3.479004,-40.100098,0,0
12424,2024 10 23,05:25:53.520,0.51022,-0.417939,-0.534082,-0.528923,-1.075716,0.162603,0.177251,28.442383,3.295898,-27.038574,0,0
12425,2024 10 23,05:25:53.529,0.51177,-0.418325,-0.53381,-0.527392,-1.125523,0.234382,-0.080081,5.79834,-6.958008,-22.155762,0,0
12426,2024 10 23,05:25:53.537,0.514327,-0.418134,-0.531572,-0.527316,-0.876003,0.17774,-0.193854,1.403809,-34.301758,-26.977539,0,0
12427,2024 10 23,05:25:53.545,0.514327,-0.418134,-0.531572,-0.527316,-0.876003,0.17774,-0.193854,1.403809,-34.301758,-26.977539,0,0
12428,2024 10 23,05:25:53.554,0.516102,-0.418736,-0.530159,-0.526527,-0.874538,0.167486,-0.121097,0.610352,0.976563,-25.45166,0,0
12429,2024 10 23,05:25:53.562,0.516653,-0.420534,-0.530003,-0.524708,-1.088412,0.180181,-0.091311,2.685547,15.258789,-26.672363,0,0
12430,2024 10 23,05:25:53.570,0.517496,-0.422098,-0.529462,-0.523164,-1.09183,0.132328,-0.055177,-0.244141,6.958008,-26.184082,0,0
12431,2024 10 23,05:25:53.579,0.518742,-0.42323,-0.528708,-0.521777,-1.013214,0.124027,-0.06885,5.493164,-0.305176,-26.428223,0,0
12432,2024 10 23,05:25:53.587,0.520232,-0.424,-0.528052,-0.52033,-0.972198,0.135258,-0.072756,6.713867,-1.159668,-24.902344,0,0
12433,2024 10 23,05:25:53.595,0.520232,-0.424,-0.528052,-0.52033,-0.972198,0.135258,-0.072756,6.713867,-1.159668,-24.902344,0,0
12434,2024 10 23,05:25:53.604,0.521516,-0.424758,-0.52752,-0.518964,-0.974639,0.115238,-0.101566,7.751465,0.915527,-22.460938,0,0
12435,2024 10 23,05:25:53.612,0.522745,-0.425317,-0.527297,-0.517495,-1.000031,0.14893,-0.061037,10.437012,1.831055,-20.141602,0,0
12436,2024 10 23,05:25:53.620,0.523875,-0.425833,-0.526975,-0.516254,-0.984893,0.146489,-0.081057,6.896973,-0.12207,-18.737793,0,0
12437,2024 10 23,05:25:53.629,0.524887,-0.426356,-0.526641,-0.515135,-0.976104,0.146977,-0.057619,6.835938,1.098633,-17.63916,0,0
12438,2024 10 23,05:25:53.637,0.525767,-0.426965,-0.526497,-0.513879,-1.015656,0.160649,-0.024415,7.324219,4.150391,-17.456055,0,0
12439,2024 10 23,05:25:53.645,0.525767,-0.426965,-0.526497,-0.513879,-1.015656,0.160649,-0.024415,7.324219,4.150391,-17.456055,0,0
12440,2024 10 23,05:25:53.654,0.526607,-0.427567,-0.526171,-0.512851,-1.032258,0.142582,-0.003418,3.78418,-0.427246,-16.296387,0,0
12441,2024 10 23,05:25:53.662,0.527702,-0.427842,-0.525491,-0.512192,-1.026399,0.15772,0.00586,3.112793,-8.056641,-15.319824,0,0
12442,2024 10 23,05:25:53.670,0.528896,-0.428034,-0.524483,-0.511834,-0.992706,0.150884,-0.029298,-0.915527,-12.145996,-15.319824,0,0
12443,2024 10 23,05:25:53.679,0.530018,-0.428167,-0.523165,-0.51191,-0.933622,0.112308,-0.073733,-4.211426,-15.136719,-12.634277,0,0
12444,2024 10 23,05:25:53.687,0.530936,-0.428145,-0.521846,-0.512323,-0.95706,0.117191,-0.11182,-5.371094,-15.014648,-8.605957,0,0
12445,2024 10 23,05:25:53.695,0.530936,-0.428145,-0.521846,-0.512323,-0.95706,0.117191,-0.11182,-5.371094,-15.014648,-8.605957,0,0
12446,2024 10 23,05:25:53.704,0.531945,-0.428394,-0.5209,-0.512031,-0.910184,0.145512,-0.012696,-2.197266,-7.873535,-15.991211,0,0
12447,2024 10 23,05:25:53.712,0.532455,-0.429204,-0.519918,-0.511821,-0.933622,0.126469,-0.146489,-4.516602,-1.403809,-14.526367,0,0
12448,2024 10 23,05:25:53.720,0.533127,-0.430027,-0.519147,-0.511213,-0.972198,0.124027,-0.099124,-1.586914,-0.183105,-16.906738,0,0
12449,2024 10 23,05:25:53.729,0.533983,-0.430918,-0.518397,-0.51033,-0.93704,0.098148,-0.017579,-1.647949,-0.244141,-20.507813,0,0
12450,2024 10 23,05:25:53.737,0.534748,-0.43208,-0.517675,-0.509278,-1.060579,0.143559,-0.113773,-0.061035,3.90625,-22.216797,0,0
12451,2024 10 23,05:25:53.745,0.534748,-0.43208,-0.517675,-0.509278,-1.060579,0.143559,-0.113773,-0.061035,3.90625,-22.216797,0,0
12452,2024 10 23,05:25:53.754,0.536079,-0.433065,-0.51661,-0.508122,-0.967803,0.122074,-0.001953,0.305176,-5.92041,-27.526855,0,0
12453,2024 10 23,05:25:53.762,0.537433,-0.434153,-0.515191,-0.507203,-0.955107,0.078127,-0.066408,-3.540039,-4.699707,-27.22168,0,0
12454,2024 10 23,05:25:53.770,0.538845,-0.435272,-0.514015,-0.505938,-1.029817,0.081545,-0.075686,1.586914,-3.723145,-28.991699,0,0
12455,2024 10 23,05:25:53.779,0.540723,-0.436066,-0.51257,-0.504715,-0.956084,0.081545,-0.039552,3.234863,-11.962891,-30.883789,0,0
12456,2024 10 23,05:25:53.787,0.542656,-0.43689,-0.510987,-0.503531,-0.963897,0.089358,-0.097659,3.356934,-8.850098,-31.799316,0,0
12457,2024 10 23,05:25:53.795,0.544655,-0.437686,-0.509341,-0.502348,-1.014679,0.079592,-0.102542,3.662109,-12.634277,-32.714844,0,0
12458,2024 10 23,05:25:53.804,0.544655,-0.437686,-0.509341,-0.502348,-1.014679,0.079592,-0.102542,3.662109,-12.634277,-32.714844,0,0
12459,2024 10 23,05:25:53.812,0.547071,-0.438219,-0.507444,-0.501177,-0.91995,0.055666,-0.046876,2.075195,-18.127441,-33.813477,0,0
12460,2024 10 23,05:25:53.820,0.549205,-0.439004,-0.50561,-0.500008,-0.965361,0.070803,-0.193365,3.78418,-12.390137,-33.508301,0,0
12461,2024 10 23,05:25:53.829,0.551575,-0.439553,-0.503685,-0.498858,-0.924345,0.055666,-0.093265,4.02832,-17.63916,-34.240723,0,0
12462,2024 10 23,05:25:53.837,0.553717,-0.440438,-0.50196,-0.497441,-0.955107,0.082522,-0.141606,2.685547,-8.728027,-35.15625,0,0
12463,2024 10 23,05:25:53.845,0.555724,-0.441528,-0.500257,-0.49595,-1.02591,0.068361,-0.114261,3.417969,-8.605957,-36.92627,0,0
12464,2024 10 23,05:25:53.854,0.555724,-0.441528,-0.500257,-0.49595,-1.02591,0.068361,-0.114261,3.417969,-8.605957,-36.92627,0,0
12465,2024 10 23,05:25:53.862,0.558059,-0.442533,-0.498423,-0.494276,-1.015168,0.076174,-0.066897,3.601074,-11.59668,-40.649414,0,0
12466,2024 10 23,05:25:53.870,0.560432,-0.443949,-0.496385,-0.492368,-1.026399,0.058596,-0.0918,2.258301,-8.239746,-45.532227,0,0
12467,2024 10 23,05:25:53.879,0.562998,-0.445563,-0.49427,-0.490107,-1.078646,0.067873,-0.117191,4.150391,-7.8125,-50.598145,0,0
12468,2024 10 23,05:25:53.887,0.566,-0.447317,-0.49189,-0.487438,-1.089389,0.096194,-0.095706,5.79834,-9.155273,-58.837891,0,0
12469,2024 10 23,05:25:53.895,0.569298,-0.449575,-0.489119,-0.484298,-1.115757,0.111332,-0.116703,3.662109,-6.896973,-69.030762,0,0
12470,2024 10 23,05:25:53.904,0.569298,-0.449575,-0.489119,-0.484298,-1.115757,0.111332,-0.116703,3.662109,-6.896973,-69.030762,0,0
12471,2024 10 23,05:25:53.912,0.572771,-0.452528,-0.485982,-0.480597,-1.167028,0.114261,-0.172369,1.89209,-3.662109,-79.956055,0,0
12472,2024 10 23,05:25:53.920,0.576634,-0.456113,-0.482454,-0.476123,-1.201697,0.123051,-0.139164,0.976563,-0.976563,-93.505859,0,0
12473,2024 10 23,05:25:53.929,0.580765,-0.460668,-0.478424,-0.470752,-1.273476,0.148442,-0.158696,-1.220703,5.004883,-109.25293,0,0
12474,2024 10 23,05:25:53.937,0.585299,-0.466055,-0.47363,-0.464643,-1.353069,0.181646,-0.144047,-5.432129,4.455566,-125.549316,0,0
12475,2024 10 23,05:25:53.945,0.590333,-0.472291,-0.467783,-0.45785,-1.353069,0.154302,-0.106449,-11.779785,1.77002,-144.40918,0,0
12476,2024 10 23,05:25:53.954,0.590333,-0.472291,-0.467783,-0.45785,-1.353069,0.154302,-0.106449,-11.779785,1.77002,-144.40918,0,0
12477,2024 10 23,05:25:53.962,0.596083,-0.479309,-0.460819,-0.450103,-1.356487,0.164556,-0.126957,-10.803223,0.793457,-164.794922,0,0
12478,2024 10 23,05:25:53.970,0.602554,-0.487054,-0.452993,-0.441027,-1.437544,0.17481,-0.098148,-8.850098,2.746582,-186.767578,0,0
12479,2024 10 23,05:25:53.979,0.609731,-0.495359,-0.444331,-0.430601,-1.471236,0.150395,-0.169927,-6.103516,1.708984,-207.763672,0,0
12480,2024 10 23,05:25:53.987,0.618309,-0.503996,-0.434306,-0.418401,-1.557176,0.208991,-0.112308,2.868652,-1.098633,-238.647461,0,0
12481,2024 10 23,05:25:53.995,0.627942,-0.513289,-0.42315,-0.403939,-1.662648,0.239265,-0.106937,10.009766,0.610352,-270.751953,0,0
12482,2024 10 23,05:25:54.004,0.627942,-0.513289,-0.42315,-0.403939,-1.662648,0.239265,-0.106937,10.009766,0.610352,-270.751953,0,0
12483,2024 10 23,05:25:54.012,0.638765,-0.522902,-0.410457,-0.387398,-1.842341,0.358898,-0.032228,15.686035,-4.02832,-303.039551,0,0
12484,2024 10 23,05:25:54.020,0.650199,-0.533383,-0.395834,-0.368862,-1.930235,0.365734,-0.064455,13.671875,-4.272461,-338.317871,0,0
12485,2024 10 23,05:25:54.029,0.661703,-0.544958,-0.379199,-0.348394,-2.260811,0.339366,-0.166021,2.13623,-1.220703,-368.713379,0,0
12486,2024 10 23,05:25:54.037,0.673023,-0.557313,-0.360261,-0.32658,-2.33845,0.256844,0.094241,-6.225586,-13.000488,-398.010254,0,0
12487,2024 10 23,05:25:54.045,0.683036,-0.57157,-0.338679,-0.303424,-2.657308,0.075198,-0.08887,-35.583496,-4.760742,-427.856445,0,0
12488,2024 10 23,05:25:54.054,0.683036,-0.57157,-0.338679,-0.303424,-2.657308,0.075198,-0.08887,-35.583496,-4.760742,-427.856445,0,0
12489,2024 10 23,05:25:54.062,0.691446,-0.587179,-0.314592,-0.279562,-3.226173,0.123051,-0.485366,-71.777344,-15.686035,-446.899414,0,0
12490,2024 10 23,05:25:54.070,0.699136,-0.601847,-0.286847,-0.25828,-2.826746,0.02588,-0.009278,-80.566406,-73.608398,-441.162109,0,0
12491,2024 10 23,05:25:54.079,0.705505,-0.615824,-0.258241,-0.237351,-2.29548,0.179205,0.199225,-73.669434,-55.786133,-444.152832,0,0
12492,2024 10 23,05:25:54.087,0.712232,-0.628327,-0.230022,-0.212182,-2.090396,0.455092,0.388684,-53.405762,-34.362793,-476.623535,0,0
12493,2024 10 23,05:25:54.095,0.7193,-0.638937,-0.201638,-0.183599,-1.443892,0.399915,0.585955,-20.019531,-14.465332,-495.97168,0,0
12494,2024 10 23,05:25:54.104,0.7193,-0.638937,-0.201638,-0.183599,-1.443892,0.399915,0.585955,-20.019531,-14.465332,-495.97168,0,0
12495,2024 10 23,05:25:54.112,0.726557,-0.646846,-0.175894,-0.150881,-0.839381,0.403821,0.750023,25.878906,40.893555,-499.511719,0,1
12496,2024 10 23,05:25:54.120,0.73387,-0.651096,-0.155467,-0.115491,-0.885769,0.53029,0.978545,66.223145,96.740723,-457.519531,0,0
12497,2024 10 23,05:25:54.129,0.74067,-0.651521,-0.141881,-0.082456,-0.936552,0.647969,0.517594,104.064941,118.896484,-370.605469,0,0
12498,2024 10 23,05:25:54.137,0.747922,-0.647399,-0.13326,-0.061059,-0.69631,1.078158,-0.244636,110.900879,55.786133,-202.758789,0,0
12499,2024 10 23,05:25:54.145,0.756375,-0.637241,-0.13639,-0.056731,-0.241707,2.167058,0.001465,164.794922,36.254883,53.527832,0,0
12500,2024 10 23,05:25:54.154,0.756375,-0.637241,-0.13639,-0.056731,-0.241707,2.167058,0.001465,164.794922,36.254883,53.527832,0,0
12501,2024 10 23,05:25:54.162,0.760335,-0.628377,-0.150288,-0.066684,-0.980499,1.687551,-0.08301,76.599121,35.705566,235.229492,0,0
12502,2024 10 23,05:25:54.170,0.760917,-0.620496,-0.167665,-0.088755,-1.091342,1.081576,-0.14893,38.269043,-38.818359,342.834473,0,0
12503,2024 10 23,05:25:54.179,0.760026,-0.612337,-0.183676,-0.116905,-0.664571,0.622089,0.261238,22.216797,-67.138672,375.0,0,0
12504,2024 10 23,05:25:54.187,0.757431,-0.604174,-0.200988,-0.144484,-0.357921,0.353038,0.26368,20.812988,-45.288086,376.525879,0,0
12505,2024 10 23,05:25:54.195,0.754279,-0.595664,-0.218207,-0.169212,0.052248,0.295907,0.446791,23.620605,-20.629883,348.388672,0,0
12506,2024 10 23,05:25:54.204,0.749877,-0.588321,-0.237127,-0.187971,-0.135258,0.273446,0.30372,27.22168,49.072266,306.884766,0,0
12507,2024 10 23,05:25:54.212,0.749877,-0.588321,-0.237127,-0.187971,-0.135258,0.273446,0.30372,27.22168,49.072266,306.884766,0,0
12508,2024 10 23,05:25:54.220,0.744735,-0.581823,-0.257258,-0.201668,-0.534684,0.493667,0.229499,26.306152,85.754395,272.827148,0,0
12509,2024 10 23,05:25:54.229,0.738293,-0.576655,-0.276539,-0.214287,-0.772485,0.705588,-0.028809,1.77002,83.80127,260.498047,0,0
12510,2024 10 23,05:25:54.237,0.730473,-0.572405,-0.293948,-0.228815,-0.931181,0.8052,-0.000488,-27.893066,58.410645,267.51709,0,0
12511,2024 10 23,05:25:54.245,0.720951,-0.568965,-0.309505,-0.246406,-0.917508,0.643574,0.055177,-61.218262,29.846191,283.691406,0,0
12512,2024 10 23,05:25:54.254,0.709993,-0.565652,-0.324046,-0.26635,-0.707053,0.411634,0.175787,-75.866699,18.432617,301.330566,0,0
12513,2024 10 23,05:25:54.262,0.709993,-0.565652,-0.324046,-0.26635,-0.707053,0.411634,0.175787,-75.866699,18.432617,301.330566,0,0
12514,2024 10 23,05:25:54.270,0.697607,-0.561983,-0.339898,-0.286339,-0.676778,0.263192,0.215827,-75.134277,38.879395,316.589355,0,0
12515,2024 10 23,05:25:54.279,0.683997,-0.557661,-0.357682,-0.30533,-0.790551,0.201666,0.200201,-65.673828,63.598633,327.087402,0,0
12516,2024 10 23,05:25:54.287,0.669378,-0.552598,-0.377164,-0.322981,-1.02298,0.194342,0.137211,-55.114746,85.876465,332.885742,0,0
12517,2024 10 23,05:25:54.295,0.654152,-0.546696,-0.397274,-0.339679,-1.293496,0.186529,0.051759,-47.119141,91.73584,333.557129,0,0
12518,2024 10 23,05:25:54.304,0.638797,-0.53981,-0.416793,-0.356127,-1.466353,0.152837,-0.021485,-42.602539,82.885742,332.885742,0,0
12519,2024 10 23,05:25:54.312,0.638797,-0.53981,-0.416793,-0.356127,-1.466353,0.152837,-0.021485,-42.602539,82.885742,332.885742,0,0
12520,2024 10 23,05:25:54.320,0.623475,-0.531677,-0.435393,-0.372869,-1.55913,0.137211,-0.062014,-37.902832,69.091797,336.486816,0,0
12521,2024 10 23,05:25:54.329,0.608092,-0.522131,-0.45329,-0.390041,-1.601123,0.098636,-0.092288,-34.179688,56.030273,343.62793,0,0
12522,2024 10 23,05:25:54.337,0.592577,-0.511177,-0.470747,-0.407367,-1.642628,0.06299,-0.092288,-26.733398,48.339844,350.341797,0,0
12523,2024 10 23,05:25:54.345,0.576881,-0.498945,-0.48802,-0.42438,-1.712455,0.037111,-0.052736,-18.127441,44.799805,354.980469,0,0
12524,2024 10 23,05:25:54.354,0.561125,-0.4856,-0.505066,-0.440726,-1.826228,0.020508,-0.0,-7.8125,41.381836,355.163574,0,0
12525,2024 10 23,05:25:54.362,0.561125,-0.4856,-0.505066,-0.440726,-1.826228,0.020508,-0.0,-7.8125,41.381836,355.163574,0,0
12526,2024 10 23,05:25:54.370,0.545541,-0.471229,-0.521593,-0.456364,-1.937559,-0.013184,0.074709,0.610352,35.217285,352.966309,0,0
12527,2024 10 23,05:25:54.379,0.530145,-0.455951,-0.537602,-0.47121,-2.038636,-0.039064,0.142094,9.338379,30.151367,350.646973,0,0
12528,2024 10 23,05:25:54.387,0.514786,-0.439873,-0.553049,-0.485431,-2.107975,-0.079104,0.199225,13.916016,25.45166,349.79248,0,0
12529,2024 10 23,05:25:54.395,0.499192,-0.423261,-0.567904,-0.499142,-2.142155,-0.139653,0.235359,14.831543,23.4375,349.243164,0,0
12530,2024 10 23,05:25:54.404,0.483256,-0.406681,-0.581874,-0.512345,-2.159734,-0.238289,0.30958,9.460449,24.230957,343.261719,0,0
12531,2024 10 23,05:25:54.412,0.483256,-0.406681,-0.581874,-0.512345,-2.159734,-0.238289,0.30958,9.460449,24.230957,343.261719,0,0
12532,2024 10 23,05:25:54.420,0.466766,-0.391031,-0.594784,-0.524839,-2.167547,-0.357433,0.37843,-0.793457,32.409668,331.420898,0,0
12533,2024 10 23,05:25:54.429,0.449552,-0.376933,-0.606711,-0.536401,-2.196844,-0.500992,0.476089,-12.512207,46.447754,316.28418,0,0
12534,2024 10 23,05:25:54.437,0.431492,-0.364678,-0.617728,-0.547025,-2.139714,-0.800806,0.533708,-24.353027,63.415527,302.001953,0,0
12535,2024 10 23,05:25:54.445,0.412654,-0.354255,-0.628355,-0.556228,-2.079165,-1.200232,0.561052,-27.709961,85.632324,286.376953,0,0
12536,2024 10 23,05:25:54.454,0.393569,-0.346161,-0.638408,-0.563659,-2.090396,-1.632374,0.341319,-30.517578,106.140137,259.399414,0,0
12537,2024 10 23,05:25:54.462,0.393569,-0.346161,-0.638408,-0.563659,-2.090396,-1.632374,0.341319,-30.517578,106.140137,259.399414,0,0
12538,2024 10 23,05:25:54.470,0.375439,-0.340574,-0.647501,-0.569032,-2.107486,-1.992737,-0.019044,-27.526855,117.858887,222.290039,0,0
12539,2024 10 23,05:25:54.479,0.359462,-0.337023,-0.655125,-0.572724,-2.001038,-2.346751,-0.522477,-25.024414,113.342285,180.664063,0,0
12540,2024 10 23,05:25:54.487,0.346209,-0.335695,-0.660596,-0.575379,-2.264229,-3.061129,-1.002472,-31.12793,105.712891,134.887695,0,0
12541,2024 10 23,05:25:54.495,0.33716,-0.335759,-0.663856,-0.576962,-2.581133,-3.61095,-1.251503,-19.40918,68.481445,87.402344,0,0
12542,2024 10 23,05:25:54.504,0.335736,-0.334598,-0.664173,-0.5781,-2.202704,-3.765252,-0.840358,-2.01416,-13.549805,34.362793,0,0
12543,2024 10 23,05:25:54.512,0.335736,-0.334598,-0.664173,-0.5781,-2.202704,-3.765252,-0.840358,-2.01416,-13.549805,34.362793,0,0
12544,2024 10 23,05:25:54.520,0.342392,-0.338394,-0.663456,-0.572785,-3.558702,-3.212989,-1.902402,69.091797,22.583008,-131.713867,0,0
12545,2024 10 23,05:25:54.529,0.365866,-0.341841,-0.650117,-0.57152,-2.472243,-3.455672,-0.0459,15.869141,-254.821777,-241.027832,0,0
12546,2024 10 23,05:25:54.537,0.397954,-0.346927,-0.632996,-0.566207,-0.769555,-1.548387,-1.408246,13.000488,-252.746582,-341.247559,1,0
12547,2024 10 23,05:25:54.545,0.433801,-0.347954,-0.617289,-0.556507,-0.750023,1.811579,0.206549,154.785156,-269.958496,-334.472656,0,0
12548,2024 10 23,05:25:54.554,0.455375,-0.355664,-0.602667,-0.55039,-0.977569,1.542039,1.652394,-84.838867,-106.140137,-277.526855,0,0
12549,2024 10 23,05:25:54.562,0.455375,-0.355664,-0.602667,-0.55039,-0.977569,1.542039,1.652394,-84.838867,-106.140137,-277.526855,0,0
12550,2024 10 23,05:25:54.570,0.466155,-0.37381,-0.584531,-0.548898,-2.14069,0.231452,-0.850612,-182.373047,-75.744629,-285.400391,0,0
12551,2024 10 23,05:25:54.579,0.481217,-0.386587,-0.561777,-0.550806,-1.339396,-0.627461,-1.026887,-149.353027,-150.32959,-252.01416,0,0
12552,2024 10 23,05:25:54.587,0.489748,-0.397204,-0.548001,-0.54961,-1.718314,-0.958525,-0.893094,-71.289063,-18.371582,-159.179688,0,0
12553,2024 10 23,05:25:54.595,0.495008,-0.401381,-0.545461,-0.544364,-1.478561,-0.140141,-0.344249,47.729492,4.089355,-76.904297,0,0
12554,2024 10 23,05:25:54.604,0.500856,-0.400817,-0.545055,-0.539818,-1.214393,0.772973,0.812037,40.100098,-27.22168,-55.786133,0,0
12555,2024 10 23,05:25:54.612,0.501909,-0.404165,-0.540832,-0.540591,-1.24955,0.220222,0.249031,-72.265625,-16.784668,-41.809082,0,0
12556,2024 10 23,05:25:54.620,0.501909,-0.404165,-0.540832,-0.540591,-1.24955,0.220222,0.249031,-72.265625,-16.784668,-41.809082,0,0
12557,2024 10 23,05:25:54.629,0.503051,-0.407134,-0.533135,-0.54493,-1.122593,-0.32667,-0.295419,-78.491211,-69.702148,-33.325195,0,0
12558,2024 10 23,05:25:54.637,0.507131,-0.405605,-0.527008,-0.548238,-0.835475,-0.053713,-0.179205,-16.723633,-82.519531,-19.226074,0,0
12559,2024 10 23,05:25:54.645,0.510677,-0.403256,-0.523386,-0.550146,-0.915067,0.250008,-0.065432,-4.760742,-60.791016,-11.962891,0,0
12560,2024 10 23,05:25:54.654,0.513216,-0.401925,-0.519739,-0.552211,-0.872097,0.218757,-0.336924,-19.287109,-53.710938,-14.282227,0,0
12561,2024 10 23,05:25:54.662,0.515657,-0.401114,-0.516092,-0.553944,-0.775414,0.196783,-0.274911,-14.953613,-43.212891,-18.554688,0,0
12562,2024 10 23,05:25:54.670,0.515657,-0.401114,-0.516092,-0.553944,-0.775414,0.196783,-0.274911,-14.953613,-43.212891,-18.554688,0,0
12563,2024 10 23,05:25:54.679,0.517047,-0.401555,-0.513809,-0.554451,-0.822291,0.215827,-0.321787,-13.916016,-13.793945,-19.470215,0,0
12564,2024 10 23,05:25:54.687,0.517718,-0.402965,-0.512066,-0.554415,-0.889676,0.182623,-0.23487,-17.211914,-1.098633,-21.42334,0,0
12565,2024 10 23,05:25:54.695,0.518091,-0.404909,-0.510899,-0.553727,-0.92581,0.144536,-0.222663,-11.535645,8.728027,-24.230957,0,0
12566,2024 10 23,05:25:54.704,0.518716,-0.406691,-0.510021,-0.552643,-0.89993,0.121097,-0.216803,-5.004883,7.446289,-24.963379,0,0
12567,2024 10 23,05:25:54.712,0.519591,-0.408125,-0.509565,-0.551183,-0.921415,0.135746,-0.15772,2.807617,9.094238,-24.536133,0,0
12568,2024 10 23,05:25:54.720,0.519591,-0.408125,-0.509565,-0.551183,-0.921415,0.135746,-0.15772,2.807617,9.094238,-24.536133,0,0
12569,2024 10 23,05:25:54.729,0.520468,-0.409363,-0.50953,-0.549468,-0.96878,0.140141,-0.1377,7.507324,10.742188,-22.644043,0,0
12570,2024 10 23,05:25:54.737,0.521437,-0.410244,-0.509587,-0.547837,-0.970244,0.160161,-0.13477,9.094238,6.835938,-20.080566,0,0
12571,2024 10 23,05:25:54.745,0.5224,-0.410971,-0.509687,-0.546279,-0.970244,0.153813,-0.109867,10.681152,7.446289,-19.226074,0,0
12572,2024 10 23,05:25:54.754,0.52336,-0.411589,-0.509982,-0.544616,-0.955107,0.224616,-0.133305,12.451172,7.568359,-18.554688,0,0
12573,2024 10 23,05:25:54.762,0.524017,-0.412518,-0.510037,-0.543228,-0.981475,0.153813,-0.066408,4.02832,9.765625,-17.333984,0,0
12574,2024 10 23,05:25:54.770,0.524017,-0.412518,-0.510037,-0.543228,-0.981475,0.153813,-0.066408,4.02832,9.765625,-17.333984,0,0
12575,2024 10 23,05:25:54.779,0.524602,-0.413275,-0.510113,-0.542016,-1.007843,0.163579,-0.073733,5.615234,4.760742,-14.404297,0,0
12576,2024 10 23,05:25:54.787,0.525381,-0.413528,-0.509749,-0.541411,-0.965361,0.154302,-0.022462,2.01416,-4.455566,-10.864258,0,0
12577,2024 10 23,05:25:54.795,0.526096,-0.413622,-0.509237,-0.541126,-1.017121,0.199713,-0.157231,1.831055,-6.04248,-9.033203,0,0
12578,2024 10 23,05:25:54.804,0.527165,-0.413564,-0.508678,-0.540656,-0.960967,0.135746,-0.065432,1.647949,-9.70459,-11.59668,0,0
12579,2024 10 23,05:25:54.812,0.528261,-0.41352,-0.508225,-0.540045,-0.991241,0.202643,-0.167974,8.850098,-6.04248,-13.549805,0,0
12580,2024 10 23,05:25:54.820,0.528261,-0.41352,-0.508225,-0.540045,-0.991241,0.202643,-0.167974,8.850098,-6.04248,-13.549805,0,0
12581,2024 10 23,05:25:54.829,0.529724,-0.413327,-0.50741,-0.539525,-0.928739,0.181158,-0.123051,2.929688,-13.427734,-15.014648,0,0
12582,2024 10 23,05:25:54.837,0.530873,-0.413597,-0.506657,-0.538897,-0.893582,0.13184,-0.145512,1.403809,-5.249023,-16.418457,0,0
12583,2024 10 23,05:25:54.845,0.531941,-0.413911,-0.506061,-0.538162,-0.920438,0.169439,-0.187017,5.065918,-4.211426,-15.869141,0,0
12584,2024 10 23,05:25:54.854,0.533053,-0.414393,-0.505407,-0.537305,-0.900418,0.152348,-0.144536,1.89209,-2.380371,-19.470215,0,0
12585,2024 10 23,05:25:54.862,0.53401,-0.415188,-0.504776,-0.536333,-0.966826,0.135258,-0.126957,2.807617,0.610352,-19.592285,0,0
12586,2024 10 23,05:25:54.870,0.53401,-0.415188,-0.504776,-0.536333,-0.966826,0.135258,-0.126957,2.807617,0.610352,-19.592285,0,0
12587,2024 10 23,05:25:54.879,0.535168,-0.415758,-0.50411,-0.535364,-0.976104,0.127934,-0.067385,2.685547,-4.394531,-19.226074,0,0
12588,2024 10 23,05:25:54.887,0.536492,-0.416325,-0.503327,-0.534333,-0.979034,0.142094,-0.071291,4.394531,-4.272461,-22.827148,0,0
12589,2024 10 23,05:25:54.895,0.53795,-0.416789,-0.502281,-0.533489,-1.003937,0.117191,-0.149907,3.417969,-9.521484,-21.30127,0,0
12590,2024 10 23,05:25:54.904,0.539849,-0.416817,-0.501096,-0.532662,-0.948271,0.140141,-0.10889,6.103516,-15.50293,-23.31543,0,0
12591,2024 10 23,05:25:54.912,0.541669,-0.416998,-0.499802,-0.531888,-0.93704,0.105472,-0.141606,3.417969,-13.000488,-22.888184,0,0
12592,2024 10 23,05:25:54.920,0.541669,-0.416998,-0.499802,-0.531888,-0.93704,0.105472,-0.141606,3.417969,-13.000488,-22.888184,0,0
12593,2024 10 23,05:25:54.929,0.543465,-0.417118,-0.498574,-0.531115,-0.968291,0.113773,-0.175787,5.432129,-14.160156,-22.644043,0,0
12594,2024 10 23,05:25:54.937,0.54551,-0.417025,-0.497211,-0.530368,-0.970733,0.133305,-0.118656,7.019043,-17.333984,-23.4375,0,0
12595,2024 10 23,05:25:54.945,0.547594,-0.416943,-0.495828,-0.529579,-0.960967,0.120121,-0.160649,4.882813,-18.310547,-24.475098,0,0
12596,2024 10 23,05:25:54.954,0.549754,-0.416988,-0.494327,-0.528708,-0.967315,0.139164,-0.169439,7.019043,-15.869141,-27.038574,0,0
12597,2024 10 23,05:25:54.962,0.551873,-0.417365,-0.492866,-0.527565,-0.997589,0.124027,-0.167486,4.699707,-13.183594,-30.334473,0,0
12598,2024 10 23,05:25:54.970,0.551873,-0.417365,-0.492866,-0.527565,-0.997589,0.124027,-0.167486,4.699707,-13.183594,-30.334473,0,0
12599,2024 10 23,05:25:54.979,0.554201,-0.417846,-0.491306,-0.526198,-1.013214,0.132817,-0.143071,7.141113,-13.427734,-34.667969,0,0
12600,2024 10 23,05:25:54.987,0.556837,-0.41854,-0.489718,-0.524341,-0.996124,0.141606,-0.148442,8.850098,-11.84082,-41.19873,0,0
12601,2024 10 23,05:25:54.995,0.559596,-0.419647,-0.487885,-0.522223,-1.011261,0.150395,-0.232917,7.263184,-8.850098,-47.302246,0,0
12602,2024 10 23,05:25:55.004,0.562564,-0.42116,-0.486108,-0.519467,-1.0347,0.162114,-0.247078,9.155273,-4.943848,-55.114746,0,0
12603,2024 10 23,05:25:55.012,0.565787,-0.423295,-0.48408,-0.516114,-1.071322,0.174322,-0.188971,7.629395,-0.0,-65.979004,0,0
12604,2024 10 23,05:25:55.020,0.569178,-0.426207,-0.48183,-0.512078,-1.158727,0.176275,-0.193365,5.981445,4.516602,-77.026367,0,0
12605,2024 10 23,05:25:55.029,0.569178,-0.426207,-0.48183,-0.512078,-1.158727,0.176275,-0.193365,5.981445,4.516602,-77.026367,0,0
12606,2024 10 23,05:25:55.037,0.572924,-0.429824,-0.47915,-0.50737,-1.20072,0.145512,-0.15772,5.004883,6.591797,-90.393066,0,0
12607,2024 10 23,05:25:55.045,0.577278,-0.434056,-0.475941,-0.501822,-1.277383,0.173345,-0.150395,5.187988,6.103516,-104.980469,0,0
12608,2024 10 23,05:25:55.054,0.582298,-0.438768,-0.47195,-0.495656,-1.302286,0.130863,-0.091311,4.272461,3.112793,-120.544434,0,0
12609,2024 10 23,05:25:55.062,0.587986,-0.444146,-0.467269,-0.488535,-1.404828,0.205084,-0.150884,4.089355,3.967285,-137.390137,0,0
12610,2024 10 23,05:25:55.070,0.594401,-0.45004,-0.461446,-0.480852,-1.455611,0.194342,-0.160649,0.915527,-4.150391,-155.700684,0,0
12611,2024 10 23,05:25:55.079,0.594401,-0.45004,-0.461446,-0.480852,-1.455611,0.194342,-0.160649,0.915527,-4.150391,-155.700684,0,0
12612,2024 10 23,05:25:55.087,0.601686,-0.456596,-0.454399,-0.472245,-1.468307,0.254891,-0.140141,-1.159668,-7.629395,-177.062988,0,0
12613,2024 10 23,05:25:55.095,0.609694,-0.463917,-0.446056,-0.462697,-1.530808,0.282235,-0.212897,-5.126953,-10.009766,-198.852539,0,0
12614,2024 10 23,05:25:55.104,0.618614,-0.471956,-0.436861,-0.451361,-1.715873,0.313974,-0.249519,2.258301,-6.591797,-226.806641,0,0
12615,2024 10 23,05:25:55.112,0.629001,-0.480521,-0.426484,-0.437686,-1.889218,0.447768,-0.084964,10.864258,-7.93457,-262.390137,0,0
12616,2024 10 23,05:25:55.120,0.640505,-0.490134,-0.41424,-0.421814,-2.104556,0.541032,-0.187994,10.375977,-11.413574,-301.330566,0,0
12617,2024 10 23,05:25:55.129,0.640505,-0.490134,-0.41424,-0.421814,-2.104556,0.541032,-0.187994,10.375977,-11.413574,-301.330566,0,0
12618,2024 10 23,05:25:55.137,0.653793,-0.500047,-0.399504,-0.403614,-2.235908,0.645527,0.101077,14.526367,-26.062012,-345.275879,0,0
12619,2024 10 23,05:25:55.145,0.66707,-0.511769,-0.38204,-0.383608,-2.596759,0.542009,-0.072756,-5.79834,-24.963379,-381.103516,0,0
12620,2024 10 23,05:25:55.154,0.680516,-0.524309,-0.36143,-0.362444,-2.604083,0.369152,0.209967,-21.118164,-46.691895,-412.841797,0,0
12621,2024 10 23,05:25:55.162,0.692981,-0.538692,-0.337193,-0.340425,-2.584063,0.238289,0.374035,-56.396484,-50.231934,-442.382813,0,0
12622,2024 10 23,05:25:55.170,0.702424,-0.555304,-0.312258,-0.317383,-3.237892,0.273446,-0.589373,-86.914063,-28.625488,-445.922852,0,0
12623,2024 10 23,05:25:55.179,0.702424,-0.555304,-0.312258,-0.317383,-3.237892,0.273446,-0.589373,-86.914063,-28.625488,-445.922852,0,0
12624,2024 10 23,05:25:55.187,0.71292,-0.569019,-0.283756,-0.295709,-2.4532,0.187506,0.021485,-67.565918,-103.515625,-457.336426,0,0
12625,2024 10 23,05:25:55.195,0.72281,-0.581529,-0.254718,-0.272928,-1.85992,0.335459,0.051271,-46.325684,-62.5,-463.623047,0,0
12626,2024 10 23,05:25:55.204,0.734358,-0.5912,-0.226584,-0.244663,-1.552293,0.543474,0.597186,-4.02832,-51.025391,-502.990723,0,0
12627,2024 10 23,05:25:55.212,0.74542,-0.599434,-0.199104,-0.213038,-1.167028,0.608905,0.663106,17.578125,-13.000488,-513.793945,0,1
12628,2024 10 23,05:25:55.220,0.75581,-0.605226,-0.175047,-0.178355,-0.655782,0.411145,0.757836,54.199219,29.174805,-501.220703,0,0
12629,2024 10 23,05:25:55.229,0.75581,-0.605226,-0.175047,-0.178355,-0.655782,0.411145,0.757836,54.199219,29.174805,-501.220703,0,0
12630,2024 10 23,05:25:55.237,0.766088,-0.607038,-0.156469,-0.141884,-0.961943,0.55031,0.976592,106.933594,88.256836,-463.195801,0,0
12631,2024 10 23,05:25:55.245,0.775567,-0.605265,-0.143553,-0.10744,-1.214393,1.151891,0.153325,139.831543,98.144531,-388.977051,0,0
12632,2024 10 23,05:25:55.254,0.781782,-0.60326,-0.132903,-0.085035,-0.743675,1.720756,-0.646992,55.603027,33.081055,-239.929199,0,0
12633,2024 10 23,05:25:55.262,0.786389,-0.59835,-0.130698,-0.080542,0.040529,2.568438,0.156255,68.603516,-14.953613,1.89209,0,0
12634,2024 10 23,05:25:55.270,0.783274,-0.599056,-0.137635,-0.093115,-0.406751,1.571337,0.040529,-70.678711,-9.338379,206.115723,0,0
12635,2024 10 23,05:25:55.279,0.783274,-0.599056,-0.137635,-0.093115,-0.406751,1.571337,0.040529,-70.678711,-9.338379,206.115723,0,0
12636,2024 10 23,05:25:55.287,0.776463,-0.60054,-0.151945,-0.115626,-0.658711,0.95706,0.116214,-80.01709,-24.475098,322.692871,0,0
12637,2024 10 23,05:25:55.295,0.768656,-0.600566,-0.168212,-0.142101,-0.540056,0.613788,0.618671,-81.542969,-17.700195,359.069824,0,0
12638,2024 10 23,05:25:55.304,0.759164,-0.600619,-0.187059,-0.16714,-0.545427,0.311045,0.398938,-74.829102,17.089844,360.534668,0,0
12639,2024 10 23,05:25:55.312,0.750703,-0.598394,-0.206207,-0.189335,-0.400891,0.242195,0.612812,-43.09082,28.076172,334.960938,0,0
12640,2024 10 23,05:25:55.320,0.742817,-0.595569,-0.224602,-0.207547,-0.103519,0.032716,0.496109,-24.230957,52.001953,293.884277,0,0
12641,2024 10 23,05:25:55.329,0.742817,-0.595569,-0.224602,-0.207547,-0.103519,0.032716,0.496109,-24.230957,52.001953,293.884277,0,0
12642,2024 10 23,05:25:55.337,0.735663,-0.592443,-0.24427,-0.219417,-0.166509,0.083987,0.318857,3.540039,112.304688,248.535156,0,0
12643,2024 10 23,05:25:55.345,0.728933,-0.589231,-0.265932,-0.225263,-0.489761,0.295907,0.215339,24.108887,163.146973,213.684082,0,0
12644,2024 10 23,05:25:55.354,0.721869,-0.585843,-0.288543,-0.228989,-0.921415,0.484878,0.02588,28.869629,176.025391,210.144043,0,0
12645,2024 10 23,05:25:55.362,0.714334,-0.581162,-0.310966,-0.235112,-1.264199,0.63918,-0.141118,24.414063,147.155762,240.112305,0,0
12646,2024 10 23,05:25:55.370,0.706148,-0.574145,-0.332836,-0.246845,-1.359416,0.685568,-0.211921,17.028809,98.754883,296.813965,0,0
12647,2024 10 23,05:25:55.379,0.706148,-0.574145,-0.332836,-0.246845,-1.359416,0.685568,-0.211921,17.028809,98.754883,296.813965,0,0
12648,2024 10 23,05:25:55.387,0.697009,-0.564189,-0.3549,-0.264416,-1.29545,0.548845,-0.135746,13.000488,61.279297,358.947754,0,0
12649,2024 10 23,05:25:55.395,0.686688,-0.551618,-0.377802,-0.285381,-1.10062,0.344737,-0.101077,22.705078,50.65918,400.57373,0,0
12650,2024 10 23,05:25:55.404,0.675521,-0.536814,-0.402285,-0.306055,-1.004425,0.2837,-0.044435,39.611816,67.687988,416.442871,0,0
12651,2024 10 23,05:25:55.412,0.663169,-0.521033,-0.428376,-0.324384,-1.179724,0.315928,-0.08301,56.274414,97.167969,412.536621,0,0
12652,2024 10 23,05:25:55.420,0.649841,-0.505283,-0.454521,-0.340304,-1.481002,0.399426,-0.174322,58.959961,114.318848,395.141602,0,0
12653,2024 10 23,05:25:55.429,0.635848,-0.489922,-0.479347,-0.354823,-1.759331,0.496597,-0.275887,51.574707,111.450195,377.380371,0,0
12654,2024 10 23,05:25:55.437,0.635848,-0.489922,-0.479347,-0.354823,-1.759331,0.496597,-0.275887,51.574707,111.450195,377.380371,0,0
12655,2024 10 23,05:25:55.445,0.62187,-0.47459,-0.501155,-0.369982,-1.824274,0.532243,-0.26368,32.043457,80.810547,366.638184,0,0
12656,2024 10 23,05:25:55.454,0.607623,-0.459364,-0.520001,-0.386495,-1.742241,0.454604,-0.205573,10.803223,58.532715,362.915039,0,0
12657,2024 10 23,05:25:55.462,0.592467,-0.444333,-0.537358,-0.403481,-1.69097,0.388684,-0.069826,-2.868652,56.945801,362.854004,0,0
12658,2024 10 23,05:25:55.470,0.575747,-0.429851,-0.554322,-0.420083,-1.825739,0.34376,0.00293,-13.000488,70.556641,362.854004,0,0
12659,2024 10 23,05:25:55.479,0.557608,-0.415977,-0.570813,-0.43613,-2.047426,0.302744,0.104984,-23.376465,79.956055,359.802246,0,0
12660,2024 10 23,05:25:55.487,0.557608,-0.415977,-0.570813,-0.43613,-2.047426,0.302744,0.104984,-23.376465,79.956055,359.802246,0,0
12661,2024 10 23,05:25:55.495,0.538425,-0.402746,-0.586216,-0.451934,-2.201239,0.147954,0.185064,-36.437988,82.214355,354.675293,0,0
12662,2024 10 23,05:25:55.504,0.518494,-0.390023,-0.600435,-0.467464,-2.27546,-0.184576,0.247078,-46.447754,84.106445,350.158691,0,0
12663,2024 10 23,05:25:55.512,0.497924,-0.377748,-0.613908,-0.482177,-2.3614,-0.601093,0.321299,-48.583984,90.942383,344.543457,0,0
12664,2024 10 23,05:25:55.520,0.477214,-0.366056,-0.626601,-0.495622,-2.438551,-0.953642,0.360851,-48.034668,95.214844,330.993652,0,0
12665,2024 10 23,05:25:55.529,0.456888,-0.355619,-0.63805,-0.507624,-2.528398,-1.358928,0.392102,-51.208496,98.632813,306.762695,0,0
12666,2024 10 23,05:25:55.537,0.456888,-0.355619,-0.63805,-0.507624,-2.528398,-1.358928,0.392102,-51.208496,98.632813,306.762695,0,0
12667,2024 10 23,05:25:55.545,0.437518,-0.346906,-0.648062,-0.517929,-2.469314,-1.799371,0.420423,-51.513672,101.135254,275.146484,0,0
12668,2024 10 23,05:25:55.554,0.419363,-0.340309,-0.656911,-0.52611,-2.277413,-2.246651,0.402356,-48.217773,109.130859,237.731934,0,0
12669,2024 10 23,05:25:55.562,0.402455,-0.336409,-0.66488,-0.531784,-2.012757,-2.697348,0.212897,-41.809082,123.168945,195.495605,0,0
12670,2024 10 23,05:25:55.570,0.386854,-0.335373,-0.672363,-0.534599,-1.900937,-3.040132,-0.140141,-30.578613,141.967773,152.404785,0,0
12671,2024 10 23,05:25:55.579,0.373397,-0.33685,-0.679232,-0.534557,-1.756401,-3.192969,-0.59328,-12.207031,144.042969,103.45459,0,0
12672,2024 10 23,05:25:55.587,0.373397,-0.33685,-0.679232,-0.534557,-1.756401,-3.192969,-0.59328,-12.207031,144.042969,103.45459,0,0
12673,2024 10 23,05:25:55.595,0.363452,-0.340528,-0.684334,-0.532569,-2.025452,-3.830195,-0.896023,-9.521484,132.8125,51.940918,0,0
12674,2024 10 23,05:25:55.604,0.35751,-0.344967,-0.689043,-0.52764,-2.437086,-3.898556,-1.001984,42.480469,107.60498,13.793945,0,0
12675,2024 10 23,05:25:55.612,0.359648,-0.34713,-0.693008,-0.519514,-5.083163,-2.955657,-0.815455,101.013184,36.437988,-42.724609,0,0
12676,2024 10 23,05:25:55.620,0.377921,-0.353393,-0.689603,-0.506692,-3.692496,-2.041078,-2.336497,64.331055,-173.339844,-232.299805,0,0
12677,2024 10 23,05:25:55.629,0.419812,-0.347953,-0.661104,-0.51539,-0.617206,-0.879421,-0.424329,-20.385742,-576.171875,-263.061523,0,0
12678,2024 10 23,05:25:55.637,0.419812,-0.347953,-0.661104,-0.51539,-0.617206,-0.879421,-0.424329,-20.385742,-576.171875,-263.061523,0,0
12679,2024 10 23,05:25:55.645,0.459441,-0.339837,-0.638821,-0.515104,0.172369,1.983947,0.527848,72.143555,-371.520996,-264.770508,1,0
12680,2024 10 23,05:25:55.654,0.476604,-0.348276,-0.620518,-0.516245,-0.791528,1.501022,0.165044,-149.047852,-133.605957,-230.041504,0,0
12681,2024 10 23,05:25:55.662,0.486973,-0.363619,-0.599883,-0.520364,-0.839869,0.629902,-0.584979,-196.838379,-108.581543,-242.248535,0,0
12682,2024 10 23,05:25:55.670,0.495941,-0.38155,-0.578896,-0.522821,-1.416547,-0.909207,-1.784234,-198.547363,-68.42041,-246.765137,0,0
12683,2024 10 23,05:25:55.679,0.506793,-0.392702,-0.565459,-0.518848,-1.76812,-0.629902,-0.37843,-34.606934,-52.612305,-199.035645,0,0
12684,2024 10 23,05:25:55.687,0.506793,-0.392702,-0.565459,-0.518848,-1.76812,-0.629902,-0.37843,-34.606934,-52.612305,-199.035645,0,0
12685,2024 10 23,05:25:55.695,0.512887,-0.398967,-0.559352,-0.514682,-1.814997,-0.466811,-0.271493,-15.197754,-11.230469,-98.815918,0,0
12686,2024 10 23,05:25:55.704,0.518113,-0.399346,-0.555991,-0.512792,-1.376019,0.390637,0.294443,21.42334,-52.429199,-47.180176,0,0
12687,2024 10 23,05:25:55.712,0.521422,-0.399382,-0.551894,-0.513835,-1.2266,0.417982,0.371105,-36.621094,-50.964355,-30.700684,0,0
12688,2024 10 23,05:25:55.720,0.523779,-0.400972,-0.544403,-0.518172,-0.799829,-0.055666,-0.328623,-71.594238,-81.298828,-35.949707,0,0
12689,2024 10 23,05:25:55.729,0.527799,-0.400924,-0.537558,-0.521268,-0.949736,-0.107913,-0.064455,-29.724121,-72.937012,-31.799316,0,0
12690,2024 10 23,05:25:55.737,0.527799,-0.400924,-0.537558,-0.521268,-0.949736,-0.107913,-0.064455,-29.724121,-72.937012,-31.799316,0,0
12691,2024 10 23,05:25:55.745,0.531037,-0.399797,-0.533773,-0.522731,-1.169958,0.094241,0.215339,-9.82666,-55.236816,-15.075684,0,0
12692,2024 10 23,05:25:55.754,0.534267,-0.397974,-0.528506,-0.526172,-0.611347,0.006836,-0.55324,-33.325195,-89.294434,-11.71875,0,0
12693,2024 10 23,05:25:55.762,0.53713,-0.396296,-0.524116,-0.528907,-0.609394,0.050295,-0.520035,-9.094238,-46.75293,-9.399414,0,0
12694,2024 10 23,05:25:55.770,0.538918,-0.39548,-0.522771,-0.529031,-0.769066,0.226569,-0.28956,4.02832,-20.751953,-12.756348,0,0
12695,2024 10 23,05:25:55.779,0.539708,-0.396091,-0.521394,-0.529127,-0.816431,0.104984,-0.321299,-12.023926,-2.258301,-14.526367,0,0
12696,2024 10 23,05:25:55.787,0.539708,-0.396091,-0.521394,-0.529127,-0.816431,0.104984,-0.321299,-12.023926,-2.258301,-14.526367,0,0
12697,2024 10 23,05:25:55.795,0.540141,-0.397318,-0.521239,-0.527916,-0.934599,0.196295,-0.179693,5.432129,12.512207,-19.775391,0,0
12698,2024 10 23,05:25:55.804,0.540606,-0.39892,-0.521368,-0.526101,-0.960479,0.177252,-0.120121,1.281738,17.150879,-24.536133,0,0
12699,2024 10 23,05:25:55.812,0.541042,-0.400821,-0.521333,-0.52424,-0.929716,0.095706,-0.208014,3.417969,16.845703,-26.245117,0,0
12700,2024 10 23,05:25:55.820,0.541845,-0.402252,-0.521722,-0.521923,-0.961455,0.126469,-0.08301,12.207031,17.700195,-25.512695,0,0
12701,2024 10 23,05:25:55.829,0.542565,-0.403518,-0.522297,-0.519617,-1.010285,0.130375,-0.100589,12.817383,16.357422,-23.071289,0,0
12702,2024 10 23,05:25:55.837,0.543466,-0.404416,-0.522678,-0.517591,-1.012726,0.171392,-0.071291,12.329102,10.253906,-21.240234,0,0
12703,2024 10 23,05:25:55.845,0.543466,-0.404416,-0.522678,-0.517591,-1.012726,0.171392,-0.071291,12.329102,10.253906,-21.240234,0,0
12704,2024 10 23,05:25:55.854,0.544206,-0.405259,-0.522824,-0.516003,-1.000031,0.160161,-0.097171,7.080078,8.056641,-18.127441,0,0
12705,2024 10 23,05:25:55.862,0.544729,-0.406101,-0.522755,-0.514858,-0.989288,0.133305,-0.06885,2.319336,6.408691,-15.075684,0,0
12706,2024 10 23,05:25:55.870,0.545219,-0.406848,-0.522763,-0.513741,-1.036164,0.169927,-0.02588,5.859375,6.103516,-14.953613,0,0
12707,2024 10 23,05:25:55.879,0.545892,-0.407447,-0.522532,-0.512785,-1.029817,0.145024,0.000977,2.075195,0.488281,-14.648438,0,0
12708,2024 10 23,05:25:55.887,0.546716,-0.407841,-0.521976,-0.51216,-1.009308,0.142582,-0.053224,2.685547,-5.249023,-13.85498,0,0
12709,2024 10 23,05:25:55.895,0.546716,-0.407841,-0.521976,-0.51216,-1.009308,0.142582,-0.053224,2.685547,-5.249023,-13.85498,0,0
12710,2024 10 23,05:25:55.904,0.547777,-0.407867,-0.521111,-0.511887,-0.941923,0.143559,-0.084475,-0.244141,-11.779785,-11.71875,0,0
12711,2024 10 23,05:25:55.912,0.548605,-0.407953,-0.520151,-0.511908,-0.933622,0.116214,-0.123539,-2.563477,-10.131836,-9.399414,0,0
12712,2024 10 23,05:25:55.920,0.549437,-0.407921,-0.519366,-0.511837,-0.997101,0.178716,-0.102542,1.525879,-9.033203,-9.521484,0,0
12713,2024 10 23,05:25:55.929,0.550441,-0.407915,-0.518552,-0.511589,-0.975616,0.151372,-0.072268,-1.159668,-11.535645,-11.291504,0,0
12714,2024 10 23,05:25:55.937,0.551347,-0.408038,-0.517555,-0.511526,-0.958525,0.104984,-0.115238,-3.112793,-10.803223,-10.742188,0,0
12715,2024 10 23,05:25:55.945,0.551347,-0.408038,-0.517555,-0.511526,-0.958525,0.104984,-0.115238,-3.112793,-10.803223,-10.742188,0,0
12716,2024 10 23,05:25:55.954,0.552517,-0.408103,-0.516839,-0.510934,-1.00589,0.175298,-0.07178,5.615234,-7.93457,-17.028809,0,0
12717,2024 10 23,05:25:55.962,0.553865,-0.408378,-0.515557,-0.51055,-0.951689,0.116703,-0.072756,-1.220703,-13.916016,-18.432617,0,0
12718,2024 10 23,05:25:55.970,0.555181,-0.408788,-0.514275,-0.510086,-0.902371,0.08594,-0.141118,-2.13623,-11.108398,-19.470215,0,0
12719,2024 10 23,05:25:55.979,0.55659,-0.409109,-0.513132,-0.509444,-0.960967,0.135258,-0.13184,4.333496,-9.94873,-19.958496,0,0
12720,2024 10 23,05:25:55.987,0.558091,-0.409431,-0.511954,-0.508728,-0.966338,0.126957,-0.08594,0.671387,-11.291504,-21.972656,0,0
12721,2024 10 23,05:25:55.995,0.558091,-0.409431,-0.511954,-0.508728,-0.966338,0.126957,-0.08594,0.671387,-11.291504,-21.972656,0,0
12722,2024 10 23,05:25:56.004,0.559528,-0.41001,-0.51071,-0.507933,-0.960967,0.08887,-0.119144,0.427246,-9.94873,-23.132324,0,0
12723,2024 10 23,05:25:56.012,0.561173,-0.410411,-0.50935,-0.507158,-0.971709,0.130863,-0.119144,2.563477,-12.390137,-23.803711,0,0
12724,2024 10 23,05:25:56.020,0.562831,-0.410984,-0.507862,-0.506349,-0.956084,0.080569,-0.10596,-1.586914,-12.695313,-25.878906,0,0
12725,2024 10 23,05:25:56.029,0.56458,-0.411555,-0.506382,-0.505419,-0.967315,0.104495,-0.175298,2.441406,-11.71875,-27.160645,0,0
12726,2024 10 23,05:25:56.037,0.566497,-0.412141,-0.504774,-0.504406,-0.936552,0.095706,-0.15772,1.77002,-13.305664,-28.991699,0,0
12727,2024 10 23,05:25:56.045,0.566497,-0.412141,-0.504774,-0.504406,-0.936552,0.095706,-0.15772,1.77002,-13.305664,-28.991699,0,0
12728,2024 10 23,05:25:56.054,0.568352,-0.412893,-0.503287,-0.503187,-0.967803,0.116214,-0.16895,2.319336,-9.155273,-30.944824,0,0
12729,2024 10 23,05:25:56.062,0.570195,-0.413826,-0.501736,-0.501883,-0.963408,0.104984,-0.182623,0.488281,-9.399414,-32.897949,0,0
12730,2024 10 23,05:25:56.070,0.572089,-0.414994,-0.500142,-0.500353,-0.980987,0.107913,-0.16895,1.342773,-5.554199,-36.437988,0,0
12731,2024 10 23,05:25:56.079,0.573999,-0.416482,-0.498562,-0.498501,-1.005402,0.11182,-0.159185,0.671387,-3.540039,-41.015625,0,0
12732,2024 10 23,05:25:56.087,0.576124,-0.418183,-0.496977,-0.496204,-1.032258,0.116214,-0.182134,3.356934,-1.708984,-46.936035,0,0
12733,2024 10 23,05:25:56.095,0.576124,-0.418183,-0.496977,-0.496204,-1.032258,0.116214,-0.182134,3.356934,-1.708984,-46.936035,0,0
12734,2024 10 23,05:25:56.104,0.578595,-0.420289,-0.495166,-0.493351,-1.033723,0.156255,-0.17774,3.967285,1.220703,-56.396484,0,0
12735,2024 10 23,05:25:56.112,0.58102,-0.423167,-0.493186,-0.490014,-1.0889,0.141606,-0.233406,-0.366211,7.019043,-64.63623,0,0
12736,2024 10 23,05:25:56.120,0.58376,-0.426617,-0.491026,-0.485917,-1.118686,0.173345,-0.1919,0.12207,10.253906,-76.416016,0,0
12737,2024 10 23,05:25:56.129,0.586601,-0.430949,-0.488431,-0.481267,-1.184606,0.161138,-0.202643,-4.516602,15.014648,-87.890625,0,0
12738,2024 10 23,05:25:56.137,0.589663,-0.436027,-0.485411,-0.475977,-1.245643,0.114261,-0.154302,-6.530762,17.211914,-100.280762,0,0
12739,2024 10 23,05:25:56.145,0.589663,-0.436027,-0.485411,-0.475977,-1.245643,0.114261,-0.154302,-6.530762,17.211914,-100.280762,0,0
12740,2024 10 23,05:25:56.154,0.593315,-0.441765,-0.481921,-0.469653,-1.363323,0.158208,-0.140629,-4.211426,19.287109,-117.370605,0,0
12741,2024 10 23,05:25:56.162,0.597685,-0.448184,-0.477268,-0.46273,-1.397504,0.175298,-0.11182,-9.521484,12.023926,-135.681152,0,0
12742,2024 10 23,05:25:56.170,0.602844,-0.455171,-0.471683,-0.454878,-1.426801,0.191412,-0.123539,-8.666992,9.216309,-155.151367,0,0
12743,2024 10 23,05:25:56.179,0.608981,-0.462663,-0.464881,-0.446062,-1.458052,0.195318,-0.024415,-7.080078,3.417969,-176.025391,0,0
12744,2024 10 23,05:25:56.187,0.615954,-0.470766,-0.457088,-0.435948,-1.667043,0.287606,-0.083499,-5.92041,2.746582,-198.913574,0,0
12745,2024 10 23,05:25:56.195,0.624083,-0.479352,-0.447725,-0.424598,-1.701712,0.272469,-0.049806,-2.990723,-9.460449,-227.905273,0,0
12746,2024 10 23,05:25:56.204,0.624083,-0.479352,-0.447725,-0.424598,-1.701712,0.272469,-0.049806,-2.990723,-9.460449,-227.905273,0,0
12747,2024 10 23,05:25:56.212,0.633785,-0.48841,-0.436639,-0.41124,-1.805231,0.328135,-0.104984,5.065918,-11.962891,-262.084961,0,0
12748,2024 10 23,05:25:56.220,0.644966,-0.497865,-0.424123,-0.395309,-1.993713,0.43556,-0.051759,17.76123,-15.075684,-300.292969,0,0
12749,2024 10 23,05:25:56.229,0.657497,-0.507792,-0.409599,-0.376926,-2.164129,0.569842,0.010743,19.775391,-22.583008,-340.209961,0,0
12750,2024 10 23,05:25:56.237,0.670001,-0.519434,-0.392046,-0.357193,-2.571368,0.457045,-0.161138,-4.394531,-27.46582,-374.694824,0,0
12751,2024 10 23,05:25:56.245,0.682607,-0.531993,-0.371894,-0.335747,-2.54207,0.466811,0.218268,-8.422852,-39.123535,-410.766602,0,0
12752,2024 10 23,05:25:56.254,0.682607,-0.531993,-0.371894,-0.335747,-2.54207,0.466811,0.218268,-8.422852,-39.123535,-410.766602,0,0
12753,2024 10 23,05:25:56.262,0.693487,-0.547186,-0.348456,-0.313436,-2.68807,0.222663,-0.041017,-61.096191,-34.179688,-438.781738,0,0
12754,2024 10 23,05:25:56.270,0.702485,-0.563695,-0.322965,-0.290616,-3.257424,0.448256,-0.837916,-81.787109,-44.128418,-447.20459,0,0
12755,2024 10 23,05:25:56.279,0.711715,-0.578067,-0.293477,-0.270502,-2.500076,0.216803,-0.024903,-87.768555,-106.872559,-448.913574,0,0
12756,2024 10 23,05:25:56.287,0.719895,-0.591838,-0.264331,-0.248211,-1.996643,0.489273,0.031251,-59.753418,-66.467285,-463.806152,0,0
12757,2024 10 23,05:25:56.295,0.728295,-0.604347,-0.234736,-0.221924,-1.710501,0.546892,0.46144,-44.86084,-54.016113,-496.398926,0,0
12758,2024 10 23,05:25:56.304,0.728295,-0.604347,-0.234736,-0.221924,-1.710501,0.546892,0.46144,-44.86084,-54.016113,-496.398926,0,0
12759,2024 10 23,05:25:56.312,0.737007,-0.614558,-0.205907,-0.19168,-1.356975,0.665059,0.655782,-11.657715,-23.254395,-513.305664,0,1
12760,2024 10 23,05:25:56.320,0.745002,-0.622649,-0.179418,-0.158396,-0.735374,0.543962,0.802271,20.385742,16.784668,-509.521484,0,0
12761,2024 10 23,05:25:56.329,0.752439,-0.62734,-0.158301,-0.12337,-0.884304,0.45851,1.089389,59.265137,77.575684,-464.233398,0,0
12762,2024 10 23,05:25:56.337,0.759291,-0.628128,-0.144354,-0.089965,-0.775414,0.916044,0.216803,107.23877,104.064941,-382.8125,0,0
12763,2024 10 23,05:25:56.345,0.766131,-0.624617,-0.13426,-0.069793,-0.401379,1.488815,-0.236335,77.941895,28.808594,-196.655273,0,0
12764,2024 10 23,05:25:56.354,0.766131,-0.624617,-0.13426,-0.069793,-0.401379,1.488815,-0.236335,77.941895,28.808594,-196.655273,0,0
12765,2024 10 23,05:25:56.362,0.771719,-0.617049,-0.138058,-0.068127,-0.130863,2.457106,-0.023438,117.736816,28.198242,81.237793,0,0
12766,2024 10 23,05:25:56.370,0.771823,-0.611786,-0.151695,-0.083644,-0.974151,1.707083,0.198248,3.295898,3.234863,282.531738,0,0
12767,2024 10 23,05:25:56.379,0.767703,-0.608111,-0.168961,-0.110836,-1.02884,0.794946,-0.070803,-31.616211,-54.80957,381.225586,0,0
12768,2024 10 23,05:25:56.387,0.76346,-0.602108,-0.185408,-0.142195,-0.537126,0.551775,0.670919,-15.930176,-70.129395,406.616211,0,0
12769,2024 10 23,05:25:56.395,0.757577,-0.595691,-0.204376,-0.171638,-0.354991,0.2378,0.454604,-8.666992,-29.174805,405.212402,0,0
12770,2024 10 23,05:25:56.404,0.757577,-0.595691,-0.204376,-0.171638,-0.354991,0.2378,0.454604,-8.666992,-29.174805,405.212402,0,0
12771,2024 10 23,05:25:56.412,0.752227,-0.587711,-0.223421,-0.19706,0.122562,0.085452,0.718772,19.958496,-3.90625,367.858887,0,0
12772,2024 10 23,05:25:56.420,0.746406,-0.580337,-0.244619,-0.215052,-0.044923,0.062014,0.379406,34.240723,80.26123,317.504883,0,0
12773,2024 10 23,05:25:56.429,0.74078,-0.573051,-0.267889,-0.226038,-0.510758,0.399426,0.331065,54.870605,132.080078,271.789551,0,0
12774,2024 10 23,05:25:56.437,0.734332,-0.566701,-0.290576,-0.234888,-0.922391,0.640156,0.02588,39.123535,132.995605,253.601074,0,0
12775,2024 10 23,05:25:56.445,0.727237,-0.560519,-0.310528,-0.246001,-1.085971,0.788598,-0.046388,14.770508,89.72168,259.094238,0,0
12776,2024 10 23,05:25:56.454,0.727237,-0.560519,-0.310528,-0.246001,-1.085971,0.788598,-0.046388,14.770508,89.72168,259.094238,0,0
12777,2024 10 23,05:25:56.462,0.719061,-0.554494,-0.32762,-0.261062,-0.96878,0.653829,0.000488,-15.686035,47.729492,278.503418,0,0
12778,2024 10 23,05:25:56.470,0.709633,-0.548112,-0.343737,-0.278996,-0.69924,0.445326,0.116703,-28.991699,33.569336,303.100586,0,0
12779,2024 10 23,05:25:56.479,0.698556,-0.541245,-0.361538,-0.297261,-0.640156,0.309091,0.137211,-27.648926,58.532715,323.791504,0,0
12780,2024 10 23,05:25:56.487,0.685965,-0.533818,-0.38167,-0.314354,-0.827662,0.267586,0.138676,-18.371582,87.463379,333.984375,0,0
12781,2024 10 23,05:25:56.495,0.672172,-0.526,-0.403234,-0.330016,-1.097201,0.252937,0.049318,-12.451172,110.107422,335.632324,0,0
12782,2024 10 23,05:25:56.504,0.672172,-0.526,-0.403234,-0.330016,-1.097201,0.252937,0.049318,-12.451172,110.107422,335.632324,0,0
12783,2024 10 23,05:25:56.512,0.657528,-0.517771,-0.425205,-0.344631,-1.364299,0.273934,-0.048341,-8.789063,117.553711,334.350586,0,0
12784,2024 10 23,05:25:56.520,0.642461,-0.508907,-0.446359,-0.359196,-1.522996,0.242195,-0.107425,-11.413574,108.093262,333.740234,0,0
12785,2024 10 23,05:25:56.529,0.627182,-0.499409,-0.466106,-0.374137,-1.569872,0.182134,-0.136235,-15.930176,93.994141,332.641602,0,0
12786,2024 10 23,05:25:56.537,0.611576,-0.489472,-0.48464,-0.389251,-1.566942,0.092288,-0.139164,-20.690918,86.791992,331.359863,0,0
12787,2024 10 23,05:25:56.545,0.59518,-0.479566,-0.502422,-0.404165,-1.69097,0.034181,-0.156255,-28.747559,89.355469,330.078125,0,0
12788,2024 10 23,05:25:56.554,0.59518,-0.479566,-0.502422,-0.404165,-1.69097,0.034181,-0.156255,-28.747559,89.355469,330.078125,0,0
12789,2024 10 23,05:25:56.562,0.577707,-0.470106,-0.519226,-0.419117,-1.920469,-0.06592,-0.19776,-43.823242,89.477539,327.331543,0,0
12790,2024 10 23,05:25:56.570,0.559614,-0.461069,-0.534363,-0.4344,-2.030824,-0.256844,-0.110355,-60.180664,80.627441,321.350098,0,0
12791,2024 10 23,05:25:56.579,0.541164,-0.45255,-0.547775,-0.449758,-2.022034,-0.528336,-0.01709,-73.120117,75.317383,312.255859,0,0
12792,2024 10 23,05:25:56.587,0.522443,-0.444677,-0.560113,-0.464316,-2.011292,-0.778832,0.032716,-76.477051,80.01709,300.842285,0,0
12793,2024 10 23,05:25:56.595,0.503572,-0.437371,-0.571876,-0.477578,-2.086978,-1.001007,0.04297,-74.523926,86.486816,288.94043,0,0
12794,2024 10 23,05:25:56.604,0.485273,-0.430329,-0.582764,-0.489606,-2.134831,-1.215857,0.094729,-68.847656,82.641602,273.193359,0,0
12795,2024 10 23,05:25:56.612,0.485273,-0.430329,-0.582764,-0.489606,-2.134831,-1.215857,0.094729,-68.847656,82.641602,273.193359,0,0
12796,2024 10 23,05:25:56.620,0.468395,-0.423227,-0.592632,-0.500272,-2.105045,-1.362835,0.22364,-56.70166,72.44873,253.845215,0,0
12797,2024 10 23,05:25:56.629,0.453411,-0.415789,-0.601701,-0.509406,-2.0777,-1.473678,0.354991,-38.94043,59.509277,234.558105,0,0
12798,2024 10 23,05:25:56.637,0.440583,-0.407715,-0.610312,-0.51689,-1.947325,-1.549852,0.431654,-15.563965,46.142578,216.85791,0,0
12799,2024 10 23,05:25:56.645,0.429356,-0.399132,-0.619094,-0.52256,-1.739799,-1.587939,0.399915,7.202148,45.10498,204.528809,0,0
12800,2024 10 23,05:25:56.654,0.418783,-0.390407,-0.628742,-0.526201,-1.534715,-1.542528,0.259774,31.311035,55.480957,196.228027,0,0
12801,2024 10 23,05:25:56.662,0.418783,-0.390407,-0.628742,-0.526201,-1.534715,-1.542528,0.259774,31.311035,55.480957,196.228027,0,0
12802,2024 10 23,05:25:56.670,0.408621,-0.382255,-0.638956,-0.527868,-1.393597,-1.623096,0.071291,44.555664,68.54248,179.138184,0,0
12803,2024 10 23,05:25:56.679,0.399109,-0.375824,-0.64892,-0.527609,-1.414106,-1.956114,-0.147465,51.635742,83.557129,151.123047,0,0
12804,2024 10 23,05:25:56.687,0.390683,-0.37118,-0.658711,-0.525064,-1.640187,-2.204169,-0.348155,65.917969,92.956543,121.765137,0,0
12805,2024 10 23,05:25:56.695,0.384935,-0.367302,-0.667126,-0.5214,-1.764702,-2.472243,-0.41554,70.617676,68.42041,89.96582,0,0
12806,2024 10 23,05:25:56.704,0.384376,-0.367767,-0.674127,-0.512401,-3.743278,-2.230537,-1.939024,120.97168,90.393066,-37.353516,0,0
12807,2024 10 23,05:25:56.712,0.384376,-0.367767,-0.674127,-0.512401,-3.743278,-2.230537,-1.939024,120.97168,90.393066,-37.353516,0,0
12808,2024 10 23,05:25:56.720,0.399501,-0.367891,-0.665336,-0.512233,-2.651936,-3.369732,-0.608417,2.441406,-217.041016,-127.563477,0,0
12809,2024 10 23,05:25:56.729,0.423696,-0.368789,-0.649374,-0.512631,-2.012757,-3.162206,-1.515183,-25.878906,-250.183105,-216.064453,0,0
12810,2024 10 23,05:25:56.737,0.452451,-0.372641,-0.628924,-0.510765,-0.878933,-1.791559,-1.195837,30.944824,-294.921875,-280.273438,1,0
12811,2024 10 23,05:25:56.745,0.486042,-0.366054,-0.614862,-0.50171,-0.809595,2.347239,1.209998,166.931152,-294.86084,-239.013672,0,0
12812,2024 10 23,05:25:56.754,0.501764,-0.370775,-0.597724,-0.503472,-1.367718,1.511277,0.614765,-154.663086,-147.155762,-183.349609,0,0
12813,2024 10 23,05:25:56.762,0.501764,-0.370775,-0.597724,-0.503472,-1.367718,1.511277,0.614765,-154.663086,-147.155762,-183.349609,0,0
12814,2024 10 23,05:25:56.770,0.508378,-0.383992,-0.577554,-0.510424,-1.540574,-0.63332,-1.356975,-199.768066,-119.262695,-176.574707,0,0
12815,2024 10 23,05:25:56.779,0.517262,-0.391389,-0.563188,-0.511933,-1.24662,-0.505875,-0.478042,-72.998047,-88.195801,-137.939453,0,0
12816,2024 10 23,05:25:56.787,0.522339,-0.395718,-0.555824,-0.511496,-1.070833,-0.366222,-0.658223,-43.151855,-38.879395,-74.157715,0,0
12817,2024 10 23,05:25:56.795,0.526014,-0.397165,-0.551738,-0.511033,-0.887722,0.218268,-0.34669,6.103516,-33.14209,-46.020508,0,0
12818,2024 10 23,05:25:56.804,0.528603,-0.398229,-0.549969,-0.509437,-0.966338,0.34669,0.344249,-4.516602,-3.540039,-39.794922,0,0
12819,2024 10 23,05:25:56.812,0.528603,-0.398229,-0.549969,-0.509437,-0.966338,0.34669,0.344249,-4.516602,-3.540039,-39.794922,0,0
12820,2024 10 23,05:25:56.820,0.528773,-0.401914,-0.547239,-0.509306,-1.223182,-0.038575,0.064455,-43.884277,-1.953125,-36.987305,0,0
12821,2024 10 23,05:25:56.829,0.530887,-0.403344,-0.542715,-0.510816,-1.016633,-0.123539,-0.15186,-29.418945,-52.062988,-29.907227,0,0
12822,2024 10 23,05:25:56.837,0.534047,-0.402639,-0.5388,-0.512221,-0.874538,0.055177,-0.164068,-8.422852,-48.583984,-20.568848,0,0
12823,2024 10 23,05:25:56.845,0.536543,-0.401984,-0.536542,-0.512497,-1.013214,0.200201,-0.120121,2.01416,-31.555176,-19.592285,0,0
12824,2024 10 23,05:25:56.854,0.538928,-0.401634,-0.534114,-0.512804,-0.976592,0.189459,-0.145024,-4.577637,-33.203125,-22.338867,0,0
12825,2024 10 23,05:25:56.862,0.538928,-0.401634,-0.534114,-0.512804,-0.976592,0.189459,-0.145024,-4.577637,-33.203125,-22.338867,0,0
12826,2024 10 23,05:25:56.870,0.541038,-0.401733,-0.531672,-0.513044,-0.849147,0.146977,-0.312021,-6.835938,-25.45166,-23.132324,0,0
12827,2024 10 23,05:25:56.879,0.542613,-0.402423,-0.529871,-0.512702,-0.916044,0.192877,-0.152837,-5.615234,-9.338379,-24.597168,0,0
12828,2024 10 23,05:25:56.887,0.543296,-0.403934,-0.528867,-0.511826,-1.06888,0.15772,-0.121097,-7.995605,3.967285,-23.193359,0,0
12829,2024 10 23,05:25:56.895,0.544124,-0.405227,-0.527489,-0.511347,-0.997101,0.135258,-0.129887,-9.399414,-6.286621,-21.972656,0,0
12830,2024 10 23,05:25:56.904,0.545046,-0.406261,-0.52604,-0.511036,-0.984893,0.116214,-0.096194,-8.605957,-6.164551,-19.65332,0,0
12831,2024 10 23,05:25:56.912,0.545046,-0.406261,-0.52604,-0.511036,-0.984893,0.116214,-0.096194,-8.605957,-6.164551,-19.65332,0,0
12832,2024 10 23,05:25:56.920,0.545862,-0.407051,-0.524982,-0.510625,-1.001495,0.126469,-0.087405,-3.90625,-5.737305,-16.418457,0,0
12833,2024 10 23,05:25:56.929,0.546793,-0.407518,-0.52379,-0.510481,-0.958525,0.135258,-0.074221,-5.432129,-10.192871,-14.526367,0,0
12834,2024 10 23,05:25:56.937,0.54764,-0.408101,-0.522848,-0.510073,-0.986847,0.130863,-0.083987,-1.403809,-4.394531,-16.113281,0,0
12835,2024 10 23,05:25:56.945,0.54846,-0.408565,-0.52201,-0.509678,-0.978057,0.10303,-0.082034,-0.915527,-6.164551,-13.85498,0,0
12836,2024 10 23,05:25:56.954,0.549367,-0.408681,-0.521213,-0.509424,-0.940458,0.099612,-0.080081,-0.549316,-9.643555,-9.94873,0,0
12837,2024 10 23,05:25:56.962,0.549367,-0.408681,-0.521213,-0.509424,-0.940458,0.099612,-0.080081,-0.549316,-9.643555,-9.94873,0,0
12838,2024 10 23,05:25:56.970,0.550018,-0.408554,-0.520449,-0.509605,-0.999054,0.116214,-0.10303,-1.464844,-10.192871,-4.02832,0,0
12839,2024 10 23,05:25:56.979,0.550983,-0.408155,-0.520083,-0.509255,-0.966338,0.202643,-0.020997,6.286621,-10.375977,-8.728027,0,0
12840,2024 10 23,05:25:56.987,0.551598,-0.408206,-0.519147,-0.509502,-0.994659,0.159185,-0.136723,-5.371094,-9.460449,-6.835938,0,0
12841,2024 10 23,05:25:56.995,0.552419,-0.408565,-0.51864,-0.508842,-0.964385,0.168462,-0.065432,1.708984,-3.356934,-16.357422,0,0
12842,2024 10 23,05:25:57.004,0.553399,-0.409205,-0.517634,-0.508288,-0.950224,0.187017,-0.078127,-2.380371,-4.638672,-18.981934,0,0
12843,2024 10 23,05:25:57.012,0.554081,-0.41054,-0.516586,-0.507534,-0.956084,0.149907,-0.152837,-7.385254,2.197266,-23.742676,0,0
12844,2024 10 23,05:25:57.020,0.554081,-0.41054,-0.516586,-0.507534,-0.956084,0.149907,-0.152837,-7.385254,2.197266,-23.742676,0,0
12845,2024 10 23,05:25:57.029,0.554941,-0.412234,-0.515493,-0.506331,-0.959502,0.15772,-0.102054,-5.249023,3.967285,-29.663086,0,0
12846,2024 10 23,05:25:57.037,0.555812,-0.414422,-0.51423,-0.504871,-1.029328,0.137211,-0.129887,-8.972168,8.361816,-35.03418,0,0
12847,2024 10 23,05:25:57.045,0.557078,-0.416724,-0.51294,-0.50289,-0.981964,0.098636,-0.067873,-3.662109,4.394531,-41.381836,0,0
12848,2024 10 23,05:25:57.054,0.558836,-0.418884,-0.511365,-0.500744,-1.025422,0.138676,-0.152348,0.061035,2.685547,-45.349121,0,0
12849,2024 10 23,05:25:57.062,0.561027,-0.421007,-0.509355,-0.498557,-0.969756,0.064943,-0.102054,0.305176,-4.150391,-49.377441,0,0
12850,2024 10 23,05:25:57.070,0.561027,-0.421007,-0.509355,-0.498557,-0.969756,0.064943,-0.102054,0.305176,-4.150391,-49.377441,0,0
12851,2024 10 23,05:25:57.079,0.563616,-0.422798,-0.507483,-0.496024,-0.973174,0.047853,-0.062502,4.699707,-5.92041,-50.720215,0,0
12852,2024 10 23,05:25:57.087,0.566461,-0.424311,-0.505525,-0.493484,-0.948271,0.073244,-0.124516,8.605957,-9.94873,-51.147461,0,0
12853,2024 10 23,05:25:57.095,0.569507,-0.425618,-0.503312,-0.491109,-0.929228,0.042482,-0.116703,6.896973,-13.061523,-50.78125,0,0
12854,2024 10 23,05:25:57.104,0.572536,-0.426822,-0.501173,-0.488724,-0.93997,0.051759,-0.122562,8.850098,-13.61084,-50.109863,0,0
12855,2024 10 23,05:25:57.112,0.575588,-0.42792,-0.498896,-0.486504,-0.926298,0.037599,-0.111332,7.568359,-15.319824,-49.255371,0,0
12856,2024 10 23,05:25:57.120,0.575588,-0.42792,-0.498896,-0.486504,-0.926298,0.037599,-0.111332,7.568359,-15.319824,-49.255371,0,0
12857,2024 10 23,05:25:57.129,0.578553,-0.429041,-0.496645,-0.484298,-0.92288,0.055666,-0.178228,6.347656,-14.526367,-48.583984,0,0
12858,2024 10 23,05:25:57.137,0.581357,-0.430373,-0.494429,-0.48202,-0.972686,0.056154,-0.189459,5.126953,-10.864258,-49.865723,0,0
12859,2024 10 23,05:25:57.145,0.584178,-0.431836,-0.492244,-0.479531,-1.010285,0.049806,-0.12891,6.591797,-9.521484,-52.67334,0,0
12860,2024 10 23,05:25:57.154,0.587093,-0.4336,-0.49003,-0.476637,-1.056673,0.051759,-0.107425,6.958008,-6.713867,-57.922363,0,0
12861,2024 10 23,05:25:57.162,0.590233,-0.435536,-0.487632,-0.473443,-1.076205,0.011231,-0.098636,7.507324,-8.605957,-63.232422,0,0
12862,2024 10 23,05:25:57.170,0.590233,-0.435536,-0.487632,-0.473443,-1.076205,0.011231,-0.098636,7.507324,-8.605957,-63.232422,0,0
12863,2024 10 23,05:25:57.179,0.593866,-0.437401,-0.484991,-0.469881,-1.043977,0.056642,-0.114261,11.962891,-10.375977,-69.519043,0,0
12864,2024 10 23,05:25:57.187,0.597613,-0.43968,-0.482051,-0.466011,-1.041536,0.04297,-0.173833,7.93457,-8.728027,-76.11084,0,0
12865,2024 10 23,05:25:57.195,0.601419,-0.442439,-0.478957,-0.461673,-1.079134,0.083499,-0.214362,7.385254,-4.272461,-83.618164,0,0
12866,2024 10 23,05:25:57.204,0.605168,-0.445835,-0.475576,-0.45698,-1.111362,0.077151,-0.207038,1.647949,-1.037598,-90.698242,0,0
12867,2024 10 23,05:25:57.212,0.608926,-0.449903,-0.471853,-0.451832,-1.167516,0.094241,-0.199713,-2.01416,2.441406,-100.036621,0,0
12868,2024 10 23,05:25:57.220,0.608926,-0.449903,-0.471853,-0.451832,-1.167516,0.094241,-0.199713,-2.01416,2.441406,-100.036621,0,0
12869,2024 10 23,05:25:57.229,0.612818,-0.454653,-0.467471,-0.446336,-1.235389,0.094241,-0.150395,-7.8125,1.403809,-110.961914,0,0
12870,2024 10 23,05:25:57.237,0.617002,-0.460043,-0.462522,-0.440161,-1.290567,0.103519,-0.144536,-8.972168,2.258301,-124.389648,0,0
12871,2024 10 23,05:25:57.245,0.621739,-0.465979,-0.456718,-0.433259,-1.304239,0.081057,-0.082034,-9.58252,-0.671387,-140.441895,0,0
12872,2024 10 23,05:25:57.254,0.627112,-0.47254,-0.45006,-0.425302,-1.328654,0.110843,-0.091311,-10.253906,-0.793457,-160.27832,0,0
12873,2024 10 23,05:25:57.262,0.633054,-0.479936,-0.44249,-0.416061,-1.411664,0.093753,-0.18067,-9.70459,1.159668,-182.495117,0,0
12874,2024 10 23,05:25:57.270,0.633054,-0.479936,-0.44249,-0.416061,-1.411664,0.093753,-0.18067,-9.70459,1.159668,-182.495117,0,0
12875,2024 10 23,05:25:57.279,0.640215,-0.487587,-0.433978,-0.405026,-1.443403,0.124027,-0.141118,2.01416,-2.13623,-209.16748,0,0
12876,2024 10 23,05:25:57.287,0.648411,-0.495686,-0.424438,-0.39206,-1.551317,0.188482,-0.249031,6.408691,0.183105,-236.572266,0,0
12877,2024 10 23,05:25:57.295,0.657539,-0.504366,-0.413809,-0.376854,-1.681204,0.247566,-0.165532,15.563965,1.586914,-268.798828,0,0
12878,2024 10 23,05:25:57.304,0.667455,-0.513899,-0.40152,-0.359435,-1.934141,0.339366,-0.15772,13.549805,3.051758,-303.894043,0,0
12879,2024 10 23,05:25:57.312,0.677612,-0.524854,-0.387315,-0.339644,-2.293527,0.350108,-0.21778,6.408691,4.882813,-343.261719,0,0
12880,2024 10 23,05:25:57.320,0.677612,-0.524854,-0.387315,-0.339644,-2.293527,0.350108,-0.21778,6.408691,4.882813,-343.261719,0,0
12881,2024 10 23,05:25:57.329,0.688042,-0.53673,-0.370469,-0.318232,-2.49031,0.319834,-0.023927,-5.615234,-5.187988,-378.173828,0,0
12882,2024 10 23,05:25:57.337,0.697378,-0.550958,-0.350653,-0.295213,-2.8829,-0.020508,-0.090823,-35.339355,-3.845215,-414.428711,0,0
12883,2024 10 23,05:25:57.345,0.706239,-0.566028,-0.327415,-0.271362,-3.272073,0.239265,-0.199713,-57.312012,-30.212402,-442.810059,0,0
12884,2024 10 23,05:25:57.354,0.713851,-0.581134,-0.30004,-0.25035,-2.729087,-0.078616,-0.031739,-85.571289,-82.214355,-435.668945,0,0
12885,2024 10 23,05:25:57.362,0.720581,-0.594775,-0.272351,-0.229848,-2.358959,0.092776,0.086917,-63.598633,-67.382813,-429.260254,0,0
12886,2024 10 23,05:25:57.370,0.720581,-0.594775,-0.272351,-0.229848,-2.358959,0.092776,0.086917,-63.598633,-67.382813,-429.260254,0,0
12887,2024 10 23,05:25:57.379,0.727567,-0.606685,-0.244887,-0.206423,-2.121159,0.315439,0.448256,-53.161621,-58.105469,-451.782227,0,0
12888,2024 10 23,05:25:57.387,0.734452,-0.61727,-0.217376,-0.179737,-1.482955,0.264657,0.624531,-15.197754,-35.03418,-473.815918,0,0
12889,2024 10 23,05:25:57.395,0.741854,-0.624993,-0.191663,-0.149339,-0.741234,0.329112,0.777856,25.146484,5.493164,-479.553223,0,1
12890,2024 10 23,05:25:57.404,0.749288,-0.629139,-0.170727,-0.116634,-0.554704,0.33253,1.1348,64.086914,58.71582,-439.63623,0,0
12891,2024 10 23,05:25:57.412,0.755715,-0.63025,-0.15716,-0.083548,-1.090854,0.523942,0.540544,95.458984,119.873047,-381.958008,0,0
12892,2024 10 23,05:25:57.420,0.763633,-0.626324,-0.145959,-0.057257,-0.832057,0.699728,0.439955,135.864258,46.081543,-287.29248,0,0
12893,2024 10 23,05:25:57.429,0.763633,-0.626324,-0.145959,-0.057257,-0.832057,0.699728,0.439955,135.864258,46.081543,-287.29248,0,0
12894,2024 10 23,05:25:57.437,0.770216,-0.620086,-0.141761,-0.046525,-0.06006,1.764702,-0.625019,129.516602,25.939941,-57.250977,0,0
12895,2024 10 23,05:25:57.445,0.776422,-0.610157,-0.149074,-0.051527,-0.264657,1.966857,0.490738,96.923828,8.544922,154.418945,0,0
12896,2024 10 23,05:25:57.454,0.776337,-0.604404,-0.164533,-0.070175,-0.829127,1.170934,-0.328135,15.869141,-1.708984,313.476563,0,0
12897,2024 10 23,05:25:57.462,0.774893,-0.597593,-0.181439,-0.097486,-0.68508,0.65041,0.291513,11.59668,-52.062988,380.371094,0,0
12898,2024 10 23,05:25:57.470,0.771737,-0.590379,-0.199862,-0.126215,-0.456557,0.347179,0.344249,0.976563,-27.709961,397.705078,0,0
12899,2024 10 23,05:25:57.479,0.771737,-0.590379,-0.199862,-0.126215,-0.456557,0.347179,0.344249,0.976563,-27.709961,397.705078,0,0
12900,2024 10 23,05:25:57.487,0.767661,-0.582666,-0.219055,-0.152354,-0.138676,0.206549,0.39552,12.939453,-4.699707,373.840332,0,0
12901,2024 10 23,05:25:57.495,0.763169,-0.575023,-0.238787,-0.172925,-0.176275,0.168462,0.50441,24.658203,48.278809,326.538086,0,0
12902,2024 10 23,05:25:57.504,0.758037,-0.568088,-0.259784,-0.187533,-0.517594,0.210456,0.333506,31.738281,94.482422,283.874512,0,0
12903,2024 10 23,05:25:57.512,0.752753,-0.561381,-0.279977,-0.199565,-0.723655,0.416517,0.183599,31.005859,94.787598,259.521484,0,0
12904,2024 10 23,05:25:57.520,0.746942,-0.554961,-0.298495,-0.212123,-0.926298,0.591327,0.070803,15.808105,76.477051,257.202148,0,0
12905,2024 10 23,05:25:57.529,0.746942,-0.554961,-0.298495,-0.212123,-0.926298,0.591327,0.070803,15.808105,76.477051,257.202148,0,0
12906,2024 10 23,05:25:57.537,0.740317,-0.548815,-0.315,-0.226954,-1.014679,0.594745,0.063478,-6.652832,44.433594,265.74707,0,0
12907,2024 10 23,05:25:57.545,0.732883,-0.542635,-0.329445,-0.244736,-0.80813,0.463393,0.160649,-25.390625,14.282227,282.226563,0,0
12908,2024 10 23,05:25:57.554,0.724268,-0.536173,-0.343995,-0.263858,-0.667501,0.319346,0.236824,-31.37207,19.40918,299.377441,0,0
12909,2024 10 23,05:25:57.562,0.714297,-0.529421,-0.360067,-0.282568,-0.657735,0.256844,0.273934,-28.869629,42.053223,309.631348,0,0
12910,2024 10 23,05:25:57.570,0.702861,-0.522564,-0.377983,-0.30007,-0.764672,0.249031,0.23487,-26.428223,70.861816,315.673828,0,0
12911,2024 10 23,05:25:57.579,0.702861,-0.522564,-0.377983,-0.30007,-0.764672,0.249031,0.23487,-26.428223,70.861816,315.673828,0,0
12912,2024 10 23,05:25:57.587,0.690024,-0.515656,-0.397264,-0.31646,-0.998566,0.299814,0.173345,-26.184082,91.85791,319.030762,0,0
12913,2024 10 23,05:25:57.595,0.67592,-0.508852,-0.416824,-0.332354,-1.22074,0.312998,0.102542,-33.26416,100.097656,319.335938,0,0
12914,2024 10 23,05:25:57.604,0.660835,-0.502254,-0.435522,-0.348365,-1.328654,0.269539,0.06299,-45.10498,95.458984,317.504883,0,0
12915,2024 10 23,05:25:57.612,0.645017,-0.495668,-0.453065,-0.364689,-1.364788,0.206061,0.07178,-54.870605,89.355469,316.955566,0,0
12916,2024 10 23,05:25:57.620,0.628408,-0.488886,-0.469978,-0.38107,-1.419965,0.158208,0.100589,-59.326172,89.050293,319.580078,0,0
12917,2024 10 23,05:25:57.629,0.628408,-0.488886,-0.469978,-0.38107,-1.419965,0.158208,0.100589,-59.326172,89.050293,319.580078,0,0
12918,2024 10 23,05:25:57.637,0.611086,-0.481558,-0.486634,-0.39732,-1.526414,0.109378,0.126957,-58.410645,89.172363,324.09668,0,0
12919,2024 10 23,05:25:57.645,0.593364,-0.473278,-0.503193,-0.413188,-1.633351,0.072268,0.171392,-50.78125,88.012695,328.491211,0,0
12920,2024 10 23,05:25:57.654,0.575464,-0.463789,-0.519777,-0.428453,-1.762749,0.027345,0.202643,-38.757324,86.608887,332.824707,0,0
12921,2024 10 23,05:25:57.662,0.557549,-0.452908,-0.536482,-0.442945,-1.868709,-0.051759,0.199713,-23.803711,84.533691,337.890625,0,0
12922,2024 10 23,05:25:57.670,0.539631,-0.440586,-0.553521,-0.456395,-2.004456,-0.195318,0.222175,-5.554199,86.303711,342.590332,0,0
12923,2024 10 23,05:25:57.679,0.539631,-0.440586,-0.553521,-0.456395,-2.004456,-0.195318,0.222175,-5.554199,86.303711,342.590332,0,0
12924,2024 10 23,05:25:57.687,0.521872,-0.42699,-0.570778,-0.468554,-2.105045,-0.383312,0.202155,11.779785,85.083008,343.017578,0,0
12925,2024 10 23,05:25:57.695,0.504678,-0.412427,-0.587861,-0.47919,-2.122623,-0.537614,0.209967,28.930664,83.190918,336.303711,0,0
12926,2024 10 23,05:25:57.704,0.487956,-0.397483,-0.60464,-0.488177,-2.130436,-0.595721,0.225593,41.503906,85.266113,326.171875,0,0
12927,2024 10 23,05:25:57.712,0.471349,-0.382585,-0.621018,-0.495778,-2.20954,-0.597674,0.298837,47.180176,88.745117,316.40625,0,0
12928,2024 10 23,05:25:57.720,0.454791,-0.368217,-0.636402,-0.502567,-2.227119,-0.783227,0.36964,41.381836,88.806152,303.588867,0,0
12929,2024 10 23,05:25:57.729,0.454791,-0.368217,-0.636402,-0.502567,-2.227119,-0.783227,0.36964,41.381836,88.806152,303.588867,0,0
12930,2024 10 23,05:25:57.737,0.43829,-0.355008,-0.650715,-0.508371,-2.178777,-1.173376,0.482437,37.231445,95.947266,285.217285,0,0
12931,2024 10 23,05:25:57.745,0.421851,-0.343932,-0.664069,-0.512605,-2.115299,-1.686087,0.520035,31.982422,110.351563,257.141113,0,0
12932,2024 10 23,05:25:57.754,0.405914,-0.335723,-0.676353,-0.51485,-1.846248,-2.202216,0.202643,29.23584,127.502441,218.62793,0,0
12933,2024 10 23,05:25:57.762,0.39091,-0.331136,-0.687865,-0.514178,-1.205115,-2.529862,-0.417493,38.330078,152.893066,165.222168,0,0
12934,2024 10 23,05:25:57.770,0.375727,-0.334331,-0.698659,-0.508849,-3.662221,-3.257424,-1.884823,32.836914,246.09375,66.52832,0,0
12935,2024 10 23,05:25:57.779,0.375727,-0.334331,-0.698659,-0.508849,-3.662221,-3.257424,-1.884823,32.836914,246.09375,66.52832,0,0
12936,2024 10 23,05:25:57.787,0.36663,-0.345233,-0.700955,-0.505033,-4.26429,-4.461562,-2.744224,-55.175781,112.365723,-37.902832,0,0
12937,2024 10 23,05:25:57.795,0.377312,-0.352506,-0.691206,-0.505578,-3.639271,-4.516251,-1.905332,-64.758301,-121.276855,-157.775879,0,0
12938,2024 10 23,05:25:57.804,0.401928,-0.360577,-0.669591,-0.509987,-2.484451,-3.712027,-1.783257,-81.90918,-279.846191,-274.230957,0,0
12939,2024 10 23,05:25:57.812,0.436095,-0.364177,-0.646441,-0.509224,-1.043977,-0.289071,0.187994,23.620605,-355.712891,-300.109863,1,0
12940,2024 10 23,05:25:57.820,0.465402,-0.362452,-0.630532,-0.504438,-1.308634,2.584552,1.280801,25.32959,-266.967773,-230.834961,0,0
12941,2024 10 23,05:25:57.829,0.478594,-0.373087,-0.608027,-0.511916,-1.241249,1.003449,-0.069338,-239.501953,-170.715332,-212.463379,0,0
12942,2024 10 23,05:25:57.837,0.478594,-0.373087,-0.608027,-0.511916,-1.241249,1.003449,-0.069338,-239.501953,-170.715332,-212.463379,0,0
12943,2024 10 23,05:25:57.845,0.48885,-0.387498,-0.583848,-0.519608,-1.23246,-0.486343,-1.519578,-207.519531,-143.615723,-228.33252,0,0
12944,2024 10 23,05:25:57.854,0.498063,-0.398825,-0.567904,-0.519958,-1.530808,-0.776879,-1.167028,-82.580566,-56.884766,-182.128906,0,0
12945,2024 10 23,05:25:57.862,0.505004,-0.40495,-0.559464,-0.517673,-1.360881,-0.401868,-0.533219,-32.653809,-37.658691,-106.506348,0,0
12946,2024 10 23,05:25:57.870,0.509544,-0.407466,-0.554945,-0.516113,-1.057161,0.235847,-0.224128,3.234863,-28.503418,-63.354492,0,0
12947,2024 10 23,05:25:57.879,0.512398,-0.409414,-0.553275,-0.513532,-1.171422,0.433119,0.396985,0.183105,5.493164,-49.804688,0,0
12948,2024 10 23,05:25:57.887,0.512398,-0.409414,-0.553275,-0.513532,-1.171422,0.433119,0.396985,0.183105,5.493164,-49.804688,0,0
12949,2024 10 23,05:25:57.895,0.513593,-0.413248,-0.549645,-0.513166,-1.16068,0.062014,-0.034181,-45.471191,-18.798828,-52.124023,0,0
12950,2024 10 23,05:25:57.904,0.516755,-0.415305,-0.543405,-0.514972,-0.970244,-0.141118,-0.007324,-42.175293,-57.861328,-46.386719,0,0
12951,2024 10 23,05:25:57.912,0.519953,-0.415791,-0.539329,-0.515646,-1.146519,-0.008301,0.022462,-9.765625,-41.259766,-31.921387,0,0
12952,2024 10 23,05:25:57.920,0.523759,-0.414646,-0.535643,-0.516558,-1.055208,0.108402,-0.06592,-2.746582,-65.307617,-26.123047,0,0
12953,2024 10 23,05:25:57.929,0.527669,-0.412895,-0.531215,-0.518549,-0.950224,0.118656,-0.087405,-9.70459,-66.833496,-19.470215,0,0
12954,2024 10 23,05:25:57.937,0.527669,-0.412895,-0.531215,-0.518549,-0.950224,0.118656,-0.087405,-9.70459,-66.833496,-19.470215,0,0
12955,2024 10 23,05:25:57.945,0.530837,-0.41139,-0.527803,-0.519995,-0.920438,0.247078,-0.167486,-4.455566,-54.260254,-17.333984,0,0
12956,2024 10 23,05:25:57.954,0.533293,-0.410616,-0.524153,-0.521782,-0.82815,0.161626,-0.244148,-20.751953,-45.776367,-16.174316,0,0
12957,2024 10 23,05:25:57.962,0.53456,-0.410777,-0.521405,-0.52311,-0.923856,0.141606,-0.206061,-16.601563,-24.047852,-13.427734,0,0
12958,2024 10 23,05:25:57.970,0.535638,-0.411037,-0.519452,-0.523747,-0.996612,0.221686,-0.058107,-13.122559,-19.40918,-13.85498,0,0
12959,2024 10 23,05:25:57.979,0.536468,-0.411676,-0.516856,-0.524962,-0.939482,0.145512,-0.153325,-25.20752,-24.291992,-14.160156,0,0
12960,2024 10 23,05:25:57.987,0.536468,-0.411676,-0.516856,-0.524962,-0.939482,0.145512,-0.153325,-25.20752,-24.291992,-14.160156,0,0
12961,2024 10 23,05:25:57.995,0.537351,-0.41223,-0.514204,-0.526227,-0.905789,0.079104,-0.219733,-21.30127,-23.010254,-12.939453,0,0
12962,2024 10 23,05:25:58.004,0.538439,-0.412627,-0.512274,-0.526686,-0.896512,0.100589,-0.192877,-8.056641,-16.113281,-15.563965,0,0
12963,2024 10 23,05:25:58.012,0.539651,-0.412894,-0.510705,-0.52676,-0.89114,0.140141,-0.109867,-8.056641,-14.465332,-16.113281,0,0
12964,2024 10 23,05:25:58.020,0.540193,-0.413564,-0.509378,-0.526963,-0.888211,0.08301,-0.182623,-9.70459,-6.408691,-11.047363,0,0
12965,2024 10 23,05:25:58.029,0.540555,-0.413922,-0.508321,-0.527331,-0.873562,0.088382,-0.16895,-8.850098,-8.178711,-5.67627,0,0
12966,2024 10 23,05:25:58.037,0.540555,-0.413922,-0.508321,-0.527331,-0.873562,0.088382,-0.16895,-8.850098,-8.178711,-5.67627,0,0
12967,2024 10 23,05:25:58.045,0.540576,-0.414218,-0.507667,-0.527707,-0.944853,0.104984,-0.110355,-7.8125,-2.319336,-1.342773,0,0
12968,2024 10 23,05:25:58.054,0.540714,-0.414455,-0.50745,-0.527589,-0.989776,0.129887,-0.000488,-0.915527,-1.953125,-5.249023,0,0
12969,2024 10 23,05:25:58.062,0.541078,-0.414524,-0.506799,-0.527786,-1.031281,0.125004,-0.06885,-3.112793,-7.507324,-5.004883,0,0
12970,2024 10 23,05:25:58.070,0.54197,-0.414263,-0.506003,-0.52784,-0.973174,0.163091,-0.092776,1.89209,-15.319824,-8.483887,0,0
12971,2024 10 23,05:25:58.079,0.543051,-0.413951,-0.504864,-0.528065,-0.927274,0.187017,-0.115726,-1.525879,-14.282227,-9.521484,0,0
12972,2024 10 23,05:25:58.087,0.543051,-0.413951,-0.504864,-0.528065,-0.927274,0.187017,-0.115726,-1.525879,-14.282227,-9.521484,0,0
12973,2024 10 23,05:25:58.095,0.54369,-0.414223,-0.503888,-0.528127,-0.946806,0.132328,-0.142094,-6.652832,-7.873535,-9.94873,0,0
12974,2024 10 23,05:25:58.104,0.544412,-0.41455,-0.502973,-0.527998,-0.974639,0.188482,-0.159673,-1.831055,-6.774902,-13.000488,0,0
12975,2024 10 23,05:25:58.112,0.545292,-0.41509,-0.501743,-0.527837,-0.896023,0.141606,-0.094729,-8.300781,-8.178711,-16.540527,0,0
12976,2024 10 23,05:25:58.120,0.545845,-0.416118,-0.500666,-0.527477,-0.985382,0.115238,-0.150884,-7.568359,-0.732422,-16.845703,0,0
12977,2024 10 23,05:25:58.129,0.546708,-0.417012,-0.499678,-0.526815,-0.952178,0.165532,-0.175298,-2.075195,-3.845215,-21.118164,0,0
12978,2024 10 23,05:25:58.137,0.546708,-0.417012,-0.499678,-0.526815,-0.952178,0.165532,-0.175298,-2.075195,-3.845215,-21.118164,0,0
12979,2024 10 23,05:25:58.145,0.547697,-0.418054,-0.498341,-0.526227,-0.973662,0.099124,-0.121097,-6.591797,-2.807617,-22.338867,0,0
12980,2024 10 23,05:25:58.154,0.548802,-0.419055,-0.497339,-0.525227,-0.939482,0.110843,-0.178716,-1.77002,-4.516602,-24.475098,0,0
12981,2024 10 23,05:25:58.162,0.550178,-0.419907,-0.496006,-0.524366,-0.957549,0.115238,-0.129887,-0.183105,-4.272461,-25.085449,0,0
12982,2024 10 23,05:25:58.170,0.551417,-0.420917,-0.494943,-0.523258,-0.954131,0.074221,-0.155766,-1.403809,-4.699707,-26.123047,0,0
12983,2024 10 23,05:25:58.179,0.553078,-0.421519,-0.49365,-0.522242,-0.940947,0.115726,-0.10596,4.02832,-8.178711,-25.939941,0,0
12984,2024 10 23,05:25:58.187,0.55456,-0.422254,-0.492453,-0.521205,-0.973662,0.063967,-0.156255,-0.183105,-7.629395,-25.817871,0,0
12985,2024 10 23,05:25:58.195,0.55456,-0.422254,-0.492453,-0.521205,-0.973662,0.063967,-0.156255,-0.183105,-7.629395,-25.817871,0,0
12986,2024 10 23,05:25:58.204,0.556385,-0.422714,-0.491117,-0.520148,-0.924345,0.10303,-0.160161,6.713867,-11.169434,-27.22168,0,0
12987,2024 10 23,05:25:58.212,0.558246,-0.423161,-0.489846,-0.518987,-0.943876,0.074221,-0.138188,4.211426,-9.94873,-27.282715,0,0
12988,2024 10 23,05:25:58.220,0.560194,-0.423515,-0.488595,-0.517776,-0.938505,0.094241,-0.182134,6.713867,-11.535645,-27.832031,0,0
12989,2024 10 23,05:25:58.229,0.562167,-0.423919,-0.487306,-0.51652,-0.96292,0.103519,-0.173833,6.591797,-9.94873,-28.991699,0,0
12990,2024 10 23,05:25:58.237,0.564192,-0.424477,-0.486064,-0.515022,-1.034211,0.114261,-0.165532,6.469727,-8.605957,-32.104492,0,0
12991,2024 10 23,05:25:58.245,0.564192,-0.424477,-0.486064,-0.515022,-1.034211,0.114261,-0.165532,6.469727,-8.605957,-32.104492,0,0
12992,2024 10 23,05:25:58.254,0.566438,-0.425118,-0.48459,-0.513415,-1.000031,0.096683,-0.136723,6.958008,-11.413574,-35.705566,0,0
12993,2024 10 23,05:25:58.262,0.568847,-0.425879,-0.482956,-0.511657,-0.998566,0.090823,-0.150884,7.263184,-10.498047,-39.18457,0,0
12994,2024 10 23,05:25:58.270,0.571431,-0.426771,-0.481279,-0.509611,-1.001984,0.089846,-0.173345,7.629395,-10.375977,-42.84668,0,0
12995,2024 10 23,05:25:58.279,0.574156,-0.42781,-0.479419,-0.507425,-1.016633,0.095706,-0.197272,7.93457,-10.070801,-46.447754,0,0
12996,2024 10 23,05:25:58.287,0.577004,-0.429067,-0.477476,-0.50496,-1.054231,0.095218,-0.173345,7.385254,-8.850098,-50.842285,0,0
12997,2024 10 23,05:25:58.295,0.577004,-0.429067,-0.477476,-0.50496,-1.054231,0.095218,-0.173345,7.385254,-8.850098,-50.842285,0,0
12998,2024 10 23,05:25:58.304,0.580073,-0.430576,-0.475353,-0.502155,-1.103061,0.099612,-0.152837,8.178711,-8.605957,-57.250977,0,0
12999,2024 10 23,05:25:58.312,0.583397,-0.432325,-0.472835,-0.499169,-1.129917,0.088382,-0.141118,6.469727,-10.742188,-63.171387,0,0
13000,2024 10 23,05:25:58.320,0.587172,-0.434259,-0.469947,-0.495779,-1.153355,0.101077,-0.121586,7.385254,-13.000488,-71.777344,0,0
13001,2024 10 23,05:25:58.329,0.591303,-0.436529,-0.466549,-0.492072,-1.158727,0.126957,-0.172369,5.004883,-14.892578,-80.627441,0,0
13002,2024 10 23,05:25:58.337,0.595767,-0.439237,-0.462512,-0.488073,-1.197791,0.119144,-0.205084,1.77002,-15.991211,-90.637207,0,0
13003,2024 10 23,05:25:58.345,0.595767,-0.439237,-0.462512,-0.488073,-1.197791,0.119144,-0.205084,1.77002,-15.991211,-90.637207,0,0
13004,2024 10 23,05:25:58.353,0.600716,-0.442309,-0.457897,-0.483562,-1.195837,0.115238,-0.172857,1.342773,-18.737793,-101.989746,0,0
13005,2024 10 23,05:25:58.362,0.605907,-0.44606,-0.452735,-0.478476,-1.257851,0.122074,-0.216803,-2.258301,-15.441895,-113.952637,0,0
13006,2024 10 23,05:25:58.370,0.611613,-0.450345,-0.446822,-0.472725,-1.282754,0.160161,-0.199225,-4.150391,-19.165039,-128.967285,0,0
13007,2024 10 23,05:25:58.378,0.617815,-0.455268,-0.440068,-0.466236,-1.310587,0.186041,-0.183599,-7.324219,-18.859863,-145.019531,0,0
13008,2024 10 23,05:25:58.387,0.6243,-0.461102,-0.432596,-0.458797,-1.420942,0.202155,-0.262703,-10.253906,-14.953613,-162.536621,0,0
13009,2024 10 23,05:25:58.395,0.6243,-0.461102,-0.432596,-0.458797,-1.420942,0.202155,-0.262703,-10.253906,-14.953613,-162.536621,0,0
13010,2024 10 23,05:25:58.403,0.631678,-0.467424,-0.424344,-0.449922,-1.511277,0.226081,-0.185553,-4.516602,-16.357422,-186.096191,0,0
13011,2024 10 23,05:25:58.412,0.640075,-0.474409,-0.414907,-0.439423,-1.594775,0.267098,-0.182134,-3.479004,-17.822266,-213.989258,0,0
13012,2024 10 23,05:25:58.420,0.649657,-0.481977,-0.404148,-0.426976,-1.734428,0.279305,-0.124027,2.746582,-20.324707,-245.666504,0,0
13013,2024 10 23,05:25:58.428,0.660367,-0.490102,-0.391998,-0.412375,-1.850642,0.360851,-0.10889,7.507324,-21.911621,-278.747559,0,0
13014,2024 10 23,05:25:58.437,0.671872,-0.499107,-0.377787,-0.395926,-2.009827,0.385754,-0.075686,-1.220703,-26.367188,-312.744141,0,0
13015,2024 10 23,05:25:58.445,0.671872,-0.499107,-0.377787,-0.395926,-2.009827,0.385754,-0.075686,-1.220703,-26.367188,-312.744141,0,0
13016,2024 10 23,05:25:58.453,0.683359,-0.509439,-0.36153,-0.377874,-2.313547,0.401379,-0.254402,-14.099121,-27.770996,-342.163086,0,0
13017,2024 10 23,05:25:58.462,0.69464,-0.520923,-0.342299,-0.359092,-2.322336,0.250984,0.080081,-36.254883,-43.395996,-368.347168,0,0
13018,2024 10 23,05:25:58.470,0.70462,-0.534037,-0.320914,-0.3396,-2.333567,0.032716,-0.052248,-59.265137,-43.701172,-387.023926,0,0
13019,2024 10 23,05:25:58.478,0.713868,-0.547522,-0.297508,-0.319532,-2.736412,0.126469,-0.462416,-76.049805,-50.90332,-400.512695,0,0
13020,2024 10 23,05:25:58.487,0.723481,-0.559279,-0.271381,-0.300223,-2.043031,-0.025391,-0.088382,-62.62207,-99.304199,-408.02002,0,0
13021,2024 10 23,05:25:58.495,0.723481,-0.559279,-0.271381,-0.300223,-2.043031,-0.025391,-0.088382,-62.62207,-99.304199,-408.02002,0,0
13022,2024 10 23,05:25:58.503,0.732175,-0.57042,-0.245631,-0.279653,-1.736869,0.202155,-0.017579,-46.936035,-57.617188,-409.484863,0,0
13023,2024 10 23,05:25:58.512,0.741613,-0.579801,-0.220193,-0.255647,-1.449263,0.265145,0.272469,-31.799316,-57.128906,-439.819336,0,0
13024,2024 10 23,05:25:58.520,0.750925,-0.587954,-0.19516,-0.228766,-1.153844,0.242195,0.439955,-6.774902,-25.817871,-449.401855,0,1
13025,2024 10 23,05:25:58.528,0.75932,-0.59464,-0.173086,-0.199691,-0.814966,0.250984,0.188971,15.380859,8.911133,-437.927246,0,0
13026,2024 10 23,05:25:58.537,0.76817,-0.597389,-0.153891,-0.171346,-0.888699,0.267586,0.636738,52.429199,17.333984,-394.042969,0,0
13027,2024 10 23,05:25:58.545,0.76817,-0.597389,-0.153891,-0.171346,-0.888699,0.267586,0.636738,52.429199,17.333984,-394.042969,0,0
13028,2024 10 23,05:25:58.553,0.775929,-0.597318,-0.139597,-0.147165,-0.425306,1.499557,-0.704123,78.491211,19.897461,-307.128906,0,0
13029,2024 10 23,05:25:58.562,0.784393,-0.59098,-0.128566,-0.137628,-0.015137,1.224158,0.865749,73.242188,-65.612793,-107.543945,0,0
13030,2024 10 23,05:25:58.570,0.787671,-0.583772,-0.13728,-0.141207,-0.379894,1.572802,-0.479507,117.736816,49.499512,149.169922,0,0
13031,2024 10 23,05:25:58.578,0.788791,-0.574545,-0.150915,-0.157895,-0.685568,1.325236,0.667501,72.631836,-10.192871,275.695801,0,0
13032,2024 10 23,05:25:58.587,0.785595,-0.567827,-0.168118,-0.179306,-0.649434,0.580584,0.057131,25.32959,3.417969,325.073242,0,0
13033,2024 10 23,05:25:58.595,0.782632,-0.559797,-0.184032,-0.200614,0.046388,0.550798,0.603534,47.912598,-4.943848,306.945801,0,0
13034,2024 10 23,05:25:58.603,0.782632,-0.559797,-0.184032,-0.200614,0.046388,0.550798,0.603534,47.912598,-4.943848,306.945801,0,0
13035,2024 10 23,05:25:58.612,0.777891,-0.554284,-0.201208,-0.217188,0.158208,0.365734,0.367687,19.470215,63.476563,270.324707,0,0
13036,2024 10 23,05:25:58.620,0.772248,-0.550594,-0.220423,-0.2278,-0.173833,0.436048,0.319346,22.460938,118.469238,228.759766,0,0
13037,2024 10 23,05:25:58.628,0.765545,-0.548569,-0.240432,-0.234958,-0.54738,0.656758,0.194342,2.929688,146.972656,204.956055,0,0
13038,2024 10 23,05:25:58.637,0.757281,-0.548245,-0.259251,-0.242366,-0.776391,0.761742,-0.001465,-25.817871,133.544922,202.148438,0,0
13039,2024 10 23,05:25:58.645,0.747694,-0.548629,-0.276113,-0.25243,-0.886258,0.743675,0.060549,-55.969238,103.942871,217.956543,0,0
13040,2024 10 23,05:25:58.653,0.747694,-0.548629,-0.276113,-0.25243,-0.886258,0.743675,0.060549,-55.969238,103.942871,217.956543,0,0
13041,2024 10 23,05:25:58.662,0.736701,-0.549241,-0.291347,-0.265939,-0.743675,0.50441,0.082522,-78.430176,73.852539,241.516113,0,0
13042,2024 10 23,05:25:58.670,0.724815,-0.549217,-0.306394,-0.281293,-0.564959,0.273934,0.175787,-79.467773,70.617676,261.047363,0,0
13043,2024 10 23,05:25:58.678,0.712151,-0.548408,-0.323155,-0.296076,-0.551286,0.097659,0.186529,-66.52832,92.834473,271.30127,0,0
13044,2024 10 23,05:25:58.687,0.699078,-0.546572,-0.342058,-0.309103,-0.671407,0.015137,0.142582,-44.98291,120.483398,275.085449,0,0
13045,2024 10 23,05:25:58.695,0.685697,-0.543611,-0.36301,-0.320203,-0.961943,0.053713,-0.002441,-24.169922,144.287109,277.587891,0,0
13046,2024 10 23,05:25:58.703,0.685697,-0.543611,-0.36301,-0.320203,-0.961943,0.053713,-0.002441,-24.169922,144.287109,277.587891,0,0
13047,2024 10 23,05:25:58.712,0.672248,-0.539464,-0.384512,-0.33047,-1.258339,0.077639,-0.151372,-13.183594,143.249512,278.381348,0,0
13048,2024 10 23,05:25:58.720,0.65906,-0.534012,-0.405009,-0.341232,-1.409711,0.054201,-0.282235,-9.216309,123.474121,280.761719,0,0
13049,2024 10 23,05:25:58.728,0.646178,-0.527309,-0.424033,-0.352981,-1.462935,-0.014161,-0.312021,-8.972168,100.708008,284.240723,0,0
13050,2024 10 23,05:25:58.737,0.633507,-0.519548,-0.441733,-0.365528,-1.469771,-0.092776,-0.320322,-9.338379,82.214355,286.621094,0,0
13051,2024 10 23,05:25:58.745,0.621013,-0.51091,-0.458403,-0.378392,-1.47026,-0.161138,-0.264168,-6.652832,70.068359,286.621094,0,0
13052,2024 10 23,05:25:58.753,0.621013,-0.51091,-0.458403,-0.378392,-1.47026,-0.161138,-0.264168,-6.652832,70.068359,286.621094,0,0
13053,2024 10 23,05:25:58.762,0.608682,-0.501546,-0.474428,-0.390993,-1.475631,-0.191412,-0.223151,-1.098633,64.453125,284.240723,0,0
13054,2024 10 23,05:25:58.770,0.596434,-0.49151,-0.490242,-0.402923,-1.526902,-0.178228,-0.163091,7.446289,64.208984,282.348633,0,0
13055,2024 10 23,05:25:58.778,0.584203,-0.480765,-0.50599,-0.414182,-1.612354,-0.158208,-0.137211,15.686035,63.537598,281.982422,0,0
13056,2024 10 23,05:25:58.787,0.572037,-0.469311,-0.521432,-0.425005,-1.673391,-0.155278,-0.108402,21.118164,59.387207,281.188965,0,0
13057,2024 10 23,05:25:58.795,0.559913,-0.457355,-0.536393,-0.435438,-1.691946,-0.186529,-0.079104,24.291992,55.847168,278.808594,0,0
13058,2024 10 23,05:25:58.803,0.559913,-0.457355,-0.536393,-0.435438,-1.691946,-0.186529,-0.079104,24.291992,55.847168,278.808594,0,0
13059,2024 10 23,05:25:58.812,0.54778,-0.445206,-0.550818,-0.44534,-1.68804,-0.231941,-0.027345,25.390625,55.053711,273.803711,0,0
13060,2024 10 23,05:25:58.820,0.535386,-0.433195,-0.564804,-0.454642,-1.676321,-0.287118,-0.001465,24.841309,58.776855,269.53125,0,0
13061,2024 10 23,05:25:58.828,0.522485,-0.421237,-0.578819,-0.463181,-1.726615,-0.285653,0.075686,27.404785,67.138672,268.615723,0,0
13062,2024 10 23,05:25:58.837,0.509056,-0.409513,-0.592557,-0.471208,-1.796442,-0.335948,0.102054,23.803711,70.678711,264.709473,0,0
13063,2024 10 23,05:25:58.845,0.495538,-0.398317,-0.605497,-0.478706,-1.797418,-0.434095,0.142094,19.775391,72.021484,253.967285,0,0
13064,2024 10 23,05:25:58.853,0.495538,-0.398317,-0.605497,-0.478706,-1.797418,-0.434095,0.142094,19.775391,72.021484,253.967285,0,0
13065,2024 10 23,05:25:58.862,0.482033,-0.387908,-0.617682,-0.485429,-1.759331,-0.568377,0.131352,16.784668,76.049805,241.394043,0,0
13066,2024 10 23,05:25:58.870,0.468618,-0.378331,-0.629238,-0.491245,-1.719291,-0.73928,0.105472,15.686035,81.115723,227.905273,0,0
13067,2024 10 23,05:25:58.878,0.455393,-0.369712,-0.640254,-0.49599,-1.682669,-0.887722,0.028809,16.601563,87.280273,212.585449,0,0
13068,2024 10 23,05:25:58.887,0.442507,-0.362057,-0.650683,-0.499714,-1.645558,-0.98294,-0.099124,16.845703,91.674805,196.533203,0,0
13069,2024 10 23,05:25:58.895,0.430136,-0.355491,-0.66024,-0.502685,-1.626026,-1.066439,-0.2378,12.451172,92.041016,177.67334,0,0
13070,2024 10 23,05:25:58.903,0.430136,-0.355491,-0.66024,-0.502685,-1.626026,-1.066439,-0.2378,12.451172,92.041016,177.67334,0,0
13071,2024 10 23,05:25:58.912,0.418753,-0.350175,-0.668317,-0.505348,-1.493698,-1.179235,-0.377941,3.967285,85.083008,154.541016,0,0
13072,2024 10 23,05:25:58.920,0.40823,-0.346279,-0.674945,-0.507827,-1.494186,-1.474654,-0.470717,-7.324219,83.557129,133.666992,0,0
13073,2024 10 23,05:25:58.928,0.398473,-0.343692,-0.680569,-0.509825,-1.655812,-1.788629,-0.531754,-9.82666,80.505371,114.379883,0,0
13074,2024 10 23,05:25:58.937,0.391076,-0.341858,-0.684413,-0.511636,-1.68218,-2.044496,-0.494156,-14.282227,53.833008,85.9375,0,0
13075,2024 10 23,05:25:58.945,0.387066,-0.340944,-0.685928,-0.513263,-1.551805,-2.156316,-0.394543,-16.296387,23.254395,48.095703,0,0
13076,2024 10 23,05:25:58.953,0.387066,-0.340944,-0.685928,-0.513263,-1.551805,-2.156316,-0.394543,-16.296387,23.254395,48.095703,0,0
13077,2024 10 23,05:25:58.962,0.386204,-0.341126,-0.685757,-0.51402,-1.328166,-2.000061,-0.229987,-11.169434,3.356934,11.413574,0,0
13078,2024 10 23,05:25:58.970,0.387009,-0.342532,-0.684812,-0.51374,-1.22953,-1.655812,-0.190435,-7.019043,1.525879,-14.099121,0,0
13079,2024 10 23,05:25:58.978,0.389481,-0.347774,-0.685009,-0.508056,-5.537766,-0.340342,-1.257363,68.42041,70.983887,-112.731934,0,0
13080,2024 10 23,05:25:58.987,0.406414,-0.356909,-0.669206,-0.509517,-1.606006,-1.961974,-0.287118,-166.442871,-296.75293,-221.435547,0,0
13081,2024 10 23,05:25:58.995,0.439779,-0.353118,-0.648281,-0.511501,-0.487808,1.72515,-0.050783,80.13916,-353.881836,-236.206055,1,0
13082,2024 10 23,05:25:59.003,0.458626,-0.358264,-0.629346,-0.515009,-1.167028,1.098178,0.668477,-145.202637,-180.725098,-204.040527,0,0
13083,2024 10 23,05:25:59.012,0.458626,-0.358264,-0.629346,-0.515009,-1.167028,1.098178,0.668477,-145.202637,-180.725098,-204.040527,0,0
13084,2024 10 23,05:25:59.020,0.471586,-0.367369,-0.610997,-0.518969,-0.758324,0.622089,0.061037,-152.587891,-170.410156,-205.871582,0,0
13085,2024 10 23,05:25:59.028,0.483859,-0.378449,-0.590111,-0.523857,-1.00589,0.175787,-1.24369,-165.893555,-135.620117,-213.439941,0,0
13086,2024 10 23,05:25:59.037,0.493565,-0.38991,-0.573456,-0.524892,-1.307657,-0.503922,-1.20658,-87.768555,-70.373535,-192.810059,0,0
13087,2024 10 23,05:25:59.045,0.502405,-0.396864,-0.563811,-0.521733,-1.569384,-0.337413,-0.318857,-31.677246,-44.73877,-139.221191,0,0
13088,2024 10 23,05:25:59.053,0.507679,-0.400853,-0.558746,-0.519021,-1.356975,0.049318,-0.256355,-1.89209,-23.620605,-81.237793,0,0
13089,2024 10 23,05:25:59.062,0.507679,-0.400853,-0.558746,-0.519021,-1.356975,0.049318,-0.256355,-1.89209,-23.620605,-81.237793,0,0
13090,2024 10 23,05:25:59.070,0.511653,-0.40268,-0.555117,-0.517595,-1.164586,0.413099,0.222175,-9.643555,-28.259277,-54.870605,0,0
13091,2024 10 23,05:25:59.078,0.513045,-0.405959,-0.550637,-0.51844,-1.003937,0.141118,-0.128422,-54.626465,-21.118164,-44.128418,0,0
13092,2024 10 23,05:25:59.087,0.51496,-0.408935,-0.54547,-0.519665,-0.841823,-0.005371,-0.227058,-40.222168,-31.066895,-47.058105,0,0
13093,2024 10 23,05:25:59.095,0.517191,-0.410901,-0.542377,-0.519135,-1.007843,0.082034,0.041017,-9.765625,-11.535645,-40.466309,0,0
13094,2024 10 23,05:25:59.103,0.518871,-0.412292,-0.540081,-0.51875,-1.198767,0.090335,0.161138,-13.122559,-19.897461,-29.541016,0,0
13095,2024 10 23,05:25:59.112,0.518871,-0.412292,-0.540081,-0.51875,-1.198767,0.090335,0.161138,-13.122559,-19.897461,-29.541016,0,0
13096,2024 10 23,05:25:59.120,0.521279,-0.412418,-0.536426,-0.520026,-0.914579,0.015625,-0.194342,-18.188477,-49.926758,-23.55957,0,0
13097,2024 10 23,05:25:59.128,0.524321,-0.411512,-0.532939,-0.521269,-0.825709,0.080569,-0.076662,-6.103516,-45.043945,-19.226074,0,0
13098,2024 10 23,05:25:59.137,0.526276,-0.411226,-0.530974,-0.52153,-0.913114,0.187017,-0.239753,-3.234863,-24.169922,-17.456055,0,0
13099,2024 10 23,05:25:59.145,0.52802,-0.41115,-0.529034,-0.521799,-0.875027,0.155278,-0.135258,-5.187988,-20.629883,-17.76123,0,0
13100,2024 10 23,05:25:59.153,0.528798,-0.411731,-0.527839,-0.521762,-0.966338,0.11475,-0.20069,-5.737305,-5.004883,-12.878418,0,0
13101,2024 10 23,05:25:59.162,0.528798,-0.411731,-0.527839,-0.521762,-0.966338,0.11475,-0.20069,-5.737305,-5.004883,-12.878418,0,0
13102,2024 10 23,05:25:59.170,0.529738,-0.412006,-0.527108,-0.521331,-1.007355,0.22364,-0.031251,1.647949,-6.835938,-13.977051,0,0
13103,2024 10 23,05:25:59.178,0.530503,-0.412596,-0.526001,-0.521205,-1.007355,0.173345,-0.100589,-8.483887,-7.995605,-14.648438,0,0
13104,2024 10 23,05:25:59.187,0.531433,-0.413123,-0.5246,-0.521252,-0.964385,0.166021,-0.136723,-6.103516,-11.779785,-15.441895,0,0
13105,2024 10 23,05:25:59.195,0.532509,-0.413535,-0.523429,-0.521004,-0.986358,0.209479,-0.058107,-2.624512,-8.789063,-16.845703,0,0
13106,2024 10 23,05:25:59.203,0.533365,-0.414232,-0.522167,-0.520841,-0.977081,0.164556,-0.121097,-8.300781,-8.422852,-16.662598,0,0
13107,2024 10 23,05:25:59.212,0.533365,-0.414232,-0.522167,-0.520841,-0.977081,0.164556,-0.121097,-8.300781,-8.422852,-16.662598,0,0
13108,2024 10 23,05:25:59.220,0.534232,-0.414854,-0.520741,-0.520886,-0.91702,0.125492,-0.170904,-7.507324,-10.192871,-15.319824,0,0
13109,2024 10 23,05:25:59.228,0.535094,-0.415316,-0.519747,-0.520625,-0.930204,0.14893,-0.11182,-2.13623,-5.432129,-14.099121,0,0
13110,2024 10 23,05:25:59.237,0.535812,-0.415912,-0.519072,-0.520083,-0.96878,0.139164,-0.065432,-0.061035,-1.159668,-15.197754,0,0
13111,2024 10 23,05:25:59.245,0.536633,-0.416481,-0.51847,-0.519381,-1.00882,0.142582,-0.046876,0.732422,-2.746582,-15.991211,0,0
13112,2024 10 23,05:25:59.253,0.537671,-0.416873,-0.517762,-0.5187,-1.011261,0.137211,-0.042482,3.78418,-6.469727,-16.235352,0,0
13113,2024 10 23,05:25:59.262,0.537671,-0.416873,-0.517762,-0.5187,-1.011261,0.137211,-0.042482,3.78418,-6.469727,-16.235352,0,0
13114,2024 10 23,05:25:59.270,0.538924,-0.416874,-0.516835,-0.518322,-0.955107,0.125004,-0.08887,2.319336,-13.000488,-13.671875,0,0
13115,2024 10 23,05:25:59.278,0.540153,-0.416645,-0.51589,-0.518168,-0.934111,0.130375,-0.081057,1.89209,-13.85498,-10.620117,0,0
13116,2024 10 23,05:25:59.287,0.541205,-0.416405,-0.515077,-0.518073,-1.010285,0.19776,-0.145024,2.502441,-11.962891,-9.521484,0,0
13117,2024 10 23,05:25:59.295,0.542468,-0.416158,-0.514209,-0.517812,-0.947783,0.127934,-0.019532,1.403809,-14.526367,-11.84082,0,0
13118,2024 10 23,05:25:59.303,0.54352,-0.416036,-0.513355,-0.517655,-1.079134,0.187506,-0.175787,1.77002,-10.864258,-10.925293,0,0
13119,2024 10 23,05:25:59.312,0.54352,-0.416036,-0.513355,-0.517655,-1.079134,0.187506,-0.175787,1.77002,-10.864258,-10.925293,0,0
13120,2024 10 23,05:25:59.320,0.545114,-0.415774,-0.51238,-0.517155,-0.963408,0.174322,-0.06006,4.821777,-18.249512,-17.456055,0,0
13121,2024 10 23,05:25:59.328,0.546635,-0.41578,-0.511163,-0.516749,-0.904813,0.103519,-0.088382,1.647949,-11.962891,-18.127441,0,0
13122,2024 10 23,05:25:59.337,0.547882,-0.415951,-0.510181,-0.516261,-0.979522,0.12598,-0.164068,3.723145,-10.253906,-16.113281,0,0
13123,2024 10 23,05:25:59.345,0.549522,-0.415933,-0.509247,-0.515453,-0.92581,0.152348,-0.094729,5.065918,-12.756348,-20.935059,0,0
13124,2024 10 23,05:25:59.353,0.550986,-0.41627,-0.508094,-0.514756,-0.903348,0.092288,-0.133305,3.479004,-8.850098,-20.507813,0,0
13125,2024 10 23,05:25:59.362,0.550986,-0.41627,-0.508094,-0.514756,-0.903348,0.092288,-0.133305,3.479004,-8.850098,-20.507813,0,0
13126,2024 10 23,05:25:59.370,0.552311,-0.416655,-0.507209,-0.513897,-0.941435,0.113773,-0.155278,3.356934,-6.469727,-19.836426,0,0
13127,2024 10 23,05:25:59.378,0.553646,-0.417066,-0.50642,-0.512904,-0.965361,0.150395,-0.15772,3.90625,-5.79834,-20.935059,0,0
