frame,date,time,quaternion_x,quaternion_y,quaternion_z,quaternion_w,accel_x,accel_y,accel_z,gyro_x,gyro_y,gyro_z,HS,TO
12220,2024 10 23,05:25:51.820,-0.387026,-0.581227,0.323167,-0.638709,-1.313028,0.301279,0.04297,4.821777,-87.585449,135.742188,0,0
12221,2024 10 23,05:25:51.829,-0.387026,-0.581227,0.323167,-0.638709,-1.313028,0.301279,0.04297,4.821777,-87.585449,135.742188,0,0
12222,2024 10 23,05:25:51.837,-0.376694,-0.582156,0.332874,-0.639054,-1.33842,0.257332,0.054201,2.990723,-84.777832,136.962891,0,0
12223,2024 10 23,05:25:51.845,-0.366319,-0.582858,0.342464,-0.639379,-1.371624,0.227058,0.072268,4.02832,-83.374023,137.268066,0,0
12224,2024 10 23,05:25:51.854,-0.355751,-0.583559,0.351623,-0.639736,-1.428266,0.185553,0.099612,8.972168,-82.397461,135.925293,0,0
12225,2024 10 23,05:25:51.862,-0.344951,-0.584327,0.360059,-0.640257,-1.431196,0.132817,0.104495,18.371582,-79.162598,133.239746,0,0
12226,2024 10 23,05:25:51.870,-0.333866,-0.585244,0.36766,-0.640976,-1.363323,0.084475,0.081545,26.977539,-77.819824,130.493164,0,0
12227,2024 10 23,05:25:51.879,-0.333866,-0.585244,0.36766,-0.640976,-1.363323,0.084475,0.081545,26.977539,-77.819824,130.493164,0,0
12228,2024 10 23,05:25:51.887,-0.322365,-0.586527,0.374659,-0.641636,-1.336955,0.031739,0.0459,35.27832,-82.03125,127.929688,0,0
12229,2024 10 23,05:25:51.895,-0.310489,-0.588387,0.381187,-0.641945,-1.355998,-0.016114,0.087893,41.320801,-87.95166,123.962402,0,0
12230,2024 10 23,05:25:51.904,-0.298455,-0.590556,0.387102,-0.642121,-1.403851,-0.061525,0.129398,46.936035,-88.928223,119.567871,0,0
12231,2024 10 23,05:25:51.912,-0.286612,-0.592665,0.392315,-0.64241,-1.412641,-0.149419,0.160649,51.391602,-82.702637,114.257813,0,0
12232,2024 10 23,05:25:51.920,-0.275338,-0.59448,0.39689,-0.642854,-1.371624,-0.236824,0.141606,50.415039,-75.683594,107.910156,0,0
12233,2024 10 23,05:25:51.929,-0.275338,-0.59448,0.39689,-0.642854,-1.371624,-0.236824,0.141606,50.415039,-75.683594,107.910156,0,0
12234,2024 10 23,05:25:51.937,-0.264689,-0.596178,0.401173,-0.643096,-1.359416,-0.318857,0.184088,45.471191,-73.364258,101.867676,0,0
12235,2024 10 23,05:25:51.945,-0.254944,-0.597617,0.405345,-0.643081,-1.367718,-0.382336,0.213385,37.963867,-67.810059,95.275879,0,0
12236,2024 10 23,05:25:51.954,-0.246297,-0.598645,0.40941,-0.642919,-1.337931,-0.440443,0.257332,28.991699,-60.36377,88.439941,0,0
12237,2024 10 23,05:25:51.962,-0.238763,-0.599233,0.413423,-0.642646,-1.287149,-0.499527,0.26661,19.775391,-52.91748,82.03125,0,0
12238,2024 10 23,05:25:51.970,-0.232207,-0.599453,0.417519,-0.642195,-1.23246,-0.528825,0.291025,10.986328,-47.546387,77.636719,0,0
12239,2024 10 23,05:25:51.979,-0.226324,-0.599292,0.421758,-0.641675,-1.218787,-0.536149,0.319834,4.760742,-42.724609,75.805664,0,0
12240,2024 10 23,05:25:51.987,-0.226324,-0.599292,0.421758,-0.641675,-1.218787,-0.536149,0.319834,4.760742,-42.724609,75.805664,0,0
12241,2024 10 23,05:25:51.995,-0.220987,-0.598815,0.425804,-0.641308,-1.218787,-0.586932,0.365734,3.479004,-35.583496,71.716309,0,0
12242,2024 10 23,05:25:52.004,-0.216409,-0.598127,0.429158,-0.641276,-1.155309,-0.645039,0.358898,5.065918,-26.184082,62.194824,0,0
12243,2024 10 23,05:25:52.012,-0.212624,-0.597558,0.431573,-0.641452,-1.090854,-0.704123,0.331553,7.873535,-20.629883,49.682617,0,0
12244,2024 10 23,05:25:52.020,-0.209535,-0.597253,0.433166,-0.641678,-1.049348,-0.746605,0.333995,10.009766,-16.357422,38.513184,0,0
12245,2024 10 23,05:25:52.029,-0.207117,-0.597048,0.434182,-0.641968,-1.042512,-0.744163,0.308115,9.521484,-12.268066,30.029297,0,0
12246,2024 10 23,05:25:52.037,-0.207117,-0.597048,0.434182,-0.641968,-1.042512,-0.744163,0.308115,9.521484,-12.268066,30.029297,0,0
12247,2024 10 23,05:25:52.045,-0.20524,-0.596898,0.434705,-0.642356,-1.033723,-0.766625,0.316904,10.559082,-7.629395,22.888184,0,0
12248,2024 10 23,05:25:52.054,-0.204008,-0.596773,0.434665,-0.642892,-1.058138,-0.790063,0.297372,10.986328,-2.502441,13.977051,0,0
12249,2024 10 23,05:25:52.062,-0.20355,-0.596851,0.43382,-0.643534,-1.362835,-0.974639,0.201666,13.183594,3.051758,1.342773,0,0
12250,2024 10 23,05:25:52.070,-0.206587,-0.600344,0.430477,-0.641559,-1.821833,-1.328654,2.065493,-2.319336,-20.019531,-82.275391,0,0
12251,2024 10 23,05:25:52.079,-0.217397,-0.597946,0.421679,-0.646054,-1.096713,-1.257363,-0.641133,-14.770508,151.062012,-118.225098,1,0
12252,2024 10 23,05:25:52.087,-0.217397,-0.597946,0.421679,-0.646054,-1.096713,-1.257363,-0.641133,-14.770508,151.062012,-118.225098,0,0
12253,2024 10 23,05:25:52.095,-0.231104,-0.594352,0.417082,-0.647595,-0.835963,0.554216,-0.423841,-40.83252,90.026855,-97.045898,0,0
12254,2024 10 23,05:25:52.104,-0.238404,-0.594033,0.412646,-0.648083,-1.413129,0.708518,0.415052,-30.700684,60.424805,-85.693359,0,0
12255,2024 10 23,05:25:52.112,-0.248485,-0.590392,0.405628,-0.652042,-1.043489,0.566912,-0.973663,17.456055,132.080078,-96.801758,0,0
12256,2024 10 23,05:25:52.120,-0.255852,-0.589751,0.396092,-0.655626,-0.928739,0.423353,0.313486,37.536621,77.514648,-113.098145,0,0
12257,2024 10 23,05:25:52.129,-0.263027,-0.589535,0.386042,-0.658967,-1.028352,0.100589,0.299814,38.757324,96.252441,-108.825684,0,0
12258,2024 10 23,05:25:52.137,-0.263027,-0.589535,0.386042,-0.658967,-1.028352,0.100589,0.299814,38.757324,96.252441,-108.825684,0,0
12259,2024 10 23,05:25:52.145,-0.26983,-0.588162,0.376922,-0.662712,-0.87405,-0.181646,0.123051,33.203125,80.749512,-88.806152,0,0
12260,2024 10 23,05:25:52.154,-0.275744,-0.587652,0.370953,-0.664096,-0.934599,0.083499,0.409192,6.835938,52.368164,-72.753906,0,0
12261,2024 10 23,05:25:52.162,-0.28089,-0.586867,0.366208,-0.665267,-0.925321,0.181646,-0.057131,2.502441,45.10498,-61.523438,0,0
12262,2024 10 23,05:25:52.170,-0.284052,-0.587622,0.362332,-0.66538,-1.07767,0.11182,0.006836,12.268066,15.50293,-50.598145,0,0
12263,2024 10 23,05:25:52.179,-0.286356,-0.588299,0.358656,-0.665786,-1.115757,0.086428,-0.046388,19.226074,22.460938,-41.07666,0,0
12264,2024 10 23,05:25:52.187,-0.286356,-0.588299,0.358656,-0.665786,-1.115757,0.086428,-0.046388,19.226074,22.460938,-41.07666,0,0
12265,2024 10 23,05:25:52.195,-0.288434,-0.588183,0.355055,-0.66692,-1.060091,0.074221,-0.07178,15.991211,31.066895,-34.179688,0,0
12266,2024 10 23,05:25:52.204,-0.290471,-0.587482,0.351726,-0.668416,-1.012726,0.046876,-0.012696,15.319824,36.987305,-28.320313,0,0
12267,2024 10 23,05:25:52.212,-0.292437,-0.586173,0.348717,-0.670283,-0.987335,0.036622,-0.006836,13.549805,41.809082,-21.30127,0,0
12268,2024 10 23,05:25:52.220,-0.293831,-0.584491,0.346164,-0.672461,-0.954131,0.012696,0.047853,12.268066,41.748047,-10.559082,0,0
12269,2024 10 23,05:25:52.229,-0.294691,-0.582554,0.344337,-0.6747,-0.887722,0.06006,0.132328,10.253906,38.513184,-1.281738,0,0
12270,2024 10 23,05:25:52.237,-0.294691,-0.582554,0.344337,-0.6747,-0.887722,0.06006,0.132328,10.253906,38.513184,-1.281738,0,0
12271,2024 10 23,05:25:52.245,-0.295193,-0.580813,0.343036,-0.676641,-0.865261,0.079104,0.121097,7.385254,29.47998,1.220703,0,0
12272,2024 10 23,05:25:52.254,-0.295548,-0.579837,0.342296,-0.677697,-0.926298,0.140629,0.147954,3.78418,14.770508,-0.793457,0,0
12273,2024 10 23,05:25:52.262,-0.295675,-0.579471,0.341634,-0.678289,-0.992706,0.123539,0.10596,6.04248,8.056641,-2.502441,0,0
12274,2024 10 23,05:25:52.270,-0.295736,-0.579407,0.34096,-0.678657,-0.983428,0.082522,0.115238,5.79834,4.577637,-3.845215,0,0
12275,2024 10 23,05:25:52.279,-0.295854,-0.579505,0.340499,-0.678752,-0.994171,0.091311,0.078127,3.234863,0.671387,-3.845215,0,0
12276,2024 10 23,05:25:52.287,-0.295854,-0.579505,0.340499,-0.678752,-0.994171,0.091311,0.078127,3.234863,0.671387,-3.845215,0,0
12277,2024 10 23,05:25:52.295,-0.295848,-0.579832,0.340212,-0.67862,-1.043489,0.103519,0.04883,2.746582,-2.868652,-3.417969,0,0
12278,2024 10 23,05:25:52.304,-0.295865,-0.580024,0.339919,-0.678595,-1.064486,0.121097,0.039552,2.380371,0.976563,-2.502441,0,0
12279,2024 10 23,05:25:52.312,-0.295889,-0.579855,0.339504,-0.678936,-1.040071,0.081057,0.047853,3.112793,6.591797,-0.732422,0,0
12280,2024 10 23,05:25:52.320,-0.295961,-0.579404,0.339118,-0.679482,-1.022004,0.093753,0.053224,4.333496,9.58252,1.098633,0,0
12281,2024 10 23,05:25:52.329,-0.296043,-0.578794,0.338702,-0.680174,-0.998566,0.116703,0.073733,2.685547,11.71875,1.525879,0,0
12282,2024 10 23,05:25:52.337,-0.296043,-0.578794,0.338702,-0.680174,-0.998566,0.116703,0.073733,2.685547,11.71875,1.525879,0,0
12283,2024 10 23,05:25:52.345,-0.296039,-0.578186,0.338284,-0.680901,-1.002472,0.10596,0.081545,4.02832,10.742188,2.075195,0,0
12284,2024 10 23,05:25:52.354,-0.296058,-0.577637,0.337864,-0.681566,-0.997101,0.139653,0.08301,4.02832,10.192871,1.098633,0,0
12285,2024 10 23,05:25:52.362,-0.296011,-0.577198,0.337268,-0.682254,-1.003449,0.114261,0.073244,6.469727,9.82666,0.183105,0,0
12286,2024 10 23,05:25:52.370,-0.295962,-0.576809,0.336632,-0.682918,-0.978057,0.115726,0.110843,6.896973,9.70459,-0.12207,0,0
12287,2024 10 23,05:25:52.379,-0.29587,-0.576411,0.33592,-0.683645,-0.952178,0.104984,0.097659,7.263184,9.70459,-0.183105,0,0
12288,2024 10 23,05:25:52.387,-0.29587,-0.576411,0.33592,-0.683645,-0.952178,0.104984,0.097659,7.263184,9.70459,-0.183105,0,0
12289,2024 10 23,05:25:52.395,-0.295759,-0.576097,0.335259,-0.684281,-0.963897,0.104007,0.087405,7.507324,8.178711,-0.183105,0,0
12290,2024 10 23,05:25:52.404,-0.295657,-0.575837,0.334614,-0.684859,-0.970244,0.100101,0.086917,6.835938,7.8125,-0.610352,0,0
12291,2024 10 23,05:25:52.412,-0.295677,-0.575544,0.333961,-0.685415,-0.966826,0.112308,0.08887,5.92041,8.605957,-1.708984,0,0
12292,2024 10 23,05:25:52.420,-0.295757,-0.575229,0.33328,-0.685976,-0.98001,0.094729,0.082522,5.432129,9.033203,-2.319336,0,0
12293,2024 10 23,05:25:52.429,-0.296025,-0.574804,0.332571,-0.686561,-0.961943,0.098636,0.099124,4.394531,11.413574,-3.356934,0,0
12294,2024 10 23,05:25:52.437,-0.296451,-0.574306,0.331853,-0.687141,-0.950224,0.083499,0.0918,2.563477,11.59668,-4.455566,0,0
12295,2024 10 23,05:25:52.445,-0.296451,-0.574306,0.331853,-0.687141,-0.950224,0.083499,0.0918,2.563477,11.59668,-4.455566,0,0
12296,2024 10 23,05:25:52.454,-0.297054,-0.573815,0.331252,-0.68758,-0.947783,0.097171,0.114261,0.244141,11.169434,-5.432129,0,0
12297,2024 10 23,05:25:52.462,-0.297823,-0.573306,0.330695,-0.687941,-0.959502,0.104984,0.087893,-1.464844,11.230469,-6.958008,0,0
12298,2024 10 23,05:25:52.470,-0.298675,-0.57286,0.330131,-0.688213,-0.982452,0.107913,0.095706,-1.586914,10.559082,-8.056641,0,0
12299,2024 10 23,05:25:52.479,-0.299635,-0.572335,0.329466,-0.688552,-0.98001,0.099612,0.097659,-1.708984,13.000488,-9.094238,0,0
12300,2024 10 23,05:25:52.487,-0.300726,-0.571779,0.328738,-0.688886,-0.989288,0.104984,0.086428,-2.197266,13.244629,-10.498047,0,0
12301,2024 10 23,05:25:52.495,-0.300726,-0.571779,0.328738,-0.688886,-0.989288,0.104984,0.086428,-2.197266,13.244629,-10.498047,0,0
12302,2024 10 23,05:25:52.504,-0.301886,-0.571188,0.32793,-0.689254,-0.977569,0.082034,0.103519,-1.647949,14.709473,-11.108398,0,0
12303,2024 10 23,05:25:52.512,-0.303211,-0.570567,0.327117,-0.689572,-0.989776,0.091311,0.114261,-3.417969,14.831543,-12.573242,0,0
12304,2024 10 23,05:25:52.520,-0.304679,-0.569804,0.326205,-0.689989,-0.974639,0.108402,0.115238,-3.234863,18.493652,-13.366699,0,0
12305,2024 10 23,05:25:52.529,-0.306099,-0.569063,0.325217,-0.690438,-0.996124,0.089358,0.098636,-2.319336,16.967773,-13.48877,0,0
12306,2024 10 23,05:25:52.537,-0.307534,-0.568318,0.324173,-0.690905,-1.031281,0.084475,0.107913,-2.01416,19.104004,-13.671875,0,0
12307,2024 10 23,05:25:52.545,-0.307534,-0.568318,0.324173,-0.690905,-1.031281,0.084475,0.107913,-2.01416,19.104004,-13.671875,0,0
12308,2024 10 23,05:25:52.554,-0.309092,-0.567391,0.323031,-0.691505,-0.995148,0.097171,0.128422,-1.525879,21.54541,-13.977051,0,0
12309,2024 10 23,05:25:52.562,-0.310614,-0.566462,0.321764,-0.692176,-0.997101,0.096194,0.114261,-0.12207,22.094727,-14.648438,0,0
12310,2024 10 23,05:25:52.570,-0.312111,-0.565594,0.320378,-0.692855,-1.00296,0.098148,0.141606,0.793457,21.850586,-15.625,0,0
12311,2024 10 23,05:25:52.579,-0.313705,-0.564703,0.318853,-0.693565,-0.988311,0.114261,0.138188,1.098633,23.254395,-17.272949,0,0
12312,2024 10 23,05:25:52.587,-0.315192,-0.564004,0.31713,-0.694249,-0.954131,0.083987,0.154302,5.249023,20.629883,-18.310547,0,0
12313,2024 10 23,05:25:52.595,-0.315192,-0.564004,0.31713,-0.694249,-0.954131,0.083987,0.154302,5.249023,20.629883,-18.310547,0,0
12314,2024 10 23,05:25:52.604,-0.316605,-0.563686,0.315412,-0.694647,-0.95706,0.067385,0.138676,4.455566,15.075684,-20.141602,0,0
12315,2024 10 23,05:25:52.612,-0.318149,-0.563818,0.31391,-0.694515,-1.050813,0.11475,0.158208,0.671387,7.141113,-24.475098,0,0
12316,2024 10 23,05:25:52.620,-0.319939,-0.564226,0.312204,-0.694131,-1.148473,0.087893,0.199713,0.671387,6.835938,-29.724121,0,0
12317,2024 10 23,05:25:52.629,-0.322114,-0.56393,0.309762,-0.694458,-1.043977,-0.023438,0.034669,7.385254,25.024414,-29.846191,0,0
12318,2024 10 23,05:25:52.637,-0.324652,-0.563707,0.307623,-0.694409,-1.331095,0.177252,-0.006836,-3.234863,14.892578,-34.545898,0,0
12319,2024 10 23,05:25:52.645,-0.324652,-0.563707,0.307623,-0.694409,-1.331095,0.177252,-0.006836,-3.234863,14.892578,-34.545898,0,0
12320,2024 10 23,05:25:52.654,-0.32739,-0.56382,0.304986,-0.694195,-1.098666,0.00586,0.075198,11.291504,25.634766,-41.015625,0,0
12321,2024 10 23,05:25:52.662,-0.331108,-0.563633,0.302107,-0.693842,-1.116733,0.17481,0.322275,-10.803223,18.981934,-54.199219,0,0
12322,2024 10 23,05:25:52.670,-0.335052,-0.563824,0.298126,-0.693515,-1.350627,0.090823,0.228523,0.793457,23.193359,-61.401367,0,0
12323,2024 10 23,05:25:52.679,-0.340001,-0.564222,0.293574,-0.692724,-1.3184,0.01709,0.203131,10.253906,29.663086,-75.500488,0,0
12324,2024 10 23,05:25:52.687,-0.346007,-0.564538,0.288215,-0.691743,-1.300333,0.167486,0.239753,-2.380371,31.12793,-91.247559,0,0
12325,2024 10 23,05:25:52.695,-0.346007,-0.564538,0.288215,-0.691743,-1.300333,0.167486,0.239753,-2.380371,31.12793,-91.247559,0,0
12326,2024 10 23,05:25:52.704,-0.352387,-0.565423,0.281973,-0.690371,-1.398968,0.030763,0.141606,9.277344,29.846191,-102.539063,0,0
12327,2024 10 23,05:25:52.712,-0.359788,-0.566376,0.275164,-0.688517,-1.388226,0.126957,0.170415,5.371094,33.813477,-116.210938,0,0
12328,2024 10 23,05:25:52.720,-0.367722,-0.567422,0.267499,-0.686482,-1.406781,0.145512,0.213385,7.263184,35.583496,-127.807617,0,0
12329,2024 10 23,05:25:52.729,-0.376102,-0.568794,0.258692,-0.684177,-1.472701,0.095706,0.164556,13.183594,37.658691,-141.845703,0,0
12330,2024 10 23,05:25:52.737,-0.385491,-0.570051,0.249074,-0.681469,-1.552782,0.163579,0.163579,13.85498,44.86084,-156.738281,0,0
12331,2024 10 23,05:25:52.745,-0.385491,-0.570051,0.249074,-0.681469,-1.552782,0.163579,0.163579,13.85498,44.86084,-156.738281,0,0
12332,2024 10 23,05:25:52.754,-0.395734,-0.571401,0.23824,-0.678334,-1.549364,0.229499,0.232429,16.296387,48.88916,-174.865723,0,0
12333,2024 10 23,05:25:52.762,-0.406748,-0.572705,0.2258,-0.674967,-1.547899,0.201666,0.076174,21.850586,55.053711,-193.054199,0,0
12334,2024 10 23,05:25:52.770,-0.419087,-0.574654,0.212803,-0.669965,-1.802301,0.307627,0.135746,14.648438,44.616699,-218.505859,0,0
12335,2024 10 23,05:25:52.779,-0.432317,-0.576724,0.197737,-0.664374,-1.914121,0.170904,0.067873,29.23584,57.189941,-242.126465,0,0
12336,2024 10 23,05:25:52.787,-0.447617,-0.578404,0.181145,-0.657476,-2.139225,0.377453,0.021485,14.953613,61.828613,-277.038574,0,0
12337,2024 10 23,05:25:52.795,-0.447617,-0.578404,0.181145,-0.657476,-2.139225,0.377453,0.021485,14.953613,61.828613,-277.038574,0,0
12338,2024 10 23,05:25:52.804,-0.464421,-0.579786,0.16219,-0.649505,-2.414136,0.330576,-0.042482,24.108887,75.683594,-310.36377,0,0
12339,2024 10 23,05:25:52.812,-0.483112,-0.58028,0.140887,-0.640335,-2.777917,0.399426,-0.035157,19.53125,93.139648,-345.336914,0,0
12340,2024 10 23,05:25:52.820,-0.503282,-0.578942,0.116429,-0.630855,-2.747643,0.393078,-0.238289,25.695801,126.89209,-375.854492,0,0
12341,2024 10 23,05:25:52.829,-0.524182,-0.576356,0.089641,-0.620493,-2.935148,0.264168,-0.006836,24.291992,143.737793,-400.085449,0,0
12342,2024 10 23,05:25:52.837,-0.545691,-0.571044,0.060622,-0.61029,-3.185156,0.517106,0.525895,23.620605,179.382324,-409.912109,0,0
12343,2024 10 23,05:25:52.845,-0.56667,-0.561863,0.029645,-0.601927,-2.1236,0.365246,-0.137211,18.310547,233.215332,-408.752441,0,0
12344,2024 10 23,05:25:52.854,-0.56667,-0.561863,0.029645,-0.601927,-2.1236,0.365246,-0.137211,18.310547,233.215332,-408.752441,0,0
12345,2024 10 23,05:25:52.862,-0.587775,-0.554456,0.000316,-0.589151,-2.178289,0.470717,0.02588,-0.793457,150.817871,-431.091309,0,0
12346,2024 10 23,05:25:52.870,-0.610312,-0.545095,-0.028571,-0.574086,-1.662648,0.739769,-0.632832,-13.427734,169.677734,-451.599121,0,0
12347,2024 10 23,05:25:52.879,-0.632749,-0.536456,-0.056627,-0.555551,-1.18656,0.644063,-0.720725,-6.591797,123.10791,-464.84375,0,1
12348,2024 10 23,05:25:52.887,-0.654928,-0.527675,-0.08161,-0.53476,-0.523453,0.74807,-0.766625,-38.635254,92.651367,-453.979492,0,0
12349,2024 10 23,05:25:52.895,-0.674348,-0.518649,-0.101737,-0.515663,1.14359,1.656301,-1.325236,-50.292969,66.772461,-368.041992,0,0
12350,2024 10 23,05:25:52.904,-0.674348,-0.518649,-0.101737,-0.515663,1.14359,1.656301,-1.325236,-50.292969,66.772461,-368.041992,0,0
12351,2024 10 23,05:25:52.912,-0.687555,-0.510077,-0.11172,-0.504588,1.217322,0.842311,-1.705619,-51.879883,15.930176,-175.90332,0,0
12352,2024 10 23,05:25:52.920,-0.694649,-0.506732,-0.100273,-0.500631,-0.516617,2.538163,1.109409,-127.563477,-106.201172,43.823242,0,0
12353,2024 10 23,05:25:52.929,-0.689901,-0.50474,-0.090272,-0.511003,-0.361339,1.537645,-0.4214,-42.480469,12.023926,188.476563,0,0
12354,2024 10 23,05:25:52.937,-0.679678,-0.506498,-0.077623,-0.524855,-0.638691,0.943388,-0.083499,-1.708984,-22.583008,249.572754,0,0
12355,2024 10 23,05:25:52.945,-0.667626,-0.508574,-0.06626,-0.539664,-0.178228,0.638203,-0.843287,7.629395,-0.610352,249.450684,0,0
12356,2024 10 23,05:25:52.954,-0.667626,-0.508574,-0.06626,-0.539664,-0.178228,0.638203,-0.843287,7.629395,-0.610352,249.450684,0,0
12357,2024 10 23,05:25:52.962,-0.655961,-0.513461,-0.053311,-0.550664,-0.106937,0.472182,-0.718284,14.343262,-76.35498,226.623535,0,0
12358,2024 10 23,05:25:52.970,-0.645515,-0.52078,-0.038301,-0.557343,-0.318369,0.482925,-0.434584,17.822266,-116.577148,201.35498,0,0
12359,2024 10 23,05:25:52.979,-0.635407,-0.528924,-0.022976,-0.562112,-0.520524,0.585955,-0.423841,21.484375,-136.291504,190.734863,0,0
12360,2024 10 23,05:25:52.987,-0.624396,-0.537803,-0.007205,-0.566432,-0.639668,0.599139,-0.139164,30.700684,-138.122559,199.401855,0,0
12361,2024 10 23,05:25:52.995,-0.61214,-0.545812,0.008211,-0.572107,-0.661153,0.565935,-0.244636,33.508301,-121.276855,215.759277,0,0
12362,2024 10 23,05:25:53.004,-0.61214,-0.545812,0.008211,-0.572107,-0.661153,0.565935,-0.244636,33.508301,-121.276855,215.759277,0,0
12363,2024 10 23,05:25:53.012,-0.59872,-0.553288,0.02437,-0.57863,-0.639668,0.414075,-0.281747,30.090332,-121.582031,234.985352,0,0
12364,2024 10 23,05:25:53.020,-0.584667,-0.56006,0.042125,-0.585426,-0.635273,0.267098,-0.290048,15.014648,-126.342773,250.549316,0,0
12365,2024 10 23,05:25:53.029,-0.570667,-0.566034,0.062156,-0.591677,-0.664571,0.221686,-0.344249,-8.789063,-144.65332,260.742188,0,0
12366,2024 10 23,05:25:53.037,-0.557051,-0.571467,0.08511,-0.596554,-0.789087,0.261727,-0.163579,-35.217285,-167.297363,268.066406,0,0
12367,2024 10 23,05:25:53.045,-0.543658,-0.575959,0.110341,-0.600443,-0.974639,0.368175,-0.067385,-57.556152,-180.603027,275.695801,0,0
12368,2024 10 23,05:25:53.054,-0.543658,-0.575959,0.110341,-0.600443,-0.974639,0.368175,-0.067385,-57.556152,-180.603027,275.695801,0,0
12369,2024 10 23,05:25:53.062,-0.530107,-0.579545,0.137205,-0.603564,-1.178259,0.471206,0.132328,-71.044922,-187.988281,282.775879,0,0
12370,2024 10 23,05:25:53.070,-0.516179,-0.581927,0.164493,-0.606517,-1.32963,0.505387,0.263192,-77.758789,-181.213379,287.902832,0,0
12371,2024 10 23,05:25:53.079,-0.501822,-0.582921,0.191587,-0.609649,-1.408246,0.483413,0.281259,-79.711914,-169.98291,293.518066,0,0
12372,2024 10 23,05:25:53.087,-0.486956,-0.582634,0.218352,-0.612971,-1.471725,0.445326,0.298349,-81.176758,-159.851074,298.583984,0,0
12373,2024 10 23,05:25:53.095,-0.471722,-0.581306,0.244806,-0.616142,-1.520554,0.414563,0.288095,-83.068848,-153.930664,300.598145,0,0
12374,2024 10 23,05:25:53.104,-0.471722,-0.581306,0.244806,-0.616142,-1.520554,0.414563,0.288095,-83.068848,-153.930664,300.598145,0,0
12375,2024 10 23,05:25:53.112,-0.456029,-0.579303,0.271102,-0.618829,-1.559618,0.455092,0.310556,-83.374023,-154.785156,302.734375,0,0
12376,2024 10 23,05:25:53.120,-0.439429,-0.576976,0.297153,-0.621048,-1.643605,0.526872,0.338878,-77.697754,-157.287598,306.45752,0,0
12377,2024 10 23,05:25:53.129,-0.4217,-0.574437,0.322636,-0.622975,-1.778863,0.560076,0.345225,-66.28418,-159.179688,309.875488,0,0
12378,2024 10 23,05:25:53.137,-0.402675,-0.572017,0.347104,-0.624634,-1.918027,0.549333,0.362316,-50.476074,-161.621094,309.936523,0,0
12379,2024 10 23,05:25:53.145,-0.382463,-0.569811,0.370135,-0.626129,-2.030335,0.427259,0.30079,-31.616211,-162.597656,307.739258,0,0
12380,2024 10 23,05:25:53.154,-0.382463,-0.569811,0.370135,-0.626129,-2.030335,0.427259,0.30079,-31.616211,-162.597656,307.739258,0,0
12381,2024 10 23,05:25:53.162,-0.361161,-0.568011,0.391753,-0.627261,-2.134831,0.247078,0.257332,-15.319824,-166.931152,303.833008,0,0
12382,2024 10 23,05:25:53.170,-0.339077,-0.566638,0.411916,-0.627912,-2.219794,0.008789,0.194342,-0.732422,-170.410156,297.180176,0,0
12383,2024 10 23,05:25:53.179,-0.316553,-0.565737,0.430834,-0.627788,-2.303293,-0.196783,0.184576,7.080078,-176.513672,288.391113,0,0
12384,2024 10 23,05:25:53.187,-0.293907,-0.565077,0.448655,-0.626909,-2.362865,-0.448744,0.147954,12.145996,-179.56543,280.395508,0,0
12385,2024 10 23,05:25:53.195,-0.271405,-0.564576,0.465656,-0.625106,-2.469314,-0.787133,0.150395,12.939453,-183.288574,272.033691,0,0
12386,2024 10 23,05:25:53.204,-0.271405,-0.564576,0.465656,-0.625106,-2.469314,-0.787133,0.150395,12.939453,-183.288574,272.033691,0,0
12387,2024 10 23,05:25:53.212,-0.249516,-0.564179,0.481652,-0.622459,-2.64217,-1.257851,0.203131,10.986328,-181.82373,258.850098,0,0
12388,2024 10 23,05:25:53.220,-0.229493,-0.563754,0.496013,-0.619262,-2.583087,-1.777886,0.258309,7.202148,-167.663574,233.276367,0,0
12389,2024 10 23,05:25:53.229,-0.212367,-0.563857,0.508367,-0.615247,-2.09479,-2.167058,0.330088,-1.464844,-159.179688,193.969727,0,0
12390,2024 10 23,05:25:53.237,-0.197389,-0.56641,0.519397,-0.608642,-1.697806,-2.280343,0.730491,-15.930176,-188.293457,150.146484,0,0
12391,2024 10 23,05:25:53.245,-0.183289,-0.572332,0.529143,-0.59904,-1.771538,-2.339427,1.468307,-19.775391,-223.083496,109.436035,0,0
12392,2024 10 23,05:25:53.254,-0.183289,-0.572332,0.529143,-0.59904,-1.771538,-2.339427,1.468307,-19.775391,-223.083496,109.436035,0,0
12393,2024 10 23,05:25:53.262,-0.170234,-0.580182,0.536285,-0.588903,-2.326731,-2.71102,2.129948,-4.821777,-220.703125,75.439453,0,0
12394,2024 10 23,05:25:53.270,-0.160962,-0.58629,0.540032,-0.581997,-2.63094,-3.15244,2.315989,6.896973,-139.709473,49.072266,0,0
12395,2024 10 23,05:25:53.279,-0.158023,-0.588177,0.540286,-0.580662,-2.242744,-3.503525,1.525926,12.145996,-29.23584,20.690918,0,0
12396,2024 10 23,05:25:53.287,-0.160872,-0.588458,0.538933,-0.580852,-1.698294,-3.23838,0.960479,-12.695313,18.615723,-18.493652,0,0
12397,2024 10 23,05:25:53.295,-0.167207,-0.589406,0.537399,-0.579521,-1.980041,-2.638264,0.452651,-46.325684,16.845703,-49.377441,0,0
12398,2024 10 23,05:25:53.304,-0.183155,-0.599425,0.533187,-0.568203,-2.202704,2.027406,9.468061,-125.305176,-30.761719,-258.056641,1,0
12399,2024 10 23,05:25:53.312,-0.183155,-0.599425,0.533187,-0.568203,-2.202704,2.027406,9.468062,-125.305176,-30.761719,-258.056641,0,0
12400,2024 10 23,05:25:53.320,-0.216604,-0.579753,0.512462,-0.595274,-0.735862,1.115757,-5.333659,-94.848633,626.831055,-190.002441,0,0
12401,2024 10 23,05:25:53.329,-0.230591,-0.580344,0.499818,-0.600176,-1.484909,0.486343,-0.859401,154.785156,-8.178711,-166.564941,0,0
12402,2024 10 23,05:25:53.337,-0.244335,-0.584076,0.483613,-0.604379,-1.804254,1.607471,1.649953,-2.319336,241.394043,-229.003906,0,0
12403,2024 10 23,05:25:53.345,-0.262298,-0.578311,0.459511,-0.620972,0.094729,-0.750511,-1.876522,155.578613,242.553711,-199.890137,0,0
12404,2024 10 23,05:25:53.354,-0.272857,-0.585087,0.445642,-0.620182,-2.148015,0.047365,2.551348,15.197754,60.119629,-194.519043,0,0
12405,2024 10 23,05:25:53.362,-0.272857,-0.585087,0.445642,-0.620182,-2.148015,0.047365,2.551347,15.197754,60.119629,-194.519043,0,0
12406,2024 10 23,05:25:53.370,-0.288006,-0.580729,0.431759,-0.627208,-1.248573,-0.11182,-0.796411,12.268066,190.002441,-140.197754,0,0
12407,2024 10 23,05:25:53.379,-0.29737,-0.57961,0.423376,-0.629584,-1.47026,0.13184,0.799829,10.070801,91.247559,-97.900391,0,0
12408,2024 10 23,05:25:53.387,-0.305161,-0.576318,0.415234,-0.634283,-0.893582,0.198737,-0.191412,16.235352,116.149902,-73.181152,0,0
12409,2024 10 23,05:25:53.395,-0.30913,-0.575712,0.408638,-0.637188,-0.898465,-0.013672,0.276864,39.123535,52.67334,-55.053711,0,0
12410,2024 10 23,05:25:53.404,-0.313035,-0.575146,0.403236,-0.639232,-0.841334,0.115726,-0.017579,13.85498,55.358887,-54.199219,0,0
12411,2024 10 23,05:25:53.412,-0.313035,-0.575146,0.403236,-0.639232,-0.841334,0.115726,-0.017579,13.85498,55.358887,-54.199219,0,0
12412,2024 10 23,05:25:53.420,-0.316113,-0.575304,0.398726,-0.640403,-1.092319,0.071291,-0.241218,24.108887,30.334473,-45.349121,0,0
12413,2024 10 23,05:25:53.429,-0.317588,-0.575399,0.394739,-0.642055,-1.232948,-0.055666,-0.10889,26.000977,37.780762,-26.184082,0,0
12414,2024 10 23,05:25:53.437,-0.319298,-0.573431,0.391231,-0.645108,-1.042512,0.053224,-0.000977,20.874023,60.546875,-12.145996,0,0
12415,2024 10 23,05:25:53.445,-0.320991,-0.570936,0.387949,-0.648453,-0.960479,0.130375,-0.014161,18.371582,57.617188,-10.681152,0,0
12416,2024 10 23,05:25:53.454,-0.322239,-0.569323,0.385076,-0.650961,-0.990753,0.090823,0.115238,17.883301,41.259766,-11.901855,0,0
12417,2024 10 23,05:25:53.462,-0.322239,-0.569323,0.385076,-0.650961,-0.990753,0.090823,0.115238,17.883301,41.259766,-11.901855,0,0
12418,2024 10 23,05:25:53.470,-0.323536,-0.568081,0.382525,-0.652904,-0.913114,0.164068,0.108402,13.61084,34.729004,-14.282227,0,0
12419,2024 10 23,05:25:53.479,-0.32435,-0.56785,0.380231,-0.65404,-0.933134,0.135258,0.101566,16.174316,16.113281,-16.723633,0,0
12420,2024 10 23,05:25:53.487,-0.325078,-0.568377,0.378192,-0.654403,-0.910184,0.139653,0.153813,13.85498,7.629395,-20.935059,0,0
12421,2024 10 23,05:25:53.495,-0.325758,-0.569408,0.376208,-0.654311,-0.881863,0.095218,0.112308,13.000488,-1.220703,-23.376465,0,0
12422,2024 10 23,05:25:53.504,-0.326309,-0.571077,0.374678,-0.65346,-0.967803,0.087405,0.058107,9.338379,-13.122559,-24.963379,0,0
12423,2024 10 23,05:25:53.512,-0.326309,-0.571077,0.374678,-0.65346,-0.967803,0.087405,0.058107,9.338379,-13.122559,-24.963379,0,0
12424,2024 10 23,05:25:53.520,-0.32688,-0.572959,0.373418,-0.652248,-1.05179,0.08594,0.006348,6.958008,-14.160156,-24.414063,0,0
12425,2024 10 23,05:25:53.529,-0.327503,-0.574409,0.372231,-0.651338,-1.029328,0.070315,-0.039552,6.04248,-7.995605,-21.118164,0,0
12426,2024 10 23,05:25:53.537,-0.328158,-0.575512,0.371163,-0.650643,-1.02298,0.090823,-0.007813,4.516602,-4.760742,-18.432617,0,0
12427,2024 10 23,05:25:53.545,-0.328824,-0.576262,0.370054,-0.650275,-1.021027,0.083987,-0.020997,5.371094,0.793457,-16.357422,0,0
12428,2024 10 23,05:25:53.554,-0.329634,-0.576702,0.368864,-0.65015,-1.007843,0.095218,-0.015625,4.211426,5.004883,-16.540527,0,0
12429,2024 10 23,05:25:53.562,-0.329634,-0.576702,0.368864,-0.65015,-1.007843,0.095218,-0.015625,4.211426,5.004883,-16.540527,0,0
12430,2024 10 23,05:25:53.570,-0.330533,-0.576929,0.367523,-0.650253,-0.965361,0.091311,0.046876,5.92041,9.521484,-15.930176,0,0
12431,2024 10 23,05:25:53.579,-0.33142,-0.576817,0.366062,-0.650724,-0.95706,0.08301,0.026368,6.164551,14.160156,-13.671875,0,0
12432,2024 10 23,05:25:53.587,-0.332302,-0.576573,0.364572,-0.651327,-0.933134,0.087405,0.080569,6.713867,15.319824,-13.366699,0,0
12433,2024 10 23,05:25:53.595,-0.333213,-0.576321,0.363036,-0.651942,-0.912625,0.07178,0.06592,7.263184,15.441895,-13.366699,0,0
12434,2024 10 23,05:25:53.604,-0.33405,-0.576097,0.36158,-0.65252,-0.935087,0.075198,0.073244,6.469727,14.282227,-12.817383,0,0
12435,2024 10 23,05:25:53.612,-0.33405,-0.576097,0.36158,-0.65252,-0.935087,0.075198,0.073244,6.469727,14.282227,-12.817383,0,0
12436,2024 10 23,05:25:53.620,-0.33487,-0.575815,0.360126,-0.653152,-0.945341,0.059084,0.070803,6.591797,15.441895,-12.145996,0,0
12437,2024 10 23,05:25:53.629,-0.335943,-0.575616,0.358785,-0.653516,-0.929228,0.090823,0.092776,3.356934,13.061523,-15.686035,0,0
12438,2024 10 23,05:25:53.637,-0.337055,-0.57545,0.357382,-0.653857,-0.950713,0.064943,0.074709,2.563477,13.000488,-16.601563,0,0
12439,2024 10 23,05:25:53.645,-0.338285,-0.575353,0.356065,-0.654026,-0.969268,0.06299,0.083499,1.159668,11.962891,-17.333984,0,0
12440,2024 10 23,05:25:53.654,-0.339588,-0.575138,0.354692,-0.654286,-0.960479,0.035157,0.058107,2.01416,14.099121,-16.540527,0,0
12441,2024 10 23,05:25:53.662,-0.339588,-0.575138,0.354692,-0.654286,-0.960479,0.035157,0.058107,2.01416,14.099121,-16.540527,0,0
12442,2024 10 23,05:25:53.670,-0.340938,-0.57493,0.353464,-0.654431,-0.9888,0.041993,0.047853,-0.305176,12.451172,-16.662598,0,0
12443,2024 10 23,05:25:53.679,-0.342392,-0.574722,0.352317,-0.654473,-0.944853,0.065432,0.102542,-1.77002,12.451172,-17.700195,0,0
12444,2024 10 23,05:25:53.687,-0.343919,-0.574483,0.351185,-0.654491,-1.006378,0.067873,0.082034,-3.723145,11.901855,-18.737793,0,0
12445,2024 10 23,05:25:53.695,-0.345543,-0.574268,0.349937,-0.654492,-0.976104,0.044435,0.067385,-0.610352,13.549805,-19.40918,0,0
12446,2024 10 23,05:25:53.704,-0.347119,-0.574173,0.348675,-0.654415,-0.973662,0.046876,0.081057,-2.13623,10.559082,-20.385742,0,0
12447,2024 10 23,05:25:53.712,-0.347119,-0.574173,0.348675,-0.654415,-0.973662,0.046876,0.081057,-2.13623,10.559082,-20.385742,0,0
12448,2024 10 23,05:25:53.720,-0.348796,-0.574145,0.347455,-0.654197,-1.035188,0.054689,0.06006,-3.78418,10.559082,-21.972656,0,0
12449,2024 10 23,05:25:53.729,-0.350649,-0.574162,0.346127,-0.653895,-1.06888,0.055177,0.050783,-2.380371,10.986328,-24.291992,0,0
12450,2024 10 23,05:25:53.737,-0.352799,-0.574161,0.344641,-0.653525,-1.09476,0.11475,0.107913,-5.249023,13.366699,-29.052734,0,0
12451,2024 10 23,05:25:53.745,-0.354988,-0.574018,0.342544,-0.653567,-1.083529,-0.023927,0.002441,1.098633,19.40918,-29.541016,0,0
12452,2024 10 23,05:25:53.754,-0.357578,-0.573928,0.340627,-0.653236,-1.129917,0.072756,0.015137,-4.638672,15.686035,-33.630371,0,0
12453,2024 10 23,05:25:53.762,-0.360294,-0.57414,0.338486,-0.652671,-1.249062,0.086428,0.082522,-3.723145,15.014648,-40.161133,0,0
12454,2024 10 23,05:25:53.770,-0.360294,-0.57414,0.338486,-0.652671,-1.249062,0.086428,0.082522,-3.723145,15.014648,-40.161133,0,0
12455,2024 10 23,05:25:53.779,-0.363604,-0.574253,0.335637,-0.652207,-1.087435,0.026368,0.047853,-0.549316,23.4375,-48.034668,0,0
12456,2024 10 23,05:25:53.787,-0.367367,-0.574823,0.332658,-0.651121,-1.28666,0.100589,0.043947,-6.408691,11.230469,-56.884766,0,0
12457,2024 10 23,05:25:53.795,-0.371447,-0.576043,0.329215,-0.649476,-1.321329,0.077639,0.170904,1.77002,14.648438,-68.54248,0,0
12458,2024 10 23,05:25:53.804,-0.376338,-0.577117,0.324571,-0.648043,-1.228553,0.149907,0.142582,-0.793457,21.179199,-81.115723,0,0
12459,2024 10 23,05:25:53.812,-0.381302,-0.578996,0.319209,-0.646125,-1.354534,0.119633,0.269051,8.361816,12.634277,-91.61377,0,0
12460,2024 10 23,05:25:53.820,-0.381302,-0.578996,0.319209,-0.646125,-1.354534,0.119633,0.269051,8.361816,12.634277,-91.61377,0,0
12461,2024 10 23,05:25:53.829,-0.386834,-0.581238,0.31245,-0.644125,-1.360393,0.112796,0.135746,17.456055,20.812988,-106.567383,0,0
12462,2024 10 23,05:25:53.837,-0.392986,-0.583899,0.304935,-0.641591,-1.427778,0.072756,0.092288,22.399902,19.165039,-120.97168,0,0
12463,2024 10 23,05:25:53.845,-0.399875,-0.587315,0.296432,-0.638192,-1.543016,0.081057,0.116214,18.249512,13.85498,-141.967773,0,0
12464,2024 10 23,05:25:53.854,-0.40797,-0.591217,0.286553,-0.633964,-1.595263,0.095218,0.044923,20.263672,18.005371,-165.893555,0,0
12465,2024 10 23,05:25:53.862,-0.41757,-0.595174,0.275467,-0.628905,-1.694388,0.257332,0.077639,18.127441,22.094727,-189.575195,0,0
12466,2024 10 23,05:25:53.870,-0.41757,-0.595174,0.275467,-0.628905,-1.694388,0.257332,0.077639,18.127441,22.094727,-189.575195,0,0
12467,2024 10 23,05:25:53.879,-0.428052,-0.599598,0.262503,-0.623174,-1.765191,0.294443,0.187994,27.46582,26.489258,-214.96582,0,0
12468,2024 10 23,05:25:53.887,-0.440013,-0.603787,0.247846,-0.616767,-1.892148,0.401379,0.252937,22.827148,36.560059,-240.844727,0,0
12469,2024 10 23,05:25:53.895,-0.453365,-0.608031,0.230652,-0.609556,-1.810602,0.349132,0.080081,33.569336,44.555664,-274.414063,0,0
12470,2024 10 23,05:25:53.904,-0.46817,-0.613318,0.211551,-0.59992,-2.096744,0.382824,0.046388,31.066895,33.813477,-315.856934,0,0
12471,2024 10 23,05:25:53.912,-0.484913,-0.618604,0.190242,-0.588214,-2.377026,0.437513,0.005371,30.517578,40.405273,-357.177734,0,0
12472,2024 10 23,05:25:53.920,-0.484913,-0.618604,0.190242,-0.588214,-2.377026,0.437513,0.005371,30.517578,40.405273,-357.177734,0,0
12473,2024 10 23,05:25:53.929,-0.503427,-0.623425,0.166157,-0.574712,-2.718833,0.476577,0.090823,28.686523,50.65918,-398.071289,0,0
12474,2024 10 23,05:25:53.937,-0.523665,-0.626693,0.139114,-0.56007,-2.803308,0.554216,0.096194,25.695801,80.01709,-435.913086,0,0
12475,2024 10 23,05:25:53.945,-0.54399,-0.629212,0.108573,-0.544407,-3.209571,0.078616,0.431166,40.771484,91.369629,-465.759277,0,0
12476,2024 10 23,05:25:53.954,-0.565693,-0.62927,0.075005,-0.527621,-2.494217,0.397961,-0.109867,32.104492,119.32373,-497.131348,0,0
12477,2024 10 23,05:25:53.962,-0.585055,-0.629749,0.042807,-0.50921,-3.172948,0.389172,0.521012,40.83252,87.463379,-473.449707,0,0
12478,2024 10 23,05:25:53.970,-0.585055,-0.629749,0.042807,-0.50921,-3.172948,0.389172,0.521012,40.83252,87.463379,-473.449707,0,0
12479,2024 10 23,05:25:53.979,-0.604642,-0.626625,0.009269,-0.491593,-2.550371,0.709006,-0.378918,22.033691,138.671875,-494.262695,0,0
12480,2024 10 23,05:25:53.987,-0.623625,-0.623151,-0.025856,-0.471281,-1.673879,0.363292,-0.858913,31.860352,114.440918,-517.028809,0,0
12481,2024 10 23,05:25:53.995,-0.643923,-0.618148,-0.058242,-0.447062,-1.372112,0.570818,-0.904813,-10.681152,72.875977,-524.291992,0,1
12482,2024 10 23,05:25:54.004,-0.663868,-0.613072,-0.086755,-0.419399,-1.075228,0.5674,-1.084506,-19.592285,16.479492,-514.831543,0,0
12483,2024 10 23,05:25:54.012,-0.682623,-0.608612,-0.109109,-0.389503,-0.693869,0.296396,-0.918485,-42.419434,-49.01123,-473.632813,0,0
12484,2024 10 23,05:25:54.020,-0.682623,-0.608612,-0.109109,-0.389503,-0.693869,0.296396,-0.918485,-42.419434,-49.01123,-473.632813,0,0
12485,2024 10 23,05:25:54.029,-0.70154,-0.598892,-0.123078,-0.366089,3.008393,2.161199,-0.252449,-163.146973,-3.173828,-330.13916,0,0
12486,2024 10 23,05:25:54.037,-0.707365,-0.591179,-0.12438,-0.366977,1.629444,2.241768,-1.456099,-110.229492,-8.850098,73.242188,0,0
12487,2024 10 23,05:25:54.045,-0.707195,-0.589886,-0.097677,-0.377318,-0.710471,2.200263,0.357921,-103.881836,-141.906738,317.199707,0,0
12488,2024 10 23,05:25:54.054,-0.697103,-0.58892,-0.072391,-0.402467,-1.327189,1.394086,-0.147954,-71.533203,18.188477,428.405762,0,0
12489,2024 10 23,05:25:54.062,-0.682792,-0.588958,-0.048702,-0.429595,-1.230995,0.454604,-0.338389,-31.494141,-8.666992,427.185059,0,0
12490,2024 10 23,05:25:54.070,-0.682792,-0.588958,-0.048702,-0.429595,-1.230995,0.454604,-0.338389,-31.494141,-8.666992,427.185059,0,0
12491,2024 10 23,05:25:54.079,-0.669699,-0.588813,-0.026338,-0.451784,-0.935575,0.302744,-0.30958,-30.273438,-9.521484,366.699219,0,0
12492,2024 10 23,05:25:54.087,-0.658677,-0.588088,-0.007377,-0.4693,-0.723167,0.209479,-0.89407,-39.855957,-27.770996,298.64502,0,0
12493,2024 10 23,05:25:54.095,-0.64896,-0.588685,0.011498,-0.481838,-0.738792,0.149907,-0.506363,-36.437988,-62.072754,263.48877,0,0
12494,2024 10 23,05:25:54.104,-0.640112,-0.588409,0.029779,-0.493096,-0.55031,0.333018,-0.426771,-43.701172,-54.6875,250.915527,0,0
12495,2024 10 23,05:25:54.112,-0.630822,-0.587955,0.048729,-0.503982,-0.503433,0.495621,-0.412122,-45.959473,-69.702148,260.498047,0,0
12496,2024 10 23,05:25:54.120,-0.630822,-0.587955,0.048729,-0.503982,-0.503433,0.495621,-0.412122,-45.959473,-69.702148,260.498047,0,0
12497,2024 10 23,05:25:54.129,-0.620195,-0.587875,0.069335,-0.514737,-0.695822,0.47853,-0.259774,-41.503906,-80.810547,278.625488,0,0
12498,2024 10 23,05:25:54.137,-0.608401,-0.587334,0.090442,-0.526029,-0.717795,0.388684,-0.296884,-39.794922,-77.941895,290.83252,0,0
12499,2024 10 23,05:25:54.145,-0.595898,-0.586618,0.11228,-0.536822,-0.716819,0.273934,-0.320322,-43.029785,-89.782715,295.288086,0,0
12500,2024 10 23,05:25:54.154,-0.583088,-0.585946,0.13533,-0.546226,-0.769066,0.204108,-0.328623,-51.391602,-109.375,295.471191,0,0
12501,2024 10 23,05:25:54.162,-0.570108,-0.58539,0.159925,-0.553822,-0.891629,0.255379,-0.242195,-62.072754,-133.544922,294.616699,0,0
12502,2024 10 23,05:25:54.170,-0.570108,-0.58539,0.159925,-0.553822,-0.891629,0.255379,-0.242195,-62.072754,-133.544922,294.616699,0,0
12503,2024 10 23,05:25:54.179,-0.556765,-0.584924,0.185694,-0.559816,-1.081088,0.281747,-0.089846,-67.382813,-151.245117,293.701172,0,0
12504,2024 10 23,05:25:54.187,-0.542982,-0.584217,0.211818,-0.564795,-1.240272,0.342784,0.04883,-69.091797,-157.409668,292.724609,0,0
12505,2024 10 23,05:25:54.195,-0.528563,-0.582909,0.237814,-0.569459,-1.317423,0.379894,0.15186,-67.565918,-154.907227,296.75293,0,0
12506,2024 10 23,05:25:54.204,-0.513166,-0.580721,0.263613,-0.574398,-1.364299,0.389172,0.161138,-63.659668,-149.291992,307.128906,0,0
12507,2024 10 23,05:25:54.212,-0.496673,-0.577827,0.289481,-0.579338,-1.440474,0.375988,0.187017,-61.462402,-150.146484,316.711426,0,0
12508,2024 10 23,05:25:54.220,-0.479183,-0.574436,0.315289,-0.583952,-1.53325,0.382824,0.187994,-58.044434,-152.648926,321.777344,0,0
12509,2024 10 23,05:25:54.229,-0.479183,-0.574436,0.315289,-0.583952,-1.53325,0.382824,0.187994,-58.044434,-152.648926,321.777344,0,0
12510,2024 10 23,05:25:54.237,-0.460788,-0.570942,0.3407,-0.587897,-1.684622,0.402844,0.222663,-51.757813,-158.02002,320.43457,0,0
12511,2024 10 23,05:25:54.245,-0.441683,-0.567517,0.365136,-0.591199,-1.826716,0.38966,0.233894,-41.809082,-159.484863,314.63623,0,0
12512,2024 10 23,05:25:54.254,-0.421959,-0.564225,0.388398,-0.593926,-1.934141,0.34669,0.227058,-32.043457,-161.560059,308.59375,0,0
12513,2024 10 23,05:25:54.262,-0.401452,-0.561105,0.410684,-0.596101,-2.066469,0.205084,0.235359,-22.094727,-165.588379,305.969238,0,0
12514,2024 10 23,05:25:54.270,-0.380182,-0.558052,0.43201,-0.597835,-2.191473,0.0,0.296884,-12.390137,-167.724609,304.077148,0,0
12515,2024 10 23,05:25:54.279,-0.380182,-0.558052,0.43201,-0.597835,-2.191473,0.0,0.296884,-12.390137,-167.724609,304.077148,0,0
12516,2024 10 23,05:25:54.287,-0.358313,-0.55503,0.452073,-0.599319,-2.310617,-0.212409,0.385266,-0.549316,-167.236328,299.804688,0,0
12517,2024 10 23,05:25:54.295,-0.336097,-0.55219,0.470421,-0.600691,-2.40144,-0.396496,0.455092,14.221191,-163.818359,290.283203,0,0
12518,2024 10 23,05:25:54.304,-0.31384,-0.549767,0.48651,-0.602137,-2.467849,-0.595721,0.467788,33.14209,-157.897949,274.353027,0,0
12519,2024 10 23,05:25:54.312,-0.291706,-0.547991,0.500034,-0.603804,-2.462477,-0.91995,0.402356,53.405762,-151.428223,256.225586,0,0
12520,2024 10 23,05:25:54.320,-0.269719,-0.547013,0.511419,-0.605375,-2.411695,-1.273965,0.397961,67.932129,-151.123047,239.440918,0,0
12521,2024 10 23,05:25:54.329,-0.269719,-0.547013,0.511419,-0.605375,-2.411695,-1.273965,0.397961,67.932129,-151.123047,239.440918,0,0
12522,2024 10 23,05:25:54.337,-0.248014,-0.546902,0.520712,-0.606833,-2.258858,-1.751518,0.502945,83.496094,-149.291992,219.970703,0,0
12523,2024 10 23,05:25:54.345,-0.227278,-0.548058,0.527938,-0.607666,-2.01178,-2.164129,0.685568,89.96582,-153.503418,190.612793,0,0
12524,2024 10 23,05:25:54.354,-0.207794,-0.551324,0.532948,-0.607314,-1.854549,-2.571368,0.985382,94.665527,-164.0625,151.367188,0,0
12525,2024 10 23,05:25:54.362,-0.190498,-0.556928,0.535418,-0.605698,-1.936583,-2.940519,1.430708,96.069336,-167.358398,102.294922,0,0
12526,2024 10 23,05:25:54.370,-0.176697,-0.563656,0.534967,-0.604053,-2.14948,-3.445418,1.612354,94.299316,-142.63916,56.396484,0,0
12527,2024 10 23,05:25:54.379,-0.176697,-0.563656,0.534967,-0.604053,-2.14948,-3.445418,1.612354,94.299316,-142.63916,56.396484,0,0
12528,2024 10 23,05:25:54.387,-0.168174,-0.569689,0.532462,-0.603039,-2.30427,-3.660756,1.630421,72.021484,-90.515137,15.74707,0,0
12529,2024 10 23,05:25:54.395,-0.166479,-0.573303,0.528388,-0.603668,-2.005432,-3.45909,1.302286,41.870117,-14.404297,-22.460938,0,0
12530,2024 10 23,05:25:54.404,-0.170699,-0.575742,0.52392,-0.604062,-7.204809,-4.603656,-1.100131,-1.159668,11.901855,-65.368652,0,0
12531,2024 10 23,05:25:54.412,-0.190365,-0.58782,0.512423,-0.596366,-0.675802,-2.191962,5.357097,-52.91748,73.608398,-295.959473,1,0
12532,2024 10 23,05:25:54.420,-0.23224,-0.575429,0.499249,-0.604728,-0.603534,1.620655,-3.55968,-252.563477,440.551758,-281.25,0,0
12533,2024 10 23,05:25:54.429,-0.23224,-0.575429,0.499249,-0.604728,-0.603534,1.620655,-3.559679,-252.563477,440.551758,-281.25,0,0
12534,2024 10 23,05:25:54.437,-0.250388,-0.577666,0.489086,-0.603658,-1.655324,0.252449,0.148442,24.414063,20.263672,-196.350098,0,0
12535,2024 10 23,05:25:54.445,-0.272864,-0.577636,0.477875,-0.602924,-2.031312,1.979064,-0.320322,-84.716797,235.229492,-238.342285,0,0
12536,2024 10 23,05:25:54.454,-0.291023,-0.575446,0.457246,-0.612448,-0.786645,-0.225104,-0.521012,104.675293,200.256348,-224.42627,0,0
12537,2024 10 23,05:25:54.462,-0.304763,-0.579725,0.441182,-0.613512,-1.66802,-0.027833,0.792505,23.681641,96.801758,-211.547852,0,0
12538,2024 10 23,05:25:54.470,-0.316268,-0.579482,0.42761,-0.617515,-1.293985,-0.548845,-0.226569,40.100098,132.751465,-133.239746,0,0
12539,2024 10 23,05:25:54.479,-0.316268,-0.579482,0.42761,-0.617515,-1.293985,-0.548845,-0.226569,40.100098,132.751465,-133.239746,0,0
12540,2024 10 23,05:25:54.487,-0.324792,-0.578481,0.419826,-0.619367,-1.100131,0.129887,0.136235,-2.13623,74.584961,-87.280273,0,0
12541,2024 10 23,05:25:54.495,-0.329082,-0.578088,0.413848,-0.62149,-1.155309,0.103519,-0.002441,31.799316,57.678223,-51.940918,0,0
12542,2024 10 23,05:25:54.504,-0.331032,-0.577637,0.408152,-0.624632,-0.963897,-0.034669,-0.000488,40.222168,53.161621,-34.057617,0,0
12543,2024 10 23,05:25:54.512,-0.333047,-0.577107,0.403605,-0.627001,-0.855007,-0.04883,0.036622,22.827148,43.273926,-31.860352,0,0
12544,2024 10 23,05:25:54.520,-0.33482,-0.576717,0.400383,-0.62848,-1.001984,0.020997,-0.038575,16.540527,30.151367,-22.827148,0,0
12545,2024 10 23,05:25:54.529,-0.33482,-0.576717,0.400383,-0.62848,-1.001984,0.020997,-0.038575,16.540527,30.151367,-22.827148,0,0
12546,2024 10 23,05:25:54.537,-0.335817,-0.575909,0.397724,-0.630374,-1.093295,0.021485,-0.02295,16.967773,36.376953,-10.864258,0,0
12547,2024 10 23,05:25:54.545,-0.337168,-0.574063,0.395176,-0.632935,-1.036653,0.096194,0.010743,13.549805,48.88916,-7.568359,0,0
12548,2024 10 23,05:25:54.554,-0.33848,-0.572179,0.392654,-0.635504,-0.988311,0.115726,0.009766,13.85498,44.128418,-7.873535,0,0
12549,2024 10 23,05:25:54.562,-0.339546,-0.570986,0.390342,-0.637429,-0.933622,0.129887,0.136235,13.549805,32.165527,-11.047363,0,0
12550,2024 10 23,05:25:54.570,-0.34028,-0.570538,0.388218,-0.638735,-0.988311,0.117679,0.038575,14.770508,19.53125,-12.573242,0,0
12551,2024 10 23,05:25:54.579,-0.34028,-0.570538,0.388218,-0.638735,-0.988311,0.117679,0.038575,14.770508,19.53125,-12.573242,0,0
12552,2024 10 23,05:25:54.587,-0.340669,-0.570742,0.386246,-0.639541,-1.064486,0.106937,0.036134,16.418457,12.390137,-14.038086,0,0
12553,2024 10 23,05:25:54.595,-0.341241,-0.570744,0.384168,-0.640485,-1.009308,0.075686,0.039552,14.526367,18.676758,-13.916016,0,0
12554,2024 10 23,05:25:54.604,-0.341911,-0.570525,0.382227,-0.641483,-0.952178,0.070803,0.031739,13.671875,18.005371,-12.084961,0,0
12555,2024 10 23,05:25:54.612,-0.342443,-0.570409,0.380593,-0.642273,-0.915067,0.080569,0.076174,10.498047,13.73291,-10.620117,0,0
12556,2024 10 23,05:25:54.620,-0.342814,-0.570482,0.37931,-0.642769,-0.937529,0.075198,0.043947,9.521484,7.568359,-9.155273,0,0
12557,2024 10 23,05:25:54.629,-0.342968,-0.570776,0.378277,-0.643035,-0.958037,0.076174,0.054201,8.483887,3.540039,-7.629395,0,0
12558,2024 10 23,05:25:54.637,-0.342968,-0.570776,0.378277,-0.643035,-0.958037,0.076174,0.054201,8.483887,3.540039,-7.629395,0,0
12559,2024 10 23,05:25:54.645,-0.343121,-0.571051,0.37738,-0.643236,-0.959014,0.101566,0.055666,7.141113,3.540039,-7.69043,0,0
12560,2024 10 23,05:25:54.654,-0.343197,-0.571321,0.376471,-0.643488,-0.98587,0.077639,0.018067,8.056641,3.662109,-6.408691,0,0
12561,2024 10 23,05:25:54.662,-0.343334,-0.571499,0.375606,-0.643763,-0.960967,0.078616,0.033204,7.507324,5.249023,-6.225586,0,0
12562,2024 10 23,05:25:54.670,-0.343624,-0.571625,0.374738,-0.644002,-0.959014,0.083499,0.02588,4.760742,5.371094,-8.178711,0,0
12563,2024 10 23,05:25:54.679,-0.34396,-0.571721,0.373915,-0.644216,-0.954131,0.079592,0.047365,5.67627,5.67627,-7.324219,0,0
12564,2024 10 23,05:25:54.687,-0.34396,-0.571721,0.373915,-0.644216,-0.954131,0.079592,0.047365,5.67627,5.67627,-7.324219,0,0
12565,2024 10 23,05:25:54.695,-0.344279,-0.571774,0.373045,-0.644503,-0.932646,0.068361,0.050783,6.04248,6.469727,-7.019043,0,0
12566,2024 10 23,05:25:54.704,-0.34455,-0.571866,0.372237,-0.644743,-0.969756,0.057131,0.037111,5.371094,4.699707,-6.591797,0,0
12567,2024 10 23,05:25:54.712,-0.345123,-0.572131,0.371524,-0.644613,-0.965361,0.089358,0.051759,1.159668,2.868652,-11.71875,0,0
12568,2024 10 23,05:25:54.720,-0.345815,-0.572215,0.3707,-0.644642,-1.004913,0.063967,0.025391,1.647949,6.469727,-11.047363,0,0
12569,2024 10 23,05:25:54.729,-0.346713,-0.572229,0.369853,-0.644634,-0.980987,0.084475,0.064943,0.183105,7.568359,-12.512207,0,0
12570,2024 10 23,05:25:54.737,-0.346713,-0.572229,0.369853,-0.644634,-0.980987,0.084475,0.064943,0.183105,7.568359,-12.512207,0,0
12571,2024 10 23,05:25:54.745,-0.347595,-0.572156,0.36888,-0.644781,-0.948759,0.050295,0.062014,1.464844,9.70459,-11.71875,0,0
12572,2024 10 23,05:25:54.754,-0.348536,-0.571974,0.367977,-0.64495,-0.959014,0.053713,0.050295,0.549316,9.94873,-11.169434,0,0
12573,2024 10 23,05:25:54.762,-0.349527,-0.571746,0.367109,-0.645112,-0.979522,0.045412,0.041017,-0.671387,10.986328,-11.352539,0,0
12574,2024 10 23,05:25:54.770,-0.350654,-0.571382,0.366262,-0.645303,-0.96878,0.066408,0.074221,-1.77002,12.329102,-11.71875,0,0
12575,2024 10 23,05:25:54.779,-0.351869,-0.57105,0.365338,-0.64546,-0.978057,0.059572,0.056154,-1.831055,12.451172,-13.366699,0,0
12576,2024 10 23,05:25:54.787,-0.351869,-0.57105,0.365338,-0.64546,-0.978057,0.059572,0.056154,-1.831055,12.451172,-13.366699,0,0
12577,2024 10 23,05:25:54.795,-0.353149,-0.570727,0.36437,-0.645594,-0.974151,0.062502,0.073244,-1.586914,12.573242,-14.160156,0,0
12578,2024 10 23,05:25:54.804,-0.354462,-0.570521,0.363333,-0.64564,-0.978057,0.071291,0.080569,-1.403809,10.986328,-15.869141,0,0
12579,2024 10 23,05:25:54.812,-0.355813,-0.570507,0.36225,-0.645519,-1.021027,0.069826,0.076662,-1.342773,8.850098,-18.188477,0,0
12580,2024 10 23,05:25:54.820,-0.357172,-0.570634,0.361034,-0.645337,-1.04593,0.052736,0.084964,-0.061035,7.995605,-20.080566,0,0
12581,2024 10 23,05:25:54.829,-0.358745,-0.570899,0.359707,-0.644971,-1.0347,0.105472,0.113773,-0.671387,7.751465,-23.742676,0,0
12582,2024 10 23,05:25:54.837,-0.358745,-0.570899,0.359707,-0.644971,-1.0347,0.105472,0.113773,-0.671387,7.751465,-23.742676,0,0
12583,2024 10 23,05:25:54.845,-0.360338,-0.5713,0.358055,-0.644646,-1.052767,0.062502,0.053713,1.77002,7.69043,-26.855469,0,0
12584,2024 10 23,05:25:54.854,-0.362038,-0.571825,0.356312,-0.644194,-1.032258,0.044435,0.052736,3.051758,7.629395,-28.381348,0,0
12585,2024 10 23,05:25:54.862,-0.363902,-0.572478,0.354512,-0.643557,-1.074252,0.051271,0.030274,0.366211,5.371094,-32.043457,0,0
12586,2024 10 23,05:25:54.870,-0.365998,-0.573484,0.352635,-0.642503,-1.107944,0.102054,0.109867,0.671387,1.464844,-37.902832,0,0
12587,2024 10 23,05:25:54.879,-0.36833,-0.574573,0.350269,-0.641491,-1.087435,0.047365,0.08301,3.051758,5.79834,-43.518066,0,0
12588,2024 10 23,05:25:54.887,-0.36833,-0.574573,0.350269,-0.641491,-1.087435,0.047365,0.08301,3.051758,5.79834,-43.518066,0,0
12589,2024 10 23,05:25:54.895,-0.370966,-0.576025,0.34764,-0.640098,-1.189001,0.092288,0.055666,2.685547,-0.549316,-50.354004,0,0
12590,2024 10 23,05:25:54.904,-0.373747,-0.578048,0.344612,-0.638292,-1.279336,0.107913,0.146977,6.103516,-1.098633,-58.959961,0,0
12591,2024 10 23,05:25:54.912,-0.37711,-0.580134,0.340662,-0.636539,-1.378948,0.127445,0.088382,7.019043,3.479004,-70.068359,0,0
12592,2024 10 23,05:25:54.920,-0.381034,-0.582523,0.335626,-0.634692,-1.385296,0.041017,-0.035157,17.883301,8.300781,-82.275391,0,0
12593,2024 10 23,05:25:54.929,-0.38565,-0.585379,0.330228,-0.632103,-1.386761,0.118168,0.203131,13.183594,4.333496,-96.435547,0,0
12594,2024 10 23,05:25:54.937,-0.38565,-0.585379,0.330228,-0.632103,-1.386761,0.118168,0.203131,13.183594,4.333496,-96.435547,0,0
12595,2024 10 23,05:25:54.945,-0.39092,-0.58868,0.32365,-0.629197,-1.417524,0.15772,0.20069,10.070801,5.126953,-113.15918,0,0
12596,2024 10 23,05:25:54.954,-0.396915,-0.59227,0.315876,-0.626016,-1.547899,0.041505,-0.015625,21.911621,10.070801,-128.173828,0,0
12597,2024 10 23,05:25:54.962,-0.404252,-0.596441,0.307191,-0.621669,-1.630421,0.093265,0.018067,15.74707,7.141113,-153.442383,0,0
12598,2024 10 23,05:25:54.970,-0.41286,-0.600946,0.296929,-0.616638,-1.7022,0.050783,-0.110355,16.174316,13.671875,-178.405762,0,0
12599,2024 10 23,05:25:54.979,-0.423379,-0.605497,0.28555,-0.610397,-1.819391,0.207038,-0.086917,7.507324,17.089844,-206.176758,0,0
12600,2024 10 23,05:25:54.987,-0.423379,-0.605497,0.28555,-0.610397,-1.819391,0.207038,-0.086917,7.507324,17.089844,-206.176758,0,0
12601,2024 10 23,05:25:54.995,-0.43536,-0.610306,0.272438,-0.60313,-2.039613,0.339854,0.04004,7.141113,21.66748,-236.51123,0,0
12602,2024 10 23,05:25:55.004,-0.449366,-0.614639,0.257253,-0.595071,-2.175848,0.519547,0.136723,6.225586,41.564941,-271.118164,0,0
12603,2024 10 23,05:25:55.012,-0.46486,-0.618454,0.237998,-0.587177,-2.256905,0.327158,-0.256844,18.066406,70.068359,-309.570313,0,0
12604,2024 10 23,05:25:55.020,-0.482616,-0.62231,0.216544,-0.576993,-2.557695,0.530778,-0.078127,10.498047,66.52832,-352.478027,0,0
12605,2024 10 23,05:25:55.029,-0.502065,-0.625078,0.19174,-0.566078,-2.767174,0.517594,-0.112308,14.221191,100.158691,-389.648438,0,0
12606,2024 10 23,05:25:55.037,-0.502065,-0.625078,0.19174,-0.566078,-2.767174,0.517594,-0.112308,14.221191,100.158691,-389.648438,0,0
12607,2024 10 23,05:25:55.045,-0.522911,-0.626685,0.16401,-0.554013,-2.981048,0.559099,0.016602,12.207031,118.164063,-425.170898,0,0
12608,2024 10 23,05:25:55.054,-0.544273,-0.627176,0.132663,-0.541127,-3.187109,0.033204,0.105472,30.273438,133.911133,-456.237793,0,0
12609,2024 10 23,05:25:55.062,-0.566553,-0.626421,0.098911,-0.526146,-2.786218,0.648457,0.107425,14.160156,153.991699,-488.586426,0,0
12610,2024 10 23,05:25:55.070,-0.585807,-0.625184,0.065993,-0.511488,-3.282815,0.32374,0.306162,45.166016,130.249023,-450.98877,0,0
12611,2024 10 23,05:25:55.079,-0.605489,-0.621328,0.032324,-0.496276,-2.480545,0.833033,-0.365734,8.728027,171.936035,-476.928711,0,0
12612,2024 10 23,05:25:55.087,-0.624897,-0.616586,-0.00269,-0.478872,-1.845759,0.679708,-0.842311,20.751953,146.484375,-496.398926,0,0
12613,2024 10 23,05:25:55.095,-0.624897,-0.616586,-0.00269,-0.478872,-1.845759,0.679708,-0.842311,20.751953,146.484375,-496.398926,0,0
12614,2024 10 23,05:25:55.104,-0.645494,-0.61049,-0.036133,-0.45753,-1.397504,0.875515,-0.993683,-13.671875,121.826172,-516.418457,0,0
12615,2024 10 23,05:25:55.112,-0.666046,-0.604193,-0.067435,-0.432186,-0.704123,0.951689,-1.499557,-24.536133,64.51416,-526.916504,0,1
12616,2024 10 23,05:25:55.120,-0.686195,-0.599041,-0.091735,-0.402331,-0.536637,0.625996,-1.117222,-49.072266,-30.395508,-492.1875,0,0
12617,2024 10 23,05:25:55.129,-0.70501,-0.591362,-0.107182,-0.376516,0.780297,1.210974,-0.658223,-107.421875,-25.817871,-362.243652,0,0
12618,2024 10 23,05:25:55.137,-0.716837,-0.583081,-0.110741,-0.365921,1.277383,2.497147,0.194342,-148.498535,-29.052734,-97.53418,0,0
12619,2024 10 23,05:25:55.145,-0.716837,-0.583081,-0.110741,-0.365921,1.277383,2.497147,0.194342,-148.498535,-29.052734,-97.53418,0,0
12620,2024 10 23,05:25:55.154,-0.71942,-0.57788,-0.101077,-0.371851,0.396008,2.193426,-0.317881,-81.420898,-15.014648,154.052734,0,0
12621,2024 10 23,05:25:55.162,-0.713247,-0.576461,-0.08427,-0.389705,-0.340342,1.639699,-0.034669,-53.344727,-7.995605,318.054199,0,0
12622,2024 10 23,05:25:55.170,-0.701367,-0.576454,-0.064203,-0.414323,-0.899441,1.033235,-0.172857,-26.428223,20.568848,395.690918,0,0
12623,2024 10 23,05:25:55.179,-0.686457,-0.576132,-0.044283,-0.441459,-0.753929,0.566424,-0.446303,-16.723633,32.836914,417.541504,0,0
12624,2024 10 23,05:25:55.187,-0.671045,-0.5757,-0.023671,-0.466591,-0.594256,0.358898,-0.50441,-21.057129,10.314941,400.695801,0,0
12625,2024 10 23,05:25:55.195,-0.671045,-0.5757,-0.023671,-0.466591,-0.594256,0.358898,-0.50441,-21.057129,10.314941,400.695801,0,0
12626,2024 10 23,05:25:55.204,-0.656865,-0.575193,-0.002974,-0.487517,-0.552263,0.15186,-0.715354,-32.287598,-21.118164,358.703613,0,0
12627,2024 10 23,05:25:55.212,-0.644665,-0.575089,0.018356,-0.503331,-0.649922,0.101077,-0.647969,-46.875,-61.828613,314.331055,0,0
12628,2024 10 23,05:25:55.220,-0.634063,-0.575041,0.040182,-0.51544,-0.671896,0.248054,-0.474136,-58.776855,-84.472656,285.949707,0,0
12629,2024 10 23,05:25:55.229,-0.623737,-0.574621,0.062387,-0.526185,-0.658223,0.489761,-0.301767,-62.316895,-91.73584,282.775879,0,0
12630,2024 10 23,05:25:55.237,-0.612266,-0.57393,0.085123,-0.537111,-0.734886,0.627461,-0.189947,-57.312012,-92.102051,297.790527,0,0
12631,2024 10 23,05:25:55.245,-0.612266,-0.57393,0.085123,-0.537111,-0.734886,0.627461,-0.189947,-57.312012,-92.102051,297.790527,0,0
12632,2024 10 23,05:25:55.254,-0.598929,-0.572738,0.108341,-0.549106,-0.784692,0.641133,-0.185553,-49.072266,-86.303711,321.289063,0,0
12633,2024 10 23,05:25:55.262,-0.583641,-0.571083,0.132204,-0.561916,-0.781274,0.518571,-0.270028,-44.250488,-87.524414,342.956543,0,0
12634,2024 10 23,05:25:55.270,-0.56702,-0.569327,0.157319,-0.574113,-0.839869,0.387707,-0.337413,-47.363281,-104.675293,353.088379,0,0
12635,2024 10 23,05:25:55.279,-0.54979,-0.567955,0.18379,-0.584277,-0.964385,0.315439,-0.325694,-55.236816,-132.019043,349.182129,0,0
12636,2024 10 23,05:25:55.287,-0.532361,-0.56709,0.2113,-0.591906,-1.149937,0.321299,-0.231452,-62.072754,-157.714844,339.294434,0,0
12637,2024 10 23,05:25:55.295,-0.532361,-0.56709,0.2113,-0.591906,-1.149937,0.321299,-0.231452,-62.072754,-157.714844,339.294434,0,0
12638,2024 10 23,05:25:55.304,-0.514674,-0.566645,0.239171,-0.597346,-1.390179,0.376476,-0.10303,-64.086914,-175.90332,329.223633,0,0
12639,2024 10 23,05:25:55.312,-0.496465,-0.566182,0.266841,-0.601462,-1.59624,0.471206,0.0459,-61.279297,-181.82373,325.317383,0,0
12640,2024 10 23,05:25:55.320,-0.477272,-0.565129,0.293895,-0.605365,-1.738334,0.55324,0.149907,-52.490234,-177.429199,330.444336,0,0
12641,2024 10 23,05:25:55.329,-0.456731,-0.563467,0.320054,-0.609481,-1.817927,0.562029,0.209967,-39.855957,-172.119141,336.975098,0,0
12642,2024 10 23,05:25:55.337,-0.434915,-0.561459,0.345161,-0.613577,-1.917051,0.514664,0.147465,-26.184082,-170.959473,339.538574,0,0
12643,2024 10 23,05:25:55.345,-0.434915,-0.561459,0.345161,-0.613577,-1.917051,0.514664,0.147465,-26.184082,-170.959473,339.538574,0,0
12644,2024 10 23,05:25:55.354,-0.411978,-0.55976,0.36934,-0.616872,-2.053285,0.406751,0.127934,-14.648438,-180.480957,335.632324,0,0
12645,2024 10 23,05:25:55.362,-0.388325,-0.558433,0.392695,-0.618989,-2.213446,0.201178,0.073244,-10.070801,-189.208984,329.162598,0,0
12646,2024 10 23,05:25:55.370,-0.364421,-0.557381,0.41541,-0.619644,-2.392651,-0.083987,0.02295,-10.192871,-199.34082,320.129395,0,0
12647,2024 10 23,05:25:55.379,-0.340797,-0.556596,0.43746,-0.618617,-2.523515,-0.43849,0.058107,-15.930176,-207.092285,307.495117,0,0
12648,2024 10 23,05:25:55.387,-0.31791,-0.555674,0.459039,-0.61599,-2.594317,-0.713401,0.108402,-26.489258,-210.754395,297.302246,0,0
12649,2024 10 23,05:25:55.395,-0.31791,-0.555674,0.459039,-0.61599,-2.594317,-0.713401,0.108402,-26.489258,-210.754395,297.302246,0,0
12650,2024 10 23,05:25:55.404,-0.295664,-0.554369,0.480241,-0.612067,-2.809168,-0.938017,0.205573,-35.217285,-210.998535,289.916992,0,0
12651,2024 10 23,05:25:55.412,-0.274573,-0.55243,0.4999,-0.607891,-3.011322,-1.347697,0.344249,-32.104492,-192.016602,273.986816,0,0
12652,2024 10 23,05:25:55.420,-0.256215,-0.549743,0.516665,-0.604313,-2.764733,-1.841853,0.287118,-28.503418,-156.982422,241.943359,0,0
12653,2024 10 23,05:25:55.429,-0.240614,-0.547804,0.53073,-0.600284,-2.09772,-2.149968,0.322764,-27.954102,-150.817871,200.012207,0,0
12654,2024 10 23,05:25:55.437,-0.226251,-0.549185,0.542909,-0.593681,-1.469283,-2.154851,0.8511,-29.35791,-185.974121,150.817871,0,0
12655,2024 10 23,05:25:55.445,-0.226251,-0.549185,0.542909,-0.593681,-1.469283,-2.154851,0.8511,-29.35791,-185.974121,150.817871,0,0
12656,2024 10 23,05:25:55.454,-0.211015,-0.555396,0.553354,-0.583788,-1.597217,-2.184149,1.496628,-16.967773,-250.244141,108.520508,0,0
12657,2024 10 23,05:25:55.462,-0.19466,-0.564836,0.561112,-0.572906,-2.55916,-2.593341,2.29841,15.014648,-260.864258,82.092285,0,0
12658,2024 10 23,05:25:55.470,-0.181985,-0.571803,0.564147,-0.567152,-3.045991,-3.171972,2.43025,45.898438,-151.672363,56.945801,0,0
12659,2024 10 23,05:25:55.479,-0.177203,-0.573573,0.561753,-0.569251,-2.342357,-3.743767,1.419477,65.795898,-7.93457,20.629883,0,0
12660,2024 10 23,05:25:55.487,-0.178892,-0.574233,0.557499,-0.572232,-1.644581,-3.304788,0.865749,30.822754,30.212402,-26.672363,0,0
12661,2024 10 23,05:25:55.495,-0.178892,-0.574233,0.557499,-0.572232,-1.644581,-3.304788,0.865749,30.822754,30.212402,-26.672363,0,0
12662,2024 10 23,05:25:55.504,-0.183435,-0.576701,0.553483,-0.57221,-4.885891,-2.864345,-0.651387,-4.272461,5.432129,-62.805176,0,0
12663,2024 10 23,05:25:55.512,-0.198341,-0.588654,0.542629,-0.565421,-1.397992,-0.166997,6.768761,21.66748,58.105469,-273.742676,1,0
12664,2024 10 23,05:25:55.520,-0.234079,-0.572857,0.519323,-0.58936,-0.540544,0.383312,-5.417646,-91.97998,572.021484,-241.943359,0,0
12665,2024 10 23,05:25:55.529,-0.248678,-0.577481,0.507226,-0.589404,-1.726127,0.688986,-0.001465,109.741211,-51.330566,-190.795898,0,0
12666,2024 10 23,05:25:55.537,-0.263153,-0.580518,0.49211,-0.59294,-1.999084,1.94293,1.829646,-24.414063,256.103516,-220.581055,0,0
12667,2024 10 23,05:25:55.545,-0.284921,-0.571882,0.467247,-0.611106,0.193365,0.090335,-1.879452,139.038086,328.613281,-212.158203,0,0
12668,2024 10 23,05:25:55.554,-0.284921,-0.571882,0.467247,-0.611106,0.193365,0.090335,-1.879452,139.038086,328.613281,-212.158203,0,0
12669,2024 10 23,05:25:55.562,-0.296875,-0.578676,0.45052,-0.611581,-1.781793,-0.086917,2.306711,27.770996,42.541504,-230.34668,0,0
12670,2024 10 23,05:25:55.570,-0.313662,-0.577171,0.434124,-0.616462,-1.150426,-0.301767,-0.787133,29.602051,199.523926,-184.509277,0,0
12671,2024 10 23,05:25:55.579,-0.324519,-0.577735,0.424173,-0.617242,-1.665578,0.010254,0.078616,-0.549316,63.842773,-125.671387,0,0
12672,2024 10 23,05:25:55.587,-0.331328,-0.576857,0.416148,-0.619902,-1.40141,0.118168,0.094729,31.12793,100.585938,-75.439453,0,0
12673,2024 10 23,05:25:55.595,-0.335993,-0.574463,0.407979,-0.625023,-0.987823,-0.068361,-0.247078,44.555664,95.214844,-50.292969,0,0
12674,2024 10 23,05:25:55.604,-0.335993,-0.574463,0.407979,-0.625023,-0.987823,-0.068361,-0.247078,44.555664,95.214844,-50.292969,0,0
12675,2024 10 23,05:25:55.612,-0.338958,-0.573633,0.402005,-0.628048,-0.85989,-0.006348,0.270516,29.052734,56.518555,-42.541504,0,0
12676,2024 10 23,05:25:55.620,-0.341527,-0.572659,0.397457,-0.630435,-0.923856,-0.062014,-0.08301,21.240234,48.950195,-30.761719,0,0
12677,2024 10 23,05:25:55.629,-0.34301,-0.571789,0.394175,-0.632477,-1.031281,-0.086917,0.0,19.775391,38.818359,-16.235352,0,0
12678,2024 10 23,05:25:55.637,-0.344737,-0.56991,0.391514,-0.634883,-0.938017,0.035646,0.11182,9.399414,50.90332,-9.70459,0,0
12679,2024 10 23,05:25:55.645,-0.346262,-0.567928,0.389264,-0.637209,-0.876492,0.093753,0.054689,7.93457,39.916992,-7.385254,0,0
12680,2024 10 23,05:25:55.654,-0.346262,-0.567928,0.389264,-0.637209,-0.876492,0.093753,0.054689,7.93457,39.916992,-7.385254,0,0
12681,2024 10 23,05:25:55.662,-0.347055,-0.567216,0.387694,-0.638367,-0.981964,0.116214,0.142094,8.850098,17.76123,-9.155273,0,0
12682,2024 10 23,05:25:55.670,-0.347619,-0.567118,0.386163,-0.639075,-1.014191,0.135746,0.019044,12.084961,11.962891,-11.352539,0,0
12683,2024 10 23,05:25:55.679,-0.347704,-0.567817,0.384748,-0.639261,-1.098178,0.124516,0.029298,13.244629,-0.366211,-12.512207,0,0
12684,2024 10 23,05:25:55.687,-0.347653,-0.568596,0.383252,-0.639495,-1.116245,0.097659,0.031251,15.869141,3.90625,-11.901855,0,0
12685,2024 10 23,05:25:55.695,-0.347939,-0.568862,0.381409,-0.640204,-1.067904,0.063478,-0.003418,15.991211,13.183594,-12.573242,0,0
12686,2024 10 23,05:25:55.704,-0.347939,-0.568862,0.381409,-0.640204,-1.067904,0.063478,-0.003418,15.991211,13.183594,-12.573242,0,0
12687,2024 10 23,05:25:55.712,-0.348388,-0.568989,0.379542,-0.640957,-1.013703,0.079592,0.045412,13.85498,13.671875,-12.512207,0,0
12688,2024 10 23,05:25:55.720,-0.348805,-0.568952,0.377814,-0.641783,-0.990753,0.077639,0.010254,13.305664,14.404297,-10.375977,0,0
12689,2024 10 23,05:25:55.729,-0.349061,-0.568959,0.376298,-0.642528,-0.992218,0.098636,0.045412,13.000488,11.59668,-8.239746,0,0
12690,2024 10 23,05:25:55.737,-0.34912,-0.568858,0.374827,-0.643444,-0.993683,0.122562,0.050783,13.73291,13.85498,-5.432129,0,0
12691,2024 10 23,05:25:55.745,-0.348901,-0.568531,0.373262,-0.64476,-0.981475,0.123539,0.043947,18.859863,16.906738,-1.464844,0,0
12692,2024 10 23,05:25:55.754,-0.348901,-0.568531,0.373262,-0.64476,-0.981475,0.123539,0.043947,18.859863,16.906738,-1.464844,0,0
12693,2024 10 23,05:25:55.762,-0.348426,-0.568224,0.371575,-0.64626,-1.090365,0.056154,-0.06006,20.935059,17.39502,0.12207,0,0
12694,2024 10 23,05:25:55.770,-0.348296,-0.567487,0.36978,-0.648006,-0.987335,0.087405,0.029298,19.226074,27.954102,0.915527,0,0
12695,2024 10 23,05:25:55.779,-0.348026,-0.565975,0.367641,-0.650685,-0.892605,0.019532,0.018555,23.925781,37.658691,6.225586,0,0
12696,2024 10 23,05:25:55.787,-0.348407,-0.564782,0.365821,-0.652541,-0.90286,0.115238,0.127934,8.178711,26.916504,-8.239746,0,0
12697,2024 10 23,05:25:55.795,-0.349263,-0.563631,0.363665,-0.65428,-0.92288,0.014649,0.045412,13.305664,33.26416,-8.666992,0,0
12698,2024 10 23,05:25:55.804,-0.349263,-0.563631,0.363665,-0.65428,-0.92288,0.014649,0.045412,13.305664,33.26416,-8.666992,0,0
12699,2024 10 23,05:25:55.812,-0.350714,-0.562605,0.361808,-0.655416,-0.930692,0.113773,0.188482,3.417969,26.794434,-15.563965,0,0
12700,2024 10 23,05:25:55.820,-0.352259,-0.562043,0.359756,-0.656198,-0.892117,0.040529,0.143071,3.356934,22.888184,-20.507813,0,0
12701,2024 10 23,05:25:55.829,-0.354143,-0.561564,0.357977,-0.656568,-0.958525,0.095706,0.105472,1.098633,18.676758,-22.705078,0,0
12702,2024 10 23,05:25:55.837,-0.35576,-0.56162,0.35614,-0.656645,-0.923368,0.002441,0.110355,5.554199,14.282227,-23.55957,0,0
12703,2024 10 23,05:25:55.845,-0.35759,-0.561683,0.35458,-0.656441,-0.950713,0.087405,0.168462,-3.173828,10.681152,-25.57373,0,0
12704,2024 10 23,05:25:55.854,-0.35759,-0.561683,0.35458,-0.656441,-0.950713,0.087405,0.168462,-3.173828,10.681152,-25.57373,0,0
12705,2024 10 23,05:25:55.862,-0.359342,-0.561773,0.352882,-0.656322,-0.950713,0.032228,0.104495,1.831055,13.183594,-24.963379,0,0
12706,2024 10 23,05:25:55.870,-0.361199,-0.561848,0.351243,-0.656118,-0.984893,0.045412,0.098148,0.0,11.84082,-25.695801,0,0
12707,2024 10 23,05:25:55.879,-0.363092,-0.561863,0.349602,-0.655936,-1.042512,0.043947,0.119633,-1.220703,14.160156,-26.123047,0,0
12708,2024 10 23,05:25:55.887,-0.365302,-0.561401,0.347711,-0.65611,-1.012238,0.006836,0.032716,-1.220703,23.803711,-25.695801,0,0
12709,2024 10 23,05:25:55.895,-0.367676,-0.5608,0.345978,-0.656214,-1.059114,0.049318,0.118656,-4.943848,21.54541,-26.245117,0,0
12710,2024 10 23,05:25:55.904,-0.367676,-0.5608,0.345978,-0.656214,-1.059114,0.049318,0.118656,-4.943848,21.54541,-26.245117,0,0
12711,2024 10 23,05:25:55.912,-0.37023,-0.559942,0.343954,-0.656575,-1.049837,0.02002,0.084964,-3.295898,29.907227,-27.770996,0,0
12712,2024 10 23,05:25:55.920,-0.373147,-0.558849,0.34184,-0.656959,-1.091342,0.055666,0.098636,-6.713867,31.066895,-30.273438,0,0
12713,2024 10 23,05:25:55.929,-0.376287,-0.557708,0.339505,-0.657348,-1.043001,0.024415,0.147465,-4.638672,35.03418,-33.26416,0,0
12714,2024 10 23,05:25:55.937,-0.379707,-0.556543,0.337049,-0.657633,-1.046419,0.06885,0.189947,-8.483887,33.569336,-36.621094,0,0
12715,2024 10 23,05:25:55.945,-0.383192,-0.555643,0.334336,-0.657756,-1.065951,0.037111,0.140629,-4.760742,32.409668,-40.771484,0,0
12716,2024 10 23,05:25:55.954,-0.383192,-0.555643,0.334336,-0.657756,-1.065951,0.037111,0.140629,-4.760742,32.409668,-40.771484,0,0
12717,2024 10 23,05:25:55.962,-0.386854,-0.555066,0.331601,-0.657485,-1.142613,0.096194,0.231452,-6.164551,27.770996,-45.288086,0,0
12718,2024 10 23,05:25:55.970,-0.39066,-0.554688,0.328136,-0.657291,-1.138218,0.047365,0.121586,-0.12207,32.470703,-52.307129,0,0
12719,2024 10 23,05:25:55.979,-0.394794,-0.554672,0.324432,-0.656674,-1.1807,0.070803,0.165044,0.427246,26.794434,-59.692383,0,0
12720,2024 10 23,05:25:55.987,-0.399166,-0.555121,0.320222,-0.655717,-1.22953,0.054689,0.193854,2.685547,26.428223,-68.481445,0,0
12721,2024 10 23,05:25:55.995,-0.404011,-0.555835,0.315414,-0.654474,-1.217811,0.051759,0.17188,4.272461,26.489258,-78.00293,0,0
12722,2024 10 23,05:25:56.004,-0.409155,-0.557033,0.310132,-0.652782,-1.255409,0.054689,0.155766,7.141113,22.399902,-87.341309,0,0
12723,2024 10 23,05:25:56.012,-0.409155,-0.557033,0.310132,-0.652782,-1.255409,0.054689,0.155766,7.141113,22.399902,-87.341309,0,0
12724,2024 10 23,05:25:56.020,-0.414652,-0.558748,0.3044,-0.650542,-1.279336,0.073733,0.24073,8.911133,19.226074,-97.77832,0,0
12725,2024 10 23,05:25:56.029,-0.420576,-0.560741,0.297823,-0.648064,-1.351604,0.099612,0.240242,11.962891,21.362305,-109.008789,0,0
12726,2024 10 23,05:25:56.037,-0.426937,-0.563068,0.290311,-0.645289,-1.346233,0.131352,0.251473,19.40918,24.291992,-120.910645,0,0
12727,2024 10 23,05:25:56.045,-0.433691,-0.565691,0.281702,-0.6423,-1.369671,0.094729,0.160649,24.169922,25.756836,-133.972168,0,0
12728,2024 10 23,05:25:56.054,-0.441035,-0.568934,0.272246,-0.638502,-1.455122,0.063967,0.136723,25.939941,21.606445,-150.20752,0,0
12729,2024 10 23,05:25:56.062,-0.441035,-0.568934,0.272246,-0.638502,-1.455122,0.063967,0.136723,25.939941,21.606445,-150.20752,0,0
12730,2024 10 23,05:25:56.070,-0.449547,-0.572551,0.262024,-0.63359,-1.604541,0.092288,0.130863,22.033691,21.66748,-172.363281,0,0
12731,2024 10 23,05:25:56.079,-0.459442,-0.576118,0.250229,-0.628002,-1.75103,0.108402,0.036134,22.094727,31.982422,-197.631836,0,0
12732,2024 10 23,05:25:56.087,-0.471034,-0.579559,0.23674,-0.621444,-1.872616,0.13477,0.004883,19.104004,39.550781,-227.478027,0,0
12733,2024 10 23,05:25:56.095,-0.484514,-0.583141,0.221579,-0.613267,-2.143132,0.288583,0.083987,15.075684,41.015625,-263.305664,0,0
12734,2024 10 23,05:25:56.104,-0.499981,-0.586542,0.204066,-0.60361,-2.489822,0.386242,0.042482,15.014648,54.80957,-304.077148,0,0
12735,2024 10 23,05:25:56.112,-0.499981,-0.586542,0.204066,-0.60361,-2.489822,0.386242,0.042482,15.014648,54.80957,-304.077148,0,0
12736,2024 10 23,05:25:56.120,-0.517418,-0.589431,0.183497,-0.592604,-2.770592,0.424329,-0.050295,15.991211,72.387695,-346.313477,0,0
12737,2024 10 23,05:25:56.129,-0.53667,-0.591386,0.159805,-0.580268,-2.893643,0.479995,-0.056154,15.991211,94.665527,-386.59668,0,0
12738,2024 10 23,05:25:56.137,-0.557023,-0.592179,0.132703,-0.566956,-3.000092,0.335948,0.125004,25.878906,117.126465,-418.640137,0,0
12739,2024 10 23,05:25:56.145,-0.57824,-0.591161,0.102571,-0.552853,-3.137303,0.578143,0.670431,21.54541,149.780273,-448.242188,0,0
12740,2024 10 23,05:25:56.154,-0.598726,-0.587412,0.069351,-0.54006,-2.364818,0.410657,0.20069,39.672852,185.913086,-444.213867,0,0
12741,2024 10 23,05:25:56.162,-0.598726,-0.587412,0.069351,-0.54006,-2.364818,0.410657,0.20069,39.672852,185.913086,-444.213867,0,0
12742,2024 10 23,05:25:56.170,-0.617443,-0.584718,0.037569,-0.524841,-2.481521,0.206061,0.02588,41.870117,138.122559,-441.40625,0,0
12743,2024 10 23,05:25:56.179,-0.636777,-0.580162,0.006173,-0.507828,-1.969298,0.608905,-0.328135,23.620605,153.442383,-459.411621,0,0
12744,2024 10 23,05:25:56.187,-0.655698,-0.575585,-0.0247,-0.488008,-1.616749,0.638203,-0.498062,18.554688,116.027832,-472.045898,0,0
12745,2024 10 23,05:25:56.195,-0.674818,-0.57058,-0.053555,-0.464964,-1.229041,0.800317,-0.709983,-3.295898,83.190918,-483.337402,0,1
12746,2024 10 23,05:25:56.204,-0.693238,-0.564838,-0.079476,-0.440524,-0.38966,0.802271,-1.023469,-11.413574,59.265137,-454.223633,0,0
12747,2024 10 23,05:25:56.212,-0.693238,-0.564838,-0.079476,-0.440524,-0.38966,0.802271,-1.023469,-11.413574,59.265137,-454.223633,0,0
12748,2024 10 23,05:25:56.220,-0.708812,-0.557933,-0.099164,-0.420075,1.053255,1.209998,-0.837916,-70.43457,45.654297,-347.106934,0,0
12749,2024 10 23,05:25:56.229,-0.718102,-0.552248,-0.107889,-0.409526,0.581072,1.216834,-0.567888,-63.415527,-11.474609,-132.080078,0,0
12750,2024 10 23,05:25:56.237,-0.72226,-0.546302,-0.101993,-0.411694,0.097659,1.823298,-0.226569,-75.439453,13.671875,78.308105,0,0
12751,2024 10 23,05:25:56.245,-0.718076,-0.542856,-0.091744,-0.425743,0.145512,1.664602,-0.59328,-67.138672,10.009766,230.529785,0,0
12752,2024 10 23,05:25:56.254,-0.708104,-0.543799,-0.074402,-0.444225,-0.556169,1.039582,0.036134,-25.756836,-21.484375,323.364258,0,0
12753,2024 10 23,05:25:56.262,-0.708104,-0.543799,-0.074402,-0.444225,-0.556169,1.039582,0.036134,-25.756836,-21.484375,323.364258,0,0
12754,2024 10 23,05:25:56.270,-0.695545,-0.544695,-0.056499,-0.465116,-0.554704,0.813501,-0.55324,-18.981934,-8.361816,343.811035,0,0
12755,2024 10 23,05:25:56.279,-0.68197,-0.547606,-0.037321,-0.483375,-0.591815,0.684103,-0.452162,-3.90625,-55.603027,330.13916,0,0
12756,2024 10 23,05:25:56.287,-0.668457,-0.551699,-0.018285,-0.498458,-0.694845,0.507828,-0.405774,6.896973,-69.824219,302.368164,0,0
12757,2024 10 23,05:25:56.295,-0.655306,-0.556091,-0.000234,-0.511212,-0.660665,0.40968,-0.482437,10.314941,-81.359863,278.503418,0,0
12758,2024 10 23,05:25:56.304,-0.642283,-0.560724,0.018155,-0.522237,-0.594256,0.447279,-0.394055,8.239746,-94.604492,272.277832,0,0
12759,2024 10 23,05:25:56.312,-0.642283,-0.560724,0.018155,-0.522237,-0.594256,0.447279,-0.394055,8.239746,-94.604492,272.277832,0,0
12760,2024 10 23,05:25:56.320,-0.628672,-0.564976,0.037582,-0.533068,-0.575701,0.517106,-0.391125,2.319336,-101.5625,285.888672,0,0
12761,2024 10 23,05:25:56.329,-0.613848,-0.568795,0.059049,-0.54422,-0.697287,0.570818,-0.330088,-4.882813,-111.999512,310.791016,0,0
12762,2024 10 23,05:25:56.337,-0.597602,-0.571787,0.082373,-0.55601,-0.812525,0.534684,-0.28956,-12.756348,-114.685059,335.510254,0,0
12763,2024 10 23,05:25:56.345,-0.580365,-0.573743,0.107048,-0.567923,-0.905301,0.434584,-0.31251,-22.216797,-118.591309,349.060059,0,0
12764,2024 10 23,05:25:56.354,-0.562926,-0.574965,0.132766,-0.578708,-1.024934,0.314951,-0.291513,-34.912109,-129.821777,347.167969,0,0
12765,2024 10 23,05:25:56.362,-0.562926,-0.574965,0.132766,-0.578708,-1.024934,0.314951,-0.291513,-34.912109,-129.821777,347.167969,0,0
12766,2024 10 23,05:25:56.370,-0.545939,-0.57558,0.159137,-0.587651,-1.0889,0.290048,-0.221686,-49.377441,-140.991211,336.120605,0,0
12767,2024 10 23,05:25:56.379,-0.529428,-0.575661,0.185906,-0.594777,-1.212928,0.319834,-0.154302,-60.241699,-150.939941,325.98877,0,0
12768,2024 10 23,05:25:56.387,-0.513045,-0.57529,0.212858,-0.600431,-1.406293,0.380383,0.001465,-66.894531,-157.348633,318.908691,0,0
12769,2024 10 23,05:25:56.395,-0.49652,-0.57412,0.23931,-0.605462,-1.522996,0.427259,0.081057,-66.833496,-150.878906,315.490723,0,0
12770,2024 10 23,05:25:56.404,-0.47957,-0.572105,0.265066,-0.610286,-1.571825,0.452651,0.077151,-64.208984,-144.958496,316.040039,0,0
12771,2024 10 23,05:25:56.412,-0.47957,-0.572105,0.265066,-0.610286,-1.571825,0.452651,0.077151,-64.208984,-144.958496,316.040039,0,0
12772,2024 10 23,05:25:56.420,-0.461772,-0.569643,0.290483,-0.61473,-1.657765,0.462905,0.082034,-59.326172,-146.972656,319.946289,0,0
12773,2024 10 23,05:25:56.429,-0.442947,-0.566944,0.315687,-0.618639,-1.735404,0.397961,0.060549,-53.771973,-152.038574,324.09668,0,0
12774,2024 10 23,05:25:56.437,-0.423096,-0.564338,0.340726,-0.621625,-1.891171,0.271493,0.02002,-49.987793,-163.085938,325.195313,0,0
12775,2024 10 23,05:25:56.445,-0.40244,-0.562094,0.365381,-0.623369,-2.085025,0.078127,0.027345,-44.86084,-174.438477,320.678711,0,0
12776,2024 10 23,05:25:56.454,-0.381473,-0.560174,0.389135,-0.623905,-2.217841,-0.210456,0.008789,-40.710449,-180.847168,310.791016,0,0
12777,2024 10 23,05:25:56.462,-0.360565,-0.558688,0.41184,-0.623096,-2.326731,-0.517106,0.022462,-37.231445,-188.659668,297.180176,0,0
12778,2024 10 23,05:25:56.470,-0.360565,-0.558688,0.41184,-0.623096,-2.326731,-0.517106,0.022462,-37.231445,-188.659668,297.180176,0,0
12779,2024 10 23,05:25:56.479,-0.339885,-0.557798,0.433408,-0.620884,-2.444899,-0.750999,0.095706,-35.400391,-196.105957,281.738281,0,0
12780,2024 10 23,05:25:56.487,-0.319447,-0.557336,0.453681,-0.61766,-2.638264,-0.909696,0.170415,-30.334473,-198.852539,267.883301,0,0
12781,2024 10 23,05:25:56.495,-0.299331,-0.557002,0.47208,-0.61424,-2.758385,-1.127476,0.272958,-17.089844,-190.490723,253.540039,0,0
12782,2024 10 23,05:25:56.504,-0.279999,-0.556626,0.488075,-0.611188,-2.552812,-1.419477,0.348155,-3.356934,-175.476074,234.863281,0,0
12783,2024 10 23,05:25:56.512,-0.261393,-0.557003,0.501846,-0.607925,-2.087466,-1.770074,0.413587,7.324219,-177.55127,210.693359,0,0
12784,2024 10 23,05:25:56.520,-0.261393,-0.557003,0.501846,-0.607925,-2.087466,-1.770074,0.413587,7.324219,-177.55127,210.693359,0,0
12785,2024 10 23,05:25:56.529,-0.243071,-0.559795,0.514109,-0.602692,-1.850642,-1.991272,0.764672,10.803223,-207.336426,178.344727,0,0
12786,2024 10 23,05:25:56.537,-0.225152,-0.565832,0.524178,-0.595296,-1.902402,-2.176824,1.367718,21.728516,-234.436035,134.033203,0,0
12787,2024 10 23,05:25:56.545,-0.208824,-0.574208,0.530494,-0.587583,-2.068423,-2.562578,1.858943,43.884277,-226.5625,85.205078,0,0
12788,2024 10 23,05:25:56.554,-0.195182,-0.582745,0.532748,-0.5818,-2.308176,-3.08359,2.022523,61.279297,-183.166504,50.476074,0,0
12789,2024 10 23,05:25:56.562,-0.186469,-0.588865,0.531771,-0.579385,-2.322825,-3.327738,1.861385,65.002441,-96.557617,21.484375,0,0
12790,2024 10 23,05:25:56.570,-0.186469,-0.588865,0.531771,-0.579385,-2.322825,-3.327738,1.861385,65.002441,-96.557617,21.484375,0,0
12791,2024 10 23,05:25:56.579,-0.183916,-0.591869,0.527778,-0.580789,-1.841853,-3.280862,1.231483,55.786133,-10.009766,-14.160156,0,0
12792,2024 10 23,05:25:56.587,-0.186111,-0.593966,0.522757,-0.582488,-1.360881,-2.794519,0.601093,27.526855,14.099121,-46.569824,0,0
12793,2024 10 23,05:25:56.595,-0.1945,-0.603904,0.517538,-0.574129,-6.13593,-1.866756,4.570452,-94.909668,-121.09375,-222.77832,0,0
12794,2024 10 23,05:25:56.604,-0.218713,-0.600804,0.494741,-0.588582,-1.273964,-2.360424,-1.102572,53.466797,475.891113,-227.355957,1,0
12795,2024 10 23,05:25:56.612,-0.25314,-0.587525,0.480456,-0.599914,-0.378918,2.259346,-3.045503,-56.57959,265.380859,-203.735352,0,0
12796,2024 10 23,05:25:56.620,-0.25314,-0.587525,0.480456,-0.599914,-0.378918,2.259346,-3.045503,-56.57959,265.380859,-203.735352,0,0
12797,2024 10 23,05:25:56.629,-0.259755,-0.594537,0.467631,-0.600312,-2.696859,0.518571,2.451247,19.165039,77.209473,-187.011719,0,0
12798,2024 10 23,05:25:56.637,-0.285669,-0.582455,0.448275,-0.61497,-0.521012,1.030305,-1.821345,45.043945,410.766602,-199.462891,0,0
12799,2024 10 23,05:25:56.645,-0.297761,-0.58374,0.431851,-0.61975,-1.812555,-0.383312,1.823298,22.644043,71.044922,-186.401367,0,0
12800,2024 10 23,05:25:56.654,-0.313354,-0.577471,0.418877,-0.6268,-1.383343,-0.099124,-0.50148,22.216797,254.211426,-116.638184,0,0
12801,2024 10 23,05:25:56.662,-0.321829,-0.571325,0.409518,-0.634278,-1.233436,-0.076174,0.106449,12.756348,128.723145,-52.67334,0,0
12802,2024 10 23,05:25:56.670,-0.321829,-0.571325,0.409518,-0.634278,-1.233436,-0.076174,0.106449,12.756348,128.723145,-52.67334,0,0
12803,2024 10 23,05:25:56.679,-0.327301,-0.566262,0.403283,-0.639988,-1.000519,0.465835,0.224128,30.700684,131.530762,-32.287598,0,0
12804,2024 10 23,05:25:56.687,-0.329646,-0.562608,0.395528,-0.64681,-0.669942,-0.158696,-0.003418,61.767578,93.017578,-23.925781,0,0
12805,2024 10 23,05:25:56.695,-0.330972,-0.561955,0.390682,-0.649639,-0.635762,-0.06299,0.598163,28.320313,37.536621,-27.832031,0,0
12806,2024 10 23,05:25:56.704,-0.333189,-0.561892,0.387685,-0.650356,-0.849147,0.097171,-0.130863,7.93457,17.51709,-32.592773,0,0
12807,2024 10 23,05:25:56.712,-0.333696,-0.56356,0.385694,-0.649836,-1.107944,0.034669,0.1377,18.188477,-7.507324,-23.4375,0,0
12808,2024 10 23,05:25:56.720,-0.333696,-0.56356,0.385694,-0.649836,-1.107944,0.034669,0.1377,18.188477,-7.507324,-23.4375,0,0
12809,2024 10 23,05:25:56.729,-0.334553,-0.563779,0.383479,-0.650517,-0.906766,0.02295,0.104984,12.207031,21.484375,-17.578125,0,0
12810,2024 10 23,05:25:56.737,-0.335369,-0.564049,0.381869,-0.650809,-0.940947,0.145512,-0.029298,9.82666,1.586914,-16.113281,0,0
12811,2024 10 23,05:25:56.745,-0.335378,-0.56545,0.380543,-0.650365,-1.064486,0.11475,0.163579,13.793945,-6.835938,-17.028809,0,0
12812,2024 10 23,05:25:56.754,-0.335746,-0.56631,0.378799,-0.650445,-1.030305,0.120121,-0.008789,14.648438,3.112793,-17.63916,0,0
12813,2024 10 23,05:25:56.762,-0.335974,-0.56754,0.377188,-0.650191,-1.093295,0.125004,0.02588,14.038086,-4.882813,-19.042969,0,0
12814,2024 10 23,05:25:56.770,-0.335974,-0.56754,0.377188,-0.650191,-1.093295,0.125004,0.02588,14.038086,-4.882813,-19.042969,0,0
12815,2024 10 23,05:25:56.779,-0.336254,-0.568545,0.375431,-0.650186,-1.047395,0.089358,0.049806,14.953613,3.356934,-17.39502,0,0
12816,2024 10 23,05:25:56.787,-0.33665,-0.569196,0.373715,-0.650399,-0.981964,0.110843,0.026368,13.549805,4.211426,-15.563965,0,0
12817,2024 10 23,05:25:56.795,-0.336731,-0.570071,0.372201,-0.650459,-0.963408,0.084964,0.080081,14.160156,-0.793457,-13.671875,0,0
12818,2024 10 23,05:25:56.804,-0.33678,-0.570946,0.370909,-0.650405,-0.974639,0.117191,0.041993,12.329102,-2.075195,-12.573242,0,0
12819,2024 10 23,05:25:56.812,-0.336747,-0.572102,0.369591,-0.650156,-0.956572,0.075198,0.035646,13.916016,-6.530762,-14.892578,0,0
12820,2024 10 23,05:25:56.820,-0.336747,-0.572102,0.369591,-0.650156,-0.956572,0.075198,0.035646,13.916016,-6.530762,-14.892578,0,0
12821,2024 10 23,05:25:56.829,-0.336859,-0.573384,0.368466,-0.649608,-1.016144,0.097659,0.013672,8.544922,-8.056641,-16.479492,0,0
12822,2024 10 23,05:25:56.837,-0.337125,-0.574376,0.36719,-0.649316,-0.964873,0.077639,0.013672,11.901855,-1.098633,-14.648438,0,0
12823,2024 10 23,05:25:56.845,-0.337312,-0.57501,0.365924,-0.649372,-0.943876,0.054201,-0.001465,10.375977,2.13623,-11.535645,0,0
12824,2024 10 23,05:25:56.854,-0.337746,-0.575613,0.364825,-0.64923,-0.967803,0.112796,0.080081,5.004883,0.671387,-15.930176,0,0
12825,2024 10 23,05:25:56.862,-0.338444,-0.575896,0.363451,-0.649386,-1.043001,0.093265,-0.000977,5.249023,9.399414,-15.380859,0,0
12826,2024 10 23,05:25:56.870,-0.339337,-0.575945,0.361913,-0.649736,-1.003937,0.031739,-0.019044,9.82666,12.390137,-15.136719,0,0
12827,2024 10 23,05:25:56.879,-0.339337,-0.575945,0.361913,-0.649736,-1.003937,0.031739,-0.019044,9.82666,12.390137,-15.136719,0,0
12828,2024 10 23,05:25:56.887,-0.340496,-0.575958,0.360487,-0.649911,-1.012726,0.106937,0.102542,1.647949,11.962891,-18.066406,0,0
12829,2024 10 23,05:25:56.895,-0.341781,-0.57574,0.358727,-0.650403,-0.941923,0.001953,-0.008789,7.507324,18.798828,-17.883301,0,0
12830,2024 10 23,05:25:56.904,-0.343373,-0.575593,0.357286,-0.650488,-1.04886,0.107425,0.042482,-1.953125,11.474609,-21.42334,0,0
12831,2024 10 23,05:25:56.912,-0.345103,-0.575465,0.355568,-0.650627,-0.991241,0.023927,0.102542,3.78418,19.104004,-23.193359,0,0
12832,2024 10 23,05:25:56.920,-0.347184,-0.5749,0.35374,-0.651016,-0.888211,0.062014,0.06592,-2.441406,21.728516,-23.681641,0,0
12833,2024 10 23,05:25:56.929,-0.347184,-0.5749,0.35374,-0.651016,-0.888211,0.062014,0.06592,-2.441406,21.728516,-23.681641,0,0
12834,2024 10 23,05:25:56.937,-0.348947,-0.574769,0.352159,-0.651045,-0.987335,0.034181,0.080081,0.0,12.634277,-22.949219,0,0
12835,2024 10 23,05:25:56.945,-0.350814,-0.574652,0.350631,-0.650971,-1.015656,0.059084,0.118168,-1.647949,15.258789,-23.803711,0,0
12836,2024 10 23,05:25:56.954,-0.352811,-0.57431,0.348859,-0.651145,-0.955596,0.044923,0.077151,-0.12207,19.40918,-24.780273,0,0
12837,2024 10 23,05:25:56.962,-0.354748,-0.574082,0.34712,-0.651223,-0.993683,0.031251,0.076174,-1.098633,15.808105,-24.963379,0,0
12838,2024 10 23,05:25:56.970,-0.356726,-0.573973,0.34542,-0.651142,-1.018586,0.034181,0.092776,-0.915527,15.441895,-25.939941,0,0
12839,2024 10 23,05:25:56.979,-0.356726,-0.573973,0.34542,-0.651142,-1.018586,0.034181,0.092776,-0.915527,15.441895,-25.939941,0,0
12840,2024 10 23,05:25:56.987,-0.358853,-0.57381,0.343695,-0.65103,-0.989288,0.056154,0.13477,-1.831055,16.601563,-27.46582,0,0
12841,2024 10 23,05:25:56.995,-0.361022,-0.573676,0.341734,-0.650981,-1.013703,0.041017,0.066897,-1.403809,16.052246,-29.724121,0,0
12842,2024 10 23,05:25:57.004,-0.363227,-0.573813,0.339844,-0.650623,-1.084506,0.050783,0.114261,-0.549316,13.122559,-31.12793,0,0
12843,2024 10 23,05:25:57.012,-0.365644,-0.573767,0.337683,-0.650435,-1.053743,0.022462,0.078616,-0.671387,19.165039,-34.179688,0,0
12844,2024 10 23,05:25:57.020,-0.368368,-0.573747,0.335351,-0.650123,-1.085971,0.035157,0.046876,-2.258301,17.272949,-37.841797,0,0
12845,2024 10 23,05:25:57.029,-0.368368,-0.573747,0.335351,-0.650123,-1.085971,0.035157,0.046876,-2.258301,17.272949,-37.841797,0,0
12846,2024 10 23,05:25:57.037,-0.371288,-0.574055,0.333025,-0.649385,-1.125523,0.063967,0.166997,-4.02832,14.587402,-42.96875,0,0
12847,2024 10 23,05:25:57.045,-0.37459,-0.574121,0.330115,-0.648915,-1.096713,-0.001465,0.046876,-1.037598,22.460938,-47.485352,0,0
12848,2024 10 23,05:25:57.054,-0.378257,-0.574561,0.32721,-0.64787,-1.176794,0.067385,0.092776,-5.79834,14.099121,-54.138184,0,0
12849,2024 10 23,05:25:57.062,-0.38209,-0.575225,0.32387,-0.646708,-1.157262,0.02002,0.146001,0.305176,18.432617,-59.936523,0,0
12850,2024 10 23,05:25:57.070,-0.386527,-0.57598,0.320135,-0.645258,-1.184606,0.097659,0.141606,-5.493164,16.479492,-69.396973,0,0
12851,2024 10 23,05:25:57.079,-0.386527,-0.57598,0.320135,-0.645258,-1.184606,0.097659,0.141606,-5.493164,16.479492,-69.396973,0,0
12852,2024 10 23,05:25:57.087,-0.391084,-0.577176,0.315747,-0.643603,-1.255409,0.021973,0.079104,3.723145,16.357422,-77.636719,0,0
12853,2024 10 23,05:25:57.095,-0.396259,-0.578791,0.310918,-0.641335,-1.259316,0.063967,0.198737,1.464844,13.427734,-89.72168,0,0
12854,2024 10 23,05:25:57.104,-0.40179,-0.580973,0.305148,-0.638686,-1.262734,0.104007,0.189459,4.699707,10.925293,-102.844238,0,0
12855,2024 10 23,05:25:57.112,-0.407522,-0.583855,0.298623,-0.635502,-1.248085,0.064455,0.205573,16.906738,7.385254,-114.074707,0,0
12856,2024 10 23,05:25:57.120,-0.41367,-0.587369,0.29138,-0.631643,-1.321329,0.144047,0.206061,13.85498,0.976563,-128.173828,0,0
12857,2024 10 23,05:25:57.129,-0.41367,-0.587369,0.29138,-0.631643,-1.321329,0.144047,0.206061,13.85498,0.976563,-128.173828,0,0
12858,2024 10 23,05:25:57.137,-0.420169,-0.59172,0.283298,-0.626951,-1.515671,0.14893,0.19483,21.362305,-3.967285,-144.226074,0,0
12859,2024 10 23,05:25:57.145,-0.427385,-0.596449,0.273815,-0.621785,-1.643117,0.138188,0.227058,27.160645,3.662109,-163.208008,0,0
12860,2024 10 23,05:25:57.154,-0.436134,-0.600882,0.26254,-0.61628,-1.804254,0.097659,-0.086428,22.888184,15.075684,-189.819336,0,0
12861,2024 10 23,05:25:57.162,-0.446585,-0.605515,0.249581,-0.609609,-1.945372,0.108402,-0.118168,22.766113,22.399902,-220.947266,0,0
12862,2024 10 23,05:25:57.170,-0.459247,-0.609753,0.234612,-0.601873,-2.159734,0.242195,-0.083987,14.648438,34.484863,-257.141113,0,0
12863,2024 10 23,05:25:57.179,-0.459247,-0.609753,0.234612,-0.601873,-2.159734,0.242195,-0.083987,14.648438,34.484863,-257.141113,0,0
12864,2024 10 23,05:25:57.187,-0.474026,-0.613756,0.216985,-0.592891,-2.281808,0.357433,-0.044435,15.319824,48.64502,-298.583984,0,0
12865,2024 10 23,05:25:57.195,-0.490895,-0.617419,0.196471,-0.582421,-2.440504,0.397961,-0.046388,14.343262,57.678223,-341.674805,0,0
12866,2024 10 23,05:25:57.204,-0.509447,-0.620828,0.173449,-0.570045,-2.705161,0.500992,0.117679,14.282227,67.016602,-380.981445,0,0
12867,2024 10 23,05:25:57.212,-0.529399,-0.623095,0.147148,-0.55663,-2.610431,0.477065,0.046388,23.071289,87.768555,-418.334961,0,0
12868,2024 10 23,05:25:57.220,-0.549451,-0.62521,0.118057,-0.541551,-2.757408,0.191412,0.345225,30.517578,95.275879,-447.998047,0,0
12869,2024 10 23,05:25:57.229,-0.549451,-0.62521,0.118057,-0.541551,-2.757408,0.191412,0.345225,30.517578,95.275879,-447.998047,0,0
12870,2024 10 23,05:25:57.237,-0.569876,-0.626046,0.086375,-0.525212,-2.45027,0.521012,0.417493,38.330078,108.459473,-468.811035,0,0
12871,2024 10 23,05:25:57.245,-0.587967,-0.626301,0.055194,-0.508915,-2.6451,0.375011,0.445814,46.813965,104.309082,-446.044922,0,0
12872,2024 10 23,05:25:57.254,-0.605514,-0.624704,0.02317,-0.492504,-2.119205,0.445814,-0.081057,37.841797,127.563477,-457.763672,0,0
12873,2024 10 23,05:25:57.262,-0.622609,-0.622815,-0.009486,-0.473676,-1.669484,0.251473,-0.609394,37.719727,99.060059,-474.42627,0,0
12874,2024 10 23,05:25:57.270,-0.641073,-0.619565,-0.039797,-0.451198,-1.505417,0.568377,-0.665548,4.089355,67.810059,-487.731934,0,1
12875,2024 10 23,05:25:57.279,-0.641073,-0.619565,-0.039797,-0.451198,-1.505417,0.568377,-0.665548,4.089355,67.810059,-487.731934,0,0
12876,2024 10 23,05:25:57.287,-0.659289,-0.615831,-0.06773,-0.426031,-1.297891,0.684591,-0.598651,-7.385254,33.14209,-486.999512,0,0
12877,2024 10 23,05:25:57.295,-0.676004,-0.611816,-0.092648,-0.400145,-0.605976,0.304697,-0.789575,-12.023926,8.666992,-453.308105,0,0
12878,2024 10 23,05:25:57.304,-0.691921,-0.604857,-0.110633,-0.378356,2.993743,2.488846,-1.016144,-86.120605,9.521484,-339.233398,0,0
12879,2024 10 23,05:25:57.312,-0.697952,-0.596101,-0.117233,-0.379188,2.018128,1.502976,-2.574297,-53.405762,59.082031,40.161133,0,0
12880,2024 10 23,05:25:57.320,-0.698698,-0.594524,-0.09047,-0.387527,-0.643574,2.197821,0.866726,-151.489258,-179.077148,297.790527,0,0
12881,2024 10 23,05:25:57.329,-0.690074,-0.592942,-0.064995,-0.409871,-1.347697,1.158727,-0.15479,-76.171875,15.930176,396.179199,0,0
12882,2024 10 23,05:25:57.337,-0.690074,-0.592942,-0.064995,-0.409871,-1.347697,1.158727,-0.15479,-76.171875,15.930176,396.179199,0,0
12883,2024 10 23,05:25:57.345,-0.678846,-0.590547,-0.042632,-0.434286,-1.017609,0.547868,-0.357433,-58.410645,-13.305664,378.112793,0,0
12884,2024 10 23,05:25:57.354,-0.66919,-0.589524,-0.020894,-0.451895,-0.851588,0.407239,0.084964,-61.035156,-31.433105,307.922363,0,0
12885,2024 10 23,05:25:57.362,-0.661179,-0.587723,-0.003706,-0.466274,-0.566912,0.298349,-0.714377,-50.964355,-28.503418,250.12207,0,0
12886,2024 10 23,05:25:57.370,-0.653834,-0.587779,0.013868,-0.476261,-0.614765,0.429701,-0.064455,-43.395996,-69.519043,226.501465,0,0
12887,2024 10 23,05:25:57.379,-0.646021,-0.587341,0.030408,-0.486584,-0.44142,0.540544,-0.142582,-38.574219,-45.410156,229.675293,0,0
12888,2024 10 23,05:25:57.387,-0.646021,-0.587341,0.030408,-0.486584,-0.44142,0.540544,-0.142582,-38.574219,-45.410156,229.675293,0,0
12889,2024 10 23,05:25:57.395,-0.636889,-0.586852,0.047676,-0.497699,-0.447768,0.612812,-0.221686,-32.104492,-58.349609,252.685547,0,0
12890,2024 10 23,05:25:57.404,-0.625827,-0.586927,0.066699,-0.509322,-0.599628,0.497574,-0.066408,-25.634766,-65.185547,277.587891,0,0
12891,2024 10 23,05:25:57.412,-0.613598,-0.586519,0.086426,-0.521558,-0.607929,0.352062,-0.209967,-26.916504,-67.077637,290.893555,0,0
12892,2024 10 23,05:25:57.420,-0.600796,-0.586241,0.107346,-0.532768,-0.700217,0.218757,-0.168462,-31.433105,-85.632324,292.663574,0,0
12893,2024 10 23,05:25:57.429,-0.588087,-0.585919,0.129066,-0.542397,-0.814478,0.127445,-0.150395,-40.466309,-100.646973,284.729004,0,0
12894,2024 10 23,05:25:57.437,-0.588087,-0.585919,0.129066,-0.542397,-0.814478,0.127445,-0.150395,-40.466309,-100.646973,284.729004,0,0
12895,2024 10 23,05:25:57.445,-0.575755,-0.585541,0.151435,-0.550197,-0.92288,0.11182,-0.047365,-49.926758,-116.455078,274.719238,0,0
12896,2024 10 23,05:25:57.454,-0.563641,-0.584871,0.174375,-0.556622,-1.046419,0.131352,0.034181,-58.47168,-125.244141,270.019531,0,0
12897,2024 10 23,05:25:57.462,-0.551475,-0.583574,0.197677,-0.562353,-1.138707,0.114261,0.097659,-65.612793,-127.563477,270.751953,0,0
12898,2024 10 23,05:25:57.470,-0.539089,-0.581407,0.221495,-0.567705,-1.182165,0.11475,0.131352,-73.974609,-128.051758,276.550293,0,0
12899,2024 10 23,05:25:57.479,-0.526109,-0.578413,0.246144,-0.572766,-1.258339,0.155278,0.198737,-80.627441,-132.93457,287.719727,0,0
12900,2024 10 23,05:25:57.487,-0.526109,-0.578413,0.246144,-0.572766,-1.258339,0.155278,0.198737,-80.627441,-132.93457,287.719727,0,0
12901,2024 10 23,05:25:57.495,-0.512107,-0.574654,0.271456,-0.577781,-1.399457,0.187017,0.307627,-81.298828,-133.483887,300.720215,0,0
12902,2024 10 23,05:25:57.504,-0.497124,-0.570023,0.29648,-0.58313,-1.506882,0.176763,0.313974,-74.768066,-126.159668,308.410645,0,0
12903,2024 10 23,05:25:57.512,-0.481343,-0.565045,0.320642,-0.588407,-1.561571,0.159185,0.335459,-65.551758,-123.535156,306.70166,0,0
12904,2024 10 23,05:25:57.520,-0.464976,-0.560156,0.343569,-0.593281,-1.605518,0.133793,0.24659,-54.992676,-122.802734,299.560547,0,0
12905,2024 10 23,05:25:57.529,-0.447958,-0.555734,0.365455,-0.597441,-1.67925,0.060549,0.204596,-43.884277,-128.967285,292.785645,0,0
12906,2024 10 23,05:25:57.537,-0.447958,-0.555734,0.365455,-0.597441,-1.67925,0.060549,0.204596,-43.884277,-128.967285,292.785645,0,0
12907,2024 10 23,05:25:57.545,-0.430295,-0.551765,0.386462,-0.600873,-1.787652,-0.079104,0.166509,-35.03418,-134.216309,286.865234,0,0
12908,2024 10 23,05:25:57.554,-0.412136,-0.548305,0.40658,-0.603488,-1.863338,-0.265633,0.173345,-27.587891,-141.540527,279.11377,0,0
12909,2024 10 23,05:25:57.562,-0.393627,-0.545389,0.425826,-0.605211,-1.953673,-0.431654,0.215339,-21.42334,-148.132324,270.874023,0,0
12910,2024 10 23,05:25:57.570,-0.374851,-0.542776,0.444216,-0.606261,-2.032777,-0.516617,0.314463,-15.319824,-151.550293,264.587402,0,0
12911,2024 10 23,05:25:57.579,-0.355863,-0.540413,0.461328,-0.607035,-2.128483,-0.568865,0.39845,-4.455566,-150.32959,255.554199,0,0
12912,2024 10 23,05:25:57.587,-0.355863,-0.540413,0.461328,-0.607035,-2.128483,-0.568865,0.39845,-4.455566,-150.32959,255.554199,0,0
12913,2024 10 23,05:25:57.595,-0.336893,-0.538487,0.476642,-0.60774,-2.156804,-0.6592,0.403821,10.314941,-146.484375,241.516113,0,0
12914,2024 10 23,05:25:57.604,-0.317932,-0.537089,0.490216,-0.608394,-2.064516,-0.843776,0.384289,23.498535,-144.714355,229.492188,0,0
12915,2024 10 23,05:25:57.612,-0.298753,-0.536328,0.502538,-0.608732,-1.984436,-1.171422,0.41847,32.531738,-149.780273,220.64209,0,0
12916,2024 10 23,05:25:57.620,-0.279616,-0.536037,0.513939,-0.60856,-1.999084,-1.445357,0.542985,36.315918,-151.367188,211.791992,0,0
12917,2024 10 23,05:25:57.629,-0.2614,-0.536202,0.523914,-0.608007,-2.05475,-1.675344,0.778344,40.893555,-145.629883,190.368652,0,0
12918,2024 10 23,05:25:57.637,-0.2614,-0.536202,0.523914,-0.608007,-2.05475,-1.675344,0.778344,40.893555,-145.629883,190.368652,0,0
12919,2024 10 23,05:25:57.645,-0.24535,-0.537044,0.531265,-0.607573,-2.022034,-1.964415,0.924345,47.912598,-127.624512,153.381348,0,0
12920,2024 10 23,05:25:57.654,-0.23237,-0.538526,0.53584,-0.607347,-1.893613,-2.20661,1.034211,51.208496,-103.515625,113.220215,0,0
12921,2024 10 23,05:25:57.662,-0.222481,-0.540325,0.537962,-0.607575,-1.652394,-2.431715,1.072298,51.818848,-78.063965,78.00293,0,0
12922,2024 10 23,05:25:57.670,-0.215328,-0.54254,0.5383,-0.607879,-1.433637,-2.646077,0.996612,47.668457,-62.072754,47.119141,0,0
12923,2024 10 23,05:25:57.679,-0.210473,-0.545435,0.537832,-0.607403,-1.477096,-2.697836,0.971221,33.874512,-56.945801,22.094727,0,0
12924,2024 10 23,05:25:57.687,-0.210473,-0.545435,0.537832,-0.607403,-1.477096,-2.697836,0.971221,33.874512,-56.945801,22.094727,0,0
12925,2024 10 23,05:25:57.695,-0.208199,-0.548652,0.536795,-0.606206,-4.220344,-3.250099,-0.157231,17.822266,-43.457031,-4.638672,0,0
12926,2024 10 23,05:25:57.704,-0.21764,-0.560685,0.5295,-0.598243,-2.051821,-2.135319,6.489456,-1.342773,-18.737793,-224.67041,1,0
12927,2024 10 23,05:25:57.712,-0.249148,-0.549794,0.512744,-0.610529,-0.889187,-0.057131,-3.15244,-158.630371,432.556152,-219.848633,0,0
12928,2024 10 23,05:25:57.720,-0.269714,-0.547983,0.505137,-0.609759,-1.066439,1.090854,-0.307626,18.066406,51.269531,-165.527344,0,0
12929,2024 10 23,05:25:57.729,-0.284546,-0.55006,0.495552,-0.609012,-1.839412,1.348674,0.489761,-64.086914,165.405273,-189.025879,0,0
12930,2024 10 23,05:25:57.737,-0.284546,-0.55006,0.495552,-0.609012,-1.839412,1.348674,0.489761,-64.086914,165.405273,-189.025879,0,0
12931,2024 10 23,05:25:57.745,-0.302719,-0.546119,0.479,-0.616988,-0.438002,0.548357,-0.70217,84.411621,206.787109,-186.828613,0,0
12932,2024 10 23,05:25:57.754,-0.31329,-0.551732,0.465089,-0.61736,-1.259804,0.126469,1.492233,12.268066,51.208496,-195.495605,0,0
12933,2024 10 23,05:25:57.762,-0.324909,-0.553407,0.452474,-0.619227,-0.992218,-0.32374,0.013672,40.222168,110.168457,-149.353027,0,0
12934,2024 10 23,05:25:57.770,-0.334249,-0.554999,0.444256,-0.618782,-1.225623,0.150883,0.269539,-11.352539,52.79541,-119.995117,0,0
12935,2024 10 23,05:25:57.779,-0.341378,-0.555825,0.437394,-0.619037,-1.093783,0.064455,-0.194342,16.418457,58.288574,-89.904785,0,0
12936,2024 10 23,05:25:57.787,-0.345495,-0.557545,0.431899,-0.619063,-1.086459,0.016114,-0.138676,20.507813,20.202637,-66.162109,0,0
12937,2024 10 23,05:25:57.795,-0.345495,-0.557545,0.431899,-0.619063,-1.086459,0.016114,-0.138676,20.507813,20.202637,-66.162109,0,0
12938,2024 10 23,05:25:57.804,-0.347864,-0.559387,0.427777,-0.618938,-1.105014,-0.015625,0.092288,21.30127,17.883301,-47.912598,0,0
12939,2024 10 23,05:25:57.812,-0.350419,-0.559811,0.424099,-0.619644,-1.008332,0.060549,-0.141606,11.71875,29.174805,-38.269043,0,0
12940,2024 10 23,05:25:57.820,-0.352199,-0.560243,0.421183,-0.620232,-1.07767,0.058107,-0.037111,16.296387,20.324707,-28.137207,0,0
12941,2024 10 23,05:25:57.829,-0.353722,-0.559994,0.418384,-0.621484,-1.037629,0.058596,0.023438,13.977051,32.287598,-20.629883,0,0
12942,2024 10 23,05:25:57.837,-0.355242,-0.559172,0.415829,-0.623069,-0.930204,0.064455,0.041993,12.084961,32.104492,-15.319824,0,0
12943,2024 10 23,05:25:57.845,-0.355242,-0.559172,0.415829,-0.623069,-0.930204,0.064455,0.041993,12.084961,32.104492,-15.319824,0,0
12944,2024 10 23,05:25:57.854,-0.356331,-0.558803,0.413823,-0.624114,-0.976592,0.129887,0.04004,11.047363,19.592285,-14.099121,0,0
12945,2024 10 23,05:25:57.862,-0.35698,-0.558942,0.412051,-0.62479,-1.001495,0.099612,0.074709,11.535645,12.268066,-14.343262,0,0
12946,2024 10 23,05:25:57.870,-0.357734,-0.5593,0.410344,-0.625163,-1.003449,0.150884,-0.000977,11.413574,8.850098,-17.272949,0,0
12947,2024 10 23,05:25:57.879,-0.358197,-0.560298,0.408678,-0.625095,-1.041047,0.115238,0.034669,12.268066,0.0,-19.65332,0,0
12948,2024 10 23,05:25:57.887,-0.358744,-0.56126,0.407009,-0.625006,-0.999542,0.069338,0.015137,11.962891,2.929688,-19.287109,0,0
12949,2024 10 23,05:25:57.895,-0.358744,-0.56126,0.407009,-0.625006,-0.999542,0.069338,0.015137,11.962891,2.929688,-19.287109,0,0
12950,2024 10 23,05:25:57.904,-0.359392,-0.56223,0.405454,-0.624773,-1.003937,0.082034,0.011719,9.216309,-0.183105,-20.629883,0,0
12951,2024 10 23,05:25:57.912,-0.360224,-0.563212,0.403973,-0.624369,-1.027863,0.119633,0.014649,6.713867,1.342773,-21.850586,0,0
12952,2024 10 23,05:25:57.920,-0.361032,-0.564107,0.402392,-0.624115,-1.009796,0.092776,0.003906,9.399414,2.075195,-20.935059,0,0
12953,2024 10 23,05:25:57.929,-0.361716,-0.565073,0.40088,-0.623819,-1.005402,0.115726,0.034181,8.850098,0.305176,-20.324707,0,0
12954,2024 10 23,05:25:57.937,-0.362247,-0.566147,0.399383,-0.623497,-1.028352,0.104984,-0.014161,10.437012,-1.403809,-19.897461,0,0
12955,2024 10 23,05:25:57.945,-0.362247,-0.566147,0.399383,-0.623497,-1.028352,0.104984,-0.014161,10.437012,-1.403809,-19.897461,0,0
12956,2024 10 23,05:25:57.954,-0.362746,-0.567242,0.397779,-0.623236,-1.035676,0.107913,0.009278,12.268066,0.305176,-20.568848,0,0
12957,2024 10 23,05:25:57.962,-0.363208,-0.568187,0.395988,-0.623248,-1.00589,0.073244,-0.015137,13.61084,3.78418,-18.981934,0,0
12958,2024 10 23,05:25:57.970,-0.363647,-0.568846,0.394189,-0.623531,-1.001984,0.090335,-0.006348,14.892578,7.93457,-15.808105,0,0
12959,2024 10 23,05:25:57.979,-0.363894,-0.569091,0.392258,-0.62438,-1.007843,0.053224,0.02002,17.089844,15.197754,-10.925293,0,0
12960,2024 10 23,05:25:57.987,-0.364328,-0.568985,0.390298,-0.62545,-0.966338,0.059084,0.009766,15.197754,18.432617,-10.620117,0,0
12961,2024 10 23,05:25:57.995,-0.364328,-0.568985,0.390298,-0.62545,-0.966338,0.059084,0.009766,15.197754,18.432617,-10.620117,0,0
12962,2024 10 23,05:25:58.004,-0.364679,-0.568683,0.388468,-0.626659,-0.979034,0.081545,0.013184,14.892578,19.836426,-7.385254,0,0
12963,2024 10 23,05:25:58.012,-0.36503,-0.568206,0.386624,-0.628027,-1.036164,0.070315,0.014649,13.977051,22.155762,-7.873535,0,0
12964,2024 10 23,05:25:58.020,-0.3656,-0.567584,0.384527,-0.629543,-0.957549,0.014649,0.012696,17.51709,27.038574,-7.202148,0,0
12965,2024 10 23,05:25:58.029,-0.366392,-0.566924,0.382625,-0.630834,-0.933134,0.069826,0.051271,8.178711,23.4375,-11.047363,0,0
12966,2024 10 23,05:25:58.037,-0.36723,-0.566322,0.380745,-0.632025,-0.910672,0.030763,0.079592,11.84082,23.55957,-10.437012,0,0
12967,2024 10 23,05:25:58.045,-0.36723,-0.566322,0.380745,-0.632025,-0.910672,0.030763,0.079592,11.84082,23.55957,-10.437012,0,0
12968,2024 10 23,05:25:58.054,-0.368234,-0.565998,0.379035,-0.632757,-0.961455,0.0918,0.11475,6.04248,16.174316,-15.441895,0,0
12969,2024 10 23,05:25:58.062,-0.369156,-0.56593,0.37726,-0.633341,-0.929228,0.035157,0.088382,10.375977,16.296387,-15.136719,0,0
12970,2024 10 23,05:25:58.070,-0.37013,-0.565893,0.375624,-0.633779,-0.943388,0.04297,0.047853,7.263184,12.756348,-15.686035,0,0
12971,2024 10 23,05:25:58.079,-0.370921,-0.566053,0.374111,-0.634068,-1.006378,0.036622,0.045412,7.8125,10.192871,-15.075684,0,0
12972,2024 10 23,05:25:58.087,-0.371894,-0.56628,0.372591,-0.634191,-1.004913,0.049318,0.07178,5.126953,10.925293,-18.127441,0,0
12973,2024 10 23,05:25:58.095,-0.371894,-0.56628,0.372591,-0.634191,-1.004913,0.049318,0.07178,5.126953,10.925293,-18.127441,0,0
12974,2024 10 23,05:25:58.104,-0.37309,-0.566294,0.370954,-0.634436,-0.955107,0.051759,0.113285,4.882813,13.549805,-18.493652,0,0
12975,2024 10 23,05:25:58.112,-0.374196,-0.566447,0.369289,-0.634619,-0.951689,0.044435,0.066408,5.79834,10.864258,-18.676758,0,0
12976,2024 10 23,05:25:58.120,-0.375181,-0.566829,0.367789,-0.634567,-0.965361,0.023927,0.08594,6.958008,6.713867,-18.676758,0,0
12977,2024 10 23,05:25:58.129,-0.376214,-0.567282,0.36634,-0.634389,-0.961455,0.031739,0.084475,4.02832,5.79834,-19.836426,0,0
12978,2024 10 23,05:25:58.137,-0.377311,-0.567837,0.364979,-0.634025,-1.00589,0.035157,0.075198,3.112793,3.417969,-21.30127,0,0
12979,2024 10 23,05:25:58.145,-0.377311,-0.567837,0.364979,-0.634025,-1.00589,0.035157,0.075198,3.112793,3.417969,-21.30127,0,0
12980,2024 10 23,05:25:58.154,-0.378562,-0.568368,0.363558,-0.633619,-0.985382,0.004395,0.06006,2.746582,5.79834,-22.277832,0,0
12981,2024 10 23,05:25:58.162,-0.379983,-0.568859,0.362227,-0.633091,-1.010285,0.041017,0.070315,0.12207,4.089355,-23.55957,0,0
12982,2024 10 23,05:25:58.170,-0.381422,-0.569407,0.360801,-0.632547,-1.040559,0.007324,0.04883,0.305176,5.371094,-24.841309,0,0
12983,2024 10 23,05:25:58.179,-0.383141,-0.569845,0.359346,-0.631941,-1.020051,0.038575,0.098636,-1.403809,6.286621,-26.977539,0,0
12984,2024 10 23,05:25:58.187,-0.384916,-0.570226,0.357692,-0.631457,-0.986847,-0.012696,0.066897,0.12207,9.155273,-27.648926,0,0
12985,2024 10 23,05:25:58.195,-0.384916,-0.570226,0.357692,-0.631457,-0.986847,-0.012696,0.066897,0.12207,9.155273,-27.648926,0,0
12986,2024 10 23,05:25:58.204,-0.386867,-0.570694,0.356171,-0.630702,-1.033235,0.030763,0.055177,-3.051758,5.432129,-29.785156,0,0
12987,2024 10 23,05:25:58.212,-0.38876,-0.571307,0.354566,-0.629887,-1.073275,0.031251,0.121097,-1.281738,5.737305,-30.822754,0,0
12988,2024 10 23,05:25:58.220,-0.390925,-0.571699,0.352569,-0.629312,-1.075716,0.01709,0.037599,0.061035,12.207031,-33.935547,0,0
12989,2024 10 23,05:25:58.229,-0.393202,-0.572301,0.350406,-0.628553,-1.092807,0.010743,0.059572,0.976563,8.850098,-37.29248,0,0
12990,2024 10 23,05:25:58.237,-0.39555,-0.572988,0.348095,-0.627737,-1.129917,0.047365,0.147954,0.488281,11.169434,-39.611816,0,0
12991,2024 10 23,05:25:58.245,-0.398281,-0.57344,0.345163,-0.627218,-1.0889,0.016114,0.06885,3.356934,18.676758,-44.86084,0,0
12992,2024 10 23,05:25:58.254,-0.398281,-0.57344,0.345163,-0.627218,-1.0889,0.016114,0.06885,3.356934,18.676758,-44.86084,0,0
12993,2024 10 23,05:25:58.262,-0.401203,-0.574224,0.342018,-0.62636,-1.144078,0.02002,0.064943,3.723145,12.878418,-50.109863,0,0
12994,2024 10 23,05:25:58.270,-0.404317,-0.575232,0.3387,-0.625235,-1.181188,0.040529,0.158696,5.249023,14.648438,-54.748535,0,0
12995,2024 10 23,05:25:58.279,-0.407728,-0.576314,0.334592,-0.624234,-1.204138,0.020508,0.07178,7.263184,17.76123,-63.171387,0,0
12996,2024 10 23,05:25:58.287,-0.411575,-0.577682,0.330071,-0.62285,-1.219764,0.005371,0.077639,9.70459,17.578125,-71.777344,0,0
12997,2024 10 23,05:25:58.295,-0.41586,-0.579287,0.325011,-0.621172,-1.23246,0.020508,0.109378,8.178711,17.700195,-81.054688,0,0
12998,2024 10 23,05:25:58.304,-0.41586,-0.579287,0.325011,-0.621172,-1.23246,0.020508,0.109378,8.178711,17.700195,-81.054688,0,0
12999,2024 10 23,05:25:58.312,-0.420659,-0.581159,0.319333,-0.619134,-1.267128,-0.019532,0.031739,10.192871,18.554688,-92.102051,0,0
13000,2024 10 23,05:25:58.320,-0.425945,-0.583524,0.313239,-0.616403,-1.316446,-0.021485,0.059572,9.94873,13.183594,-103.637695,0,0
13001,2024 10 23,05:25:58.329,-0.432005,-0.586182,0.306532,-0.613025,-1.390667,0.044923,0.06006,5.493164,13.671875,-118.164063,0,0
13002,2024 10 23,05:25:58.337,-0.438834,-0.589142,0.299097,-0.608997,-1.463912,0.073733,0.084475,8.605957,14.526367,-133.422852,0,0
13003,2024 10 23,05:25:58.345,-0.446417,-0.592205,0.290644,-0.604592,-1.525926,0.101566,0.158208,7.568359,19.226074,-148.864746,0,0
13004,2024 10 23,05:25:58.353,-0.446417,-0.592205,0.290644,-0.604592,-1.525926,0.101566,0.158208,7.568359,19.226074,-148.864746,0,0
13005,2024 10 23,05:25:58.362,-0.454998,-0.59531,0.280464,-0.599935,-1.608936,0.083987,0.012696,13.977051,29.602051,-170.043945,0,0
13006,2024 10 23,05:25:58.370,-0.46487,-0.598883,0.269022,-0.594022,-1.759819,0.124516,0.050783,10.742188,27.46582,-197.998047,0,0
13007,2024 10 23,05:25:58.378,-0.476133,-0.602551,0.25559,-0.587285,-1.900449,0.177252,0.099612,13.427734,40.222168,-226.196289,0,0
13008,2024 10 23,05:25:58.387,-0.488987,-0.605838,0.239924,-0.579904,-2.000061,0.230964,-0.000977,12.390137,53.710938,-256.652832,0,0
13009,2024 10 23,05:25:58.395,-0.503061,-0.609288,0.222038,-0.571312,-2.185125,0.224128,0.012696,18.737793,59.143066,-287.963867,0,0
13010,2024 10 23,05:25:58.403,-0.503061,-0.609288,0.222038,-0.571312,-2.185125,0.224128,0.012696,18.737793,59.143066,-287.963867,0,0
13011,2024 10 23,05:25:58.412,-0.518576,-0.612348,0.201953,-0.561537,-2.358959,0.286142,0.011231,15.319824,74.09668,-319.335938,0,0
13012,2024 10 23,05:25:58.420,-0.53532,-0.614764,0.179152,-0.550819,-2.38142,0.134281,-0.007813,20.507813,86.730957,-351.68457,0,0
13013,2024 10 23,05:25:58.428,-0.552997,-0.616674,0.154269,-0.538617,-2.566484,-0.091311,0.116703,18.676758,95.76416,-379.089355,0,0
13014,2024 10 23,05:25:58.437,-0.571704,-0.617464,0.127209,-0.525081,-2.377514,0.17481,0.225105,16.113281,111.38916,-406.433105,0,0
13015,2024 10 23,05:25:58.445,-0.58927,-0.617109,0.100204,-0.511757,-2.436598,0.257332,0.325205,16.845703,110.229492,-386.291504,0,0
13016,2024 10 23,05:25:58.453,-0.58927,-0.617109,0.100204,-0.511757,-2.436598,0.257332,0.325205,16.845703,110.229492,-386.291504,0,0
13017,2024 10 23,05:25:58.462,-0.605704,-0.615621,0.072868,-0.498822,-2.195379,0.456557,0.063967,14.770508,128.540039,-389.587402,0,0
13018,2024 10 23,05:25:58.470,-0.621836,-0.613185,0.043908,-0.485176,-1.754448,0.267586,-0.430677,31.188965,130.67627,-402.22168,0,0
13019,2024 10 23,05:25:58.478,-0.638648,-0.610216,0.01518,-0.468544,-1.349651,0.337413,-0.416517,3.540039,114.440918,-425.65918,0,0
13020,2024 10 23,05:25:58.487,-0.655971,-0.605962,-0.013035,-0.449825,-1.145543,0.339366,-0.695822,-9.521484,99.304199,-434.875488,0,0
13021,2024 10 23,05:25:58.495,-0.673177,-0.601934,-0.038874,-0.427781,-0.797388,0.448256,-0.69631,-25.57373,51.757813,-442.016602,0,1
13022,2024 10 23,05:25:58.503,-0.673177,-0.601934,-0.038874,-0.427781,-0.797388,0.448256,-0.69631,-25.57373,51.757813,-442.016602,0,0
13023,2024 10 23,05:25:58.512,-0.689733,-0.597746,-0.061739,-0.403927,-0.38966,0.268563,-0.832545,-29.052734,19.836426,-420.837402,0,0
13024,2024 10 23,05:25:58.520,-0.705012,-0.592171,-0.079153,-0.382134,0.391614,1.333537,-0.629414,-60.546875,1.77002,-346.252441,0,0
13025,2024 10 23,05:25:58.528,-0.714836,-0.584231,-0.091431,-0.373261,1.342326,0.77102,-1.281777,-25.817871,76.538086,-135.925293,0,0
13026,2024 10 23,05:25:58.537,-0.719387,-0.578214,-0.084588,-0.375494,0.8511,2.201239,0.399426,-132.019043,-45.227051,94.665527,0,0
13027,2024 10 23,05:25:58.545,-0.714774,-0.57616,-0.070337,-0.390117,0.15479,1.256386,-0.775414,-56.213379,0.610352,270.935059,0,0
13028,2024 10 23,05:25:58.553,-0.714774,-0.57616,-0.070337,-0.390117,0.15479,1.256386,-0.775414,-56.213379,0.610352,270.935059,0,0
13029,2024 10 23,05:25:58.562,-0.705781,-0.575984,-0.048404,-0.4096,-0.746117,0.96585,-0.078616,-43.884277,-55.908203,359.49707,0,0
13030,2024 10 23,05:25:58.570,-0.693412,-0.576771,-0.025727,-0.431106,-0.922391,0.594745,-0.090823,-29.907227,-25.512695,377.13623,0,0
13031,2024 10 23,05:25:58.578,-0.680333,-0.576834,-0.004922,-0.45209,-0.689962,0.389172,-0.567888,-17.456055,-27.526855,357.910156,0,0
13032,2024 10 23,05:25:58.587,-0.667706,-0.578058,0.016084,-0.468784,-0.785668,0.258797,-0.247566,-18.676758,-62.561035,320.922852,0,0
13033,2024 10 23,05:25:58.595,-0.655947,-0.578857,0.035348,-0.483123,-0.764183,0.185064,-0.391614,-18.249512,-54.260254,289.428711,0,0
13034,2024 10 23,05:25:58.603,-0.655947,-0.578857,0.035348,-0.483123,-0.764183,0.185064,-0.391614,-18.249512,-54.260254,289.428711,0,0
13035,2024 10 23,05:25:58.612,-0.64456,-0.579265,0.053925,-0.496072,-0.635273,0.313974,-0.336924,-20.141602,-60.546875,278.991699,0,0
13036,2024 10 23,05:25:58.620,-0.632471,-0.579381,0.072947,-0.508898,-0.644551,0.385754,-0.181646,-19.836426,-60.302734,289.855957,0,0
13037,2024 10 23,05:25:58.628,-0.619201,-0.578689,0.092454,-0.522648,-0.70217,0.400403,-0.24659,-18.676758,-54.504395,308.166504,0,0
13038,2024 10 23,05:25:58.637,-0.604749,-0.577382,0.112801,-0.536828,-0.714377,0.290048,-0.253426,-21.54541,-56.45752,322.998047,0,0
13039,2024 10 23,05:25:58.645,-0.589775,-0.57549,0.133905,-0.550496,-0.732933,0.132328,-0.342296,-29.23584,-63.842773,325.378418,0,0
13040,2024 10 23,05:25:58.653,-0.575048,-0.573678,0.155906,-0.562056,-0.844264,0.040529,-0.327158,-39.916992,-87.524414,312.5,0,0
13041,2024 10 23,05:25:58.662,-0.575048,-0.573678,0.155906,-0.562056,-0.844264,0.040529,-0.327158,-39.916992,-87.524414,312.5,0,0
13042,2024 10 23,05:25:58.670,-0.561049,-0.572182,0.178463,-0.570949,-0.944853,0.049318,-0.198248,-50.65918,-107.23877,292.236328,0,0
13043,2024 10 23,05:25:58.678,-0.547661,-0.57092,0.201159,-0.577627,-1.082553,0.10303,-0.125492,-56.762695,-123.413086,275.817871,0,0
13044,2024 10 23,05:25:58.687,-0.534333,-0.569797,0.223948,-0.58281,-1.224647,0.188971,0.046388,-58.898926,-131.347656,268.188477,0,0
13045,2024 10 23,05:25:58.695,-0.520605,-0.568286,0.246359,-0.587647,-1.288125,0.209479,0.064943,-55.847168,-129.211426,268.798828,0,0
13046,2024 10 23,05:25:58.703,-0.50592,-0.566662,0.26871,-0.592228,-1.351115,0.173833,0.175298,-49.926758,-134.277344,275.268555,0,0
13047,2024 10 23,05:25:58.712,-0.50592,-0.566662,0.26871,-0.592228,-1.351115,0.173833,0.175298,-49.926758,-134.277344,275.268555,0,0
13048,2024 10 23,05:25:58.720,-0.490098,-0.564815,0.290923,-0.596785,-1.434614,0.125004,0.187506,-41.809082,-135.192871,283.02002,0,0
13049,2024 10 23,05:25:58.728,-0.473073,-0.563032,0.312717,-0.601169,-1.536668,0.056154,0.250008,-31.005859,-139.404297,286.376953,0,0
13050,2024 10 23,05:25:58.737,-0.455177,-0.56146,0.333581,-0.605227,-1.603076,-0.006836,0.2378,-19.53125,-140.563965,282.897949,0,0
13051,2024 10 23,05:25:58.745,-0.43666,-0.560327,0.353381,-0.608673,-1.692434,-0.055666,0.207038,-8.117676,-145.568848,275.146484,0,0
13052,2024 10 23,05:25:58.753,-0.417731,-0.559787,0.372064,-0.611316,-1.754448,-0.165532,0.207038,1.098633,-150.756836,264.770508,0,0
13053,2024 10 23,05:25:58.762,-0.417731,-0.559787,0.372064,-0.611316,-1.754448,-0.165532,0.207038,1.098633,-150.756836,264.770508,0,0
13054,2024 10 23,05:25:58.770,-0.398713,-0.559684,0.389844,-0.613027,-1.835994,-0.301767,0.221198,4.760742,-156.37207,254.333496,0,0
13055,2024 10 23,05:25:58.778,-0.379854,-0.559896,0.406854,-0.613757,-1.948302,-0.468764,0.267098,5.187988,-160.095215,243.591309,0,0
13056,2024 10 23,05:25:58.787,-0.361511,-0.560151,0.423126,-0.6136,-2.078677,-0.648457,0.339854,2.746582,-160.217285,232.421875,0,0
13057,2024 10 23,05:25:58.795,-0.344137,-0.56009,0.438561,-0.612808,-2.180242,-0.814966,0.391125,-3.234863,-152.038574,220.52002,0,0
13058,2024 10 23,05:25:58.803,-0.328178,-0.559297,0.453231,-0.61161,-2.213935,-0.963897,0.399426,-12.512207,-139.648438,209.228516,0,0
13059,2024 10 23,05:25:58.812,-0.328178,-0.559297,0.453231,-0.61161,-2.213935,-0.963897,0.399426,-12.512207,-139.648438,209.228516,0,0
13060,2024 10 23,05:25:58.820,-0.313778,-0.557747,0.467382,-0.609931,-2.130436,-1.0889,0.423353,-24.841309,-127.746582,198.425293,0,0
13061,2024 10 23,05:25:58.828,-0.300783,-0.555561,0.481378,-0.607583,-2.055238,-1.178747,0.508316,-38.94043,-121.826172,189.880371,0,0
13062,2024 10 23,05:25:58.837,-0.289159,-0.552978,0.495014,-0.604618,-1.918516,-1.26664,0.661153,-48.522949,-113.40332,177.368164,0,0
13063,2024 10 23,05:25:58.845,-0.278997,-0.550587,0.507654,-0.601085,-1.837458,-1.317911,0.847682,-51.513672,-109.863281,155.822754,0,0
13064,2024 10 23,05:25:58.853,-0.27032,-0.549104,0.518405,-0.597217,-1.745659,-1.364299,1.073763,-45.532227,-102.416992,125.915527,0,0
13065,2024 10 23,05:25:58.862,-0.27032,-0.549104,0.518405,-0.597217,-1.745659,-1.364299,1.073763,-45.532227,-102.416992,125.915527,0,0
13066,2024 10 23,05:25:58.870,-0.263336,-0.54837,0.526668,-0.593772,-1.589404,-1.453169,1.167516,-32.653809,-86.914063,96.496582,0,0
13067,2024 10 23,05:25:58.878,-0.257583,-0.548344,0.532607,-0.591015,-1.440962,-1.580615,1.237342,-18.493652,-73.974609,73.181152,0,0
13068,2024 10 23,05:25:58.887,-0.252929,-0.548674,0.536695,-0.589018,-1.367718,-1.75396,1.234901,-8.666992,-58.959961,55.908203,0,0
13069,2024 10 23,05:25:58.895,-0.2497,-0.549248,0.539325,-0.587457,-1.456587,-1.900449,1.168493,-5.554199,-45.654297,36.499023,0,0
13070,2024 10 23,05:25:58.903,-0.248686,-0.550155,0.54026,-0.586177,-1.517136,-1.917051,1.145054,-5.859375,-24.047852,8.361816,0,0
13071,2024 10 23,05:25:58.912,-0.248686,-0.550155,0.54026,-0.586177,-1.517136,-1.917051,1.145054,-5.859375,-24.047852,8.361816,0,0
13072,2024 10 23,05:25:58.920,-0.250636,-0.550907,0.539314,-0.585511,-1.364299,-1.768609,0.915067,-8.911133,5.737305,-20.019531,0,0
13073,2024 10 23,05:25:58.928,-0.257071,-0.555848,0.536889,-0.580257,-4.071414,-2.112369,2.193426,-65.917969,-49.987793,-134.887695,0,0
13074,2024 10 23,05:25:58.937,-0.275298,-0.555326,0.525391,-0.582913,-0.818873,-1.281289,0.15186,-31.982422,255.615234,-158.630371,1,0
13075,2024 10 23,05:25:58.945,-0.29992,-0.547014,0.518447,-0.584839,-0.198248,1.641652,-2.022523,-112.304688,162.414551,-142.76123,0,0
13076,2024 10 23,05:25:58.953,-0.306768,-0.552969,0.51431,-0.579313,-1.872127,0.513199,1.106479,-45.10498,-13.183594,-140.075684,0,0
13077,2024 10 23,05:25:58.962,-0.306768,-0.552969,0.51431,-0.579313,-1.872127,0.513199,1.106479,-45.10498,-13.183594,-140.075684,0,0
13078,2024 10 23,05:25:58.970,-0.32493,-0.548628,0.503863,-0.582709,-1.126499,1.11185,-1.300333,-7.263184,239.562988,-150.45166,0,0
13079,2024 10 23,05:25:58.978,-0.337368,-0.547778,0.48931,-0.58881,-1.029817,-0.025391,-0.17774,48.828125,140.563965,-151.367188,0,0
13080,2024 10 23,05:25:58.987,-0.349025,-0.547666,0.476919,-0.592277,-1.152379,0.053224,0.44142,36.376953,143.066406,-131.958008,0,0
13081,2024 10 23,05:25:58.995,-0.35869,-0.545394,0.465742,-0.597471,-1.208533,-0.019532,-0.035646,24.597168,138.793945,-92.224121,0,0
13082,2024 10 23,05:25:59.003,-0.365846,-0.54248,0.457244,-0.602329,-1.10062,-0.046388,0.215827,33.325195,120.910645,-56.82373,0,0
13083,2024 10 23,05:25:59.012,-0.365846,-0.54248,0.457244,-0.602329,-1.10062,-0.046388,0.215827,33.325195,120.910645,-56.82373,0,0
13084,2024 10 23,05:25:59.020,-0.371526,-0.538941,0.450275,-0.607259,-0.955107,0.13477,0.100589,20.568848,107.727051,-38.146973,0,0
13085,2024 10 23,05:25:59.028,-0.375004,-0.536307,0.444552,-0.611654,-0.979522,0.081057,0.104984,32.104492,82.214355,-24.353027,0,0
13086,2024 10 23,05:25:59.037,-0.37754,-0.534145,0.439746,-0.615448,-0.882839,0.0459,0.102542,25.939941,68.054199,-18.676758,0,0
13087,2024 10 23,05:25:59.045,-0.379518,-0.532861,0.436154,-0.617896,-0.820338,0.08594,0.140629,18.676758,41.687012,-18.554688,0,0
13088,2024 10 23,05:25:59.053,-0.380829,-0.532604,0.433606,-0.619102,-0.938017,0.075198,0.095218,13.73291,22.949219,-18.066406,0,0
13089,2024 10 23,05:25:59.062,-0.380829,-0.532604,0.433606,-0.619102,-0.938017,0.075198,0.095218,13.73291,22.949219,-18.066406,0,0
13090,2024 10 23,05:25:59.070,-0.382085,-0.532548,0.431472,-0.619868,-0.987335,0.133793,0.04004,9.58252,20.385742,-18.493652,0,0
13091,2024 10 23,05:25:59.078,-0.38327,-0.532575,0.42943,-0.62053,-1.007843,0.080569,0.024903,10.498047,17.883301,-18.066406,0,0
13092,2024 10 23,05:25:59.087,-0.384383,-0.532622,0.427562,-0.621092,-1.017121,0.109867,0.04004,9.94873,17.211914,-16.357422,0,0
13093,2024 10 23,05:25:59.095,-0.385328,-0.53264,0.425764,-0.621725,-0.973174,0.082522,0.08301,9.155273,15.74707,-14.465332,0,0
13094,2024 10 23,05:25:59.103,-0.38618,-0.532748,0.424277,-0.62212,-1.001984,0.101077,0.035646,7.568359,11.047363,-13.549805,0,0
13095,2024 10 23,05:25:59.112,-0.386795,-0.533008,0.422999,-0.622386,-1.001007,0.108402,0.090335,7.629395,8.178711,-11.901855,0,0
13096,2024 10 23,05:25:59.120,-0.386795,-0.533008,0.422999,-0.622386,-1.001007,0.108402,0.090335,7.629395,8.178711,-11.901855,0,0
13097,2024 10 23,05:25:59.128,-0.387371,-0.533253,0.421751,-0.622665,-0.999542,0.127934,0.077639,8.056641,7.93457,-11.71875,0,0
13098,2024 10 23,05:25:59.137,-0.387845,-0.533666,0.420461,-0.622888,-1.04886,0.152348,0.041993,9.399414,6.04248,-12.756348,0,0
13099,2024 10 23,05:25:59.145,-0.388231,-0.534129,0.419002,-0.623233,-1.106967,0.127934,-0.003906,12.390137,8.483887,-12.573242,0,0
13100,2024 10 23,05:25:59.153,-0.388681,-0.534271,0.41719,-0.624047,-1.041047,0.113285,0.051271,15.50293,16.967773,-10.864258,0,0
13101,2024 10 23,05:25:59.162,-0.389169,-0.534049,0.415181,-0.625271,-0.986358,0.077639,0.02588,15.869141,20.996094,-8.789063,0,0
13102,2024 10 23,05:25:59.170,-0.389169,-0.534049,0.415181,-0.625271,-0.986358,0.077639,0.02588,15.869141,20.996094,-8.789063,0,0
13103,2024 10 23,05:25:59.178,-0.389631,-0.533734,0.413371,-0.626451,-0.971709,0.102542,0.063478,14.892578,19.836426,-7.141113,0,0
13104,2024 10 23,05:25:59.187,-0.390001,-0.533331,0.411534,-0.627771,-0.963408,0.092288,0.066897,15.014648,21.66748,-5.79834,0,0
13105,2024 10 23,05:25:59.195,-0.390352,-0.532803,0.409754,-0.629165,-0.996124,0.089846,0.029298,15.197754,22.277832,-4.272461,0,0
13106,2024 10 23,05:25:59.203,-0.390836,-0.532197,0.407968,-0.630536,-1.056185,0.092776,0.040529,13.85498,23.803711,-6.225586,0,0
13107,2024 10 23,05:25:59.212,-0.39173,-0.531495,0.406078,-0.631792,-0.963408,0.107913,0.098636,9.399414,26.611328,-9.58252,0,0
13108,2024 10 23,05:25:59.220,-0.39173,-0.531495,0.406078,-0.631792,-0.963408,0.107913,0.098636,9.399414,26.611328,-9.58252,0,0
13109,2024 10 23,05:25:59.228,-0.392623,-0.530708,0.404151,-0.633133,-0.921903,0.082034,0.104984,11.535645,26.428223,-8.483887,0,0
13110,2024 10 23,05:25:59.237,-0.39341,-0.530063,0.4024,-0.634299,-0.893582,0.072268,0.114261,10.253906,21.789551,-7.93457,0,0
13111,2024 10 23,05:25:59.245,-0.394017,-0.529537,0.400901,-0.63531,-0.892605,0.08594,0.113285,9.521484,18.737793,-6.103516,0,0
13112,2024 10 23,05:25:59.253,-0.394592,-0.529274,0.399588,-0.636,-0.928251,0.077151,0.1377,5.371094,12.939453,-10.131836,0,0
13113,2024 10 23,05:25:59.262,-0.395351,-0.528998,0.398286,-0.636575,-0.956572,0.039552,0.071291,5.92041,15.50293,-8.850098,0,0
13114,2024 10 23,05:25:59.270,-0.395351,-0.528998,0.398286,-0.636575,-0.956572,0.039552,0.071291,5.92041,15.50293,-8.850098,0,0
13115,2024 10 23,05:25:59.278,-0.396292,-0.5286,0.397146,-0.637031,-1.003449,0.078616,0.079592,2.807617,15.319824,-9.82666,0,0
13116,2024 10 23,05:25:59.287,-0.397375,-0.528156,0.395938,-0.637478,-1.006867,0.077639,0.126469,1.77002,17.700195,-11.474609,0,0
13117,2024 10 23,05:25:59.295,-0.398686,-0.527458,0.394596,-0.638068,-0.973174,0.099612,0.090335,0.427246,21.728516,-12.084961,0,0
13118,2024 10 23,05:25:59.303,-0.399882,-0.526828,0.393221,-0.638689,-0.947295,0.076662,0.136235,3.601074,19.348145,-11.59668,0,0
13119,2024 10 23,05:25:59.312,-0.401035,-0.526246,0.391831,-0.6393,-0.942412,0.076174,0.143559,2.685547,19.65332,-11.474609,0,0
13120,2024 10 23,05:25:59.320,-0.401035,-0.526246,0.391831,-0.6393,-0.942412,0.076174,0.143559,2.685547,19.65332,-11.474609,0,0
13121,2024 10 23,05:25:59.328,-0.40208,-0.525677,0.390463,-0.639948,-0.927274,0.056642,0.130863,4.089355,18.432617,-10.070801,0,0
13122,2024 10 23,05:25:59.337,-0.403064,-0.525186,0.389276,-0.640455,-0.98294,0.067385,0.130863,2.563477,16.113281,-9.765625,0,0
13123,2024 10 23,05:25:59.345,-0.404131,-0.524694,0.388115,-0.640891,-0.940458,0.07178,0.15772,2.319336,16.906738,-11.047363,0,0
13124,2024 10 23,05:25:59.353,-0.405193,-0.524195,0.386888,-0.641371,-0.966338,0.057619,0.106937,1.647949,16.174316,-10.742188,0,0
13125,2024 10 23,05:25:59.362,-0.406235,-0.523925,0.385787,-0.641594,-0.964385,0.074709,0.160649,2.319336,12.939453,-12.390137,0,0
13126,2024 10 23,05:25:59.370,-0.406235,-0.523925,0.385787,-0.641594,-0.964385,0.074709,0.160649,2.319336,12.939453,-12.390137,0,0
13127,2024 10 23,05:25:59.378,-0.407345,-0.523721,0.384612,-0.641763,-0.999542,0.08887,0.162603,0.549316,12.268066,-14.465332,0,0
