frame,date,time,quaternion_x,quaternion_y,quaternion_z,quaternion_w,accel_x,accel_y,accel_z,gyro_x,gyro_y,gyro_z,HS,TO
4782,2024 8 29,15:35:45.013,-0.766365,0.223186,0.600519,-0.046009,-2.099889,0.148892,0.030037,-3.642532,-54.1175,-248.723587,0,0
4783,2024 8 29,15:35:45.021,-0.768389,0.237574,0.590752,-0.062872,-2.503013,0.221709,0.165625,2.153262,-71.72084,-292.176514,0,0
4784,2024 8 29,15:35:45.029,-0.769213,0.243384,0.586673,-0.069756,-2.67515,0.246409,0.218576,3.766832,-80.537079,-309.928558,0,0
4785,2024 8 29,15:35:45.038,-0.770941,0.254434,0.577721,-0.083095,-3.070432,0.270955,0.336075,6.755888,-101.411301,-347.917755,0,0
4786,2024 8 29,15:35:45.046,-0.773905,0.273263,0.561015,-0.105812,-3.813138,0.156963,0.353138,10.337492,-138.301376,-414.611572,0,0
4787,2024 8 29,15:35:45.054,-0.777519,0.295542,0.538237,-0.133011,-4.543774,-0.193952,0.49751,20.458668,-188.960541,-491.513794,0,0
4788,2024 8 29,15:35:45.063,-0.781286,0.320177,0.50934,-0.163251,-4.351772,-0.595122,0.764894,26.733448,-235.36731,-548.188599,0,0
4789,2024 8 29,15:35:45.071,-0.783521,0.345277,0.477201,-0.194952,-4.187255,-0.800728,0.737784,34.84243,-246.28566,-570.084412,0,0
4790,2024 8 29,15:35:45.079,-0.784168,0.356223,0.462854,-0.208977,-4.21963,-0.850941,0.658478,39.628002,-244.274445,-574.489563,0,0
4791,2024 8 29,15:35:45.088,-0.784372,0.369959,0.441464,-0.228541,-4.236133,-0.514922,0.765697,51.9268,-247.123505,-564.822815,0,0
4792,2024 8 29,15:35:45.096,-0.784278,0.388634,0.40827,-0.257027,-4.189867,0.174513,1.148986,76.782875,-261.053711,-549.893738,0,0
4793,2024 8 29,15:35:45.104,-0.783636,0.405534,0.371915,-0.286124,-3.453381,0.906279,1.711596,101.397568,-258.276001,-536.312866,0,0
4794,2024 8 29,15:35:45.113,-0.780408,0.418822,0.337334,-0.316992,-2.555729,1.439205,2.082771,119.883675,-188.41098,-533.566895,0,0
4795,2024 8 29,15:35:45.121,-0.771825,0.427692,0.307975,-0.353743,-1.883646,1.490242,1.94281,132.289169,-66.594269,-571.585632,0,0
4796,2024 8 29,15:35:45.129,-0.75891,0.431801,0.283006,-0.394976,0.014598,1.695706,1.667893,163.924866,25.715317,-556.804932,0,0
4797,2024 8 29,15:35:45.138,-0.752073,0.433009,0.271434,-0.415542,1.257083,1.882335,1.549875,184.540787,60.507603,-532.244019,0,0
4798,2024 8 29,15:35:45.146,-0.747479,0.428645,0.266625,-0.431403,1.887983,3.130524,1.880638,153.834946,118.494934,-307.416107,0,0
4799,2024 8 29,15:35:45.154,-0.744411,0.417369,0.276541,-0.441402,-0.016253,3.013172,0.898526,51.734665,233.034561,9.303375,0,0
4800,2024 8 29,15:35:45.163,-0.746241,0.4058,0.296879,-0.435715,-1.841555,2.099994,0.186536,-48.590729,177.821564,215.805862,0,0
4801,2024 8 29,15:35:45.171,-0.751585,0.399336,0.316238,-0.418437,-1.741602,1.595656,0.90067,-98.786224,81.192467,286.167694,0,0
4802,2024 8 29,15:35:45.179,-0.755861,0.396126,0.335079,-0.398615,-0.948236,1.21118,1.080738,-121.456375,69.566429,279.25647,0,0
4803,2024 8 29,15:35:45.188,-0.757602,0.394757,0.345123,-0.38838,-0.515074,1.000163,0.91555,-130.866318,78.810104,266.539673,0,0
4804,2024 8 29,15:35:45.196,-0.757777,0.393317,0.357597,-0.378026,-0.106181,0.85651,1.144302,-132.397751,111.764488,248.950012,0,0
4805,2024 8 29,15:35:45.204,-0.755087,0.388969,0.379414,-0.366134,-0.080039,0.862536,1.035969,-129.262421,198.369049,239.667557,0,0
4806,2024 8 29,15:35:45.213,-0.749554,0.380886,0.407897,-0.354756,-0.530898,0.957839,0.902842,-126.578758,274.529358,254.281876,0,0
4807,2024 8 29,15:35:45.221,-0.742475,0.369426,0.440473,-0.342092,-1.178946,1.018163,0.655552,-125.715187,313.109436,287.635071,0,0
4808,2024 8 29,15:35:45.229,-0.735599,0.355623,0.473834,-0.326273,-1.720629,0.959534,0.387681,-125.020248,301.292023,325.691681,0,0
4809,2024 8 29,15:35:45.238,-0.730102,0.343585,0.501523,-0.312045,-2.112481,0.869254,0.202333,-124.329277,275.17157,357.269501,0,0
4810,2024 8 29,15:35:45.246,-0.730097,0.343574,0.501549,-0.312032,-2.112851,0.869169,0.202158,-124.328629,275.146912,357.299286,0,0
4811,2024 8 29,15:35:45.254,-0.726641,0.327995,0.529538,-0.289739,-1.935904,0.576605,0.161102,-112.11924,215.102325,379.418213,0,0
4812,2024 8 29,15:35:45.263,-0.72418,0.310672,0.555054,-0.266236,-1.569766,0.397461,0.1486,-87.631317,195.937531,387.230225,0,0
4813,2024 8 29,15:35:45.271,-0.720867,0.290984,0.579678,-0.244017,-1.392576,0.298775,0.126976,-58.91684,214.029144,386.351807,0,0
4814,2024 8 29,15:35:45.279,-0.715636,0.270687,0.637461,0.090721,-1.528459,0.313226,0.07703,-30.000996,245.534286,384.553314,0,0
4815,2024 8 29,15:35:45.288,-0.708747,0.243574,0.629457,-0.204817,-1.848596,0.399386,-0.00657,-6.66412,263.093079,389.506989,0,0
4816,2024 8 29,15:35:45.296,-0.708117,0.241286,0.631736,-0.203079,-1.877905,0.407274,-0.014223,-4.527575,264.700623,389.96051,0,0
4817,2024 8 29,15:35:45.304,-0.70153,0.216733,0.652834,-0.185735,-2.091975,0.483303,-0.150817,7.836013,252.354477,400.535858,0,0
4818,2024 8 29,15:35:45.313,-0.694609,0.188807,0.673838,-0.16593,-2.163009,0.517695,-0.185171,14.854604,234.594238,411.206543,0,0
4819,2024 8 29,15:35:45.321,-0.687248,0.159835,0.693371,-0.14508,-2.152699,0.5005,-0.178403,16.086721,226.113541,419.958466,0,0
4820,2024 8 29,15:35:45.329,-0.678836,0.130278,0.711777,-0.123296,-2.206752,0.475,-0.088172,12.355736,227.520065,428.719757,0,0
4821,2024 8 29,15:35:45.338,-0.668677,0.100266,0.72958,-0.100448,-2.406575,0.429671,-0.042518,4.881699,236.964798,438.445557,0,0
4822,2024 8 29,15:35:45.346,-0.666979,0.095252,0.732555,-0.09663,-2.439964,0.422096,-0.034889,3.632842,238.542938,440.070648,0,0
4823,2024 8 29,15:35:45.354,-0.656709,0.069407,0.74686,-0.07592,-2.65736,0.307531,0.011442,-4.775082,242.917114,448.989502,0,0
4824,2024 8 29,15:35:45.363,-0.643724,0.039855,0.762141,-0.051181,-3.004053,-0.236816,0.243597,-16.875637,245.497406,459.727631,0,0
4825,2024 8 29,15:35:45.371,-0.62935,0.009403,0.776233,-0.025039,-3.241305,-0.857324,0.033997,-19.635824,240.734863,468.502258,0,0
4826,2024 8 29,15:35:45.379,-0.614256,-0.02032,0.7884,0.000611,-3.194321,-1.739953,0.005341,-19.838861,237.267746,455.574402,0,0
4827,2024 8 29,15:35:45.388,-0.596215,-0.048039,0.800563,0.024516,-3.381418,-2.665163,-0.397456,-18.855221,273.341187,427.611084,0,0
4828,2024 8 29,15:35:45.396,-0.592046,-0.054443,0.803373,0.030039,-3.424643,-2.878918,-0.490516,-18.627966,281.675415,421.150574,0,0
4829,2024 8 29,15:35:45.404,-0.575091,-0.073629,0.813102,0.047937,-3.859774,-3.477964,-1.058318,-32.061954,290.243927,386.2836,0,0
4830,2024 8 29,15:35:45.413,-0.556736,-0.091222,0.822577,0.067679,-3.994215,-3.941078,-1.94492,-63.009289,261.201965,325.222504,0,0
4831,2024 8 29,15:35:45.421,-0.543132,-0.101858,0.828643,0.08706,-3.535544,-4.811168,-2.573925,-117.441452,185.440735,240.664673,0,0
4832,2024 8 29,15:35:45.429,-0.53551,-0.103888,0.831268,0.105616,-2.731665,-5.644713,-3.05928,-174.248627,118.341057,149.206482,0,0
4833,2024 8 29,15:35:45.438,-0.532582,-0.097041,0.831665,0.122686,-2.513978,-6.534154,-3.413527,-221.27507,73.883041,51.970612,0,0
4834,2024 8 29,15:35:45.446,-0.531745,-0.095084,0.831778,0.127565,-2.45175,-6.788408,-3.514792,-234.717987,61.174332,24.174885,0,0
4835,2024 8 29,15:35:45.454,-0.533417,-0.082321,0.830517,0.137089,-2.740129,-6.576526,-3.141656,-230.032242,22.446224,-51.990253,0,0
4836,2024 8 29,15:35:45.463,-0.535263,-0.063343,0.831231,0.135368,-10.715082,-3.045378,-6.368927,-37.197067,100.246063,-232.488907,0,0
4837,2024 8 29,15:35:45.471,-0.572852,-0.041008,0.808756,0.121511,-4.530729,1.199327,3.028602,36.94529,-517.018921,-340.587921,1,0
4838,2024 8 29,15:35:45.479,-0.595604,-0.019198,0.794744,0.110423,-2.736633,0.993048,0.417851,-33.609428,-161.001404,-311.201202,0,0
4839,2024 8 29,15:35:45.488,-0.620075,0.004805,0.77873,0.093765,-1.064517,0.648775,-0.314375,-21.770967,-276.434174,-311.686523,0,0
4840,2024 8 29,15:35:45.496,-0.626397,0.011123,0.774388,0.088433,-0.688556,0.533235,-0.052319,0.355373,-414.577087,-318.787689,0,0
4841,2024 8 29,15:35:45.504,-0.638509,0.024543,0.764871,0.080132,-1.550055,-0.025358,-1.748019,-21.863882,-250.441803,-293.293671,0,0
4842,2024 8 29,15:35:45.513,-0.653759,0.040053,0.752352,0.069112,-1.797446,-0.776714,-0.95815,-15.962147,-164.447601,-221.037506,0,0
4843,2024 8 29,15:35:45.521,-0.666331,0.049026,0.741557,0.059792,-1.450198,-0.388598,0.28181,16.773968,-175.459763,-143.608948,0,0
4844,2024 8 29,15:35:45.529,-0.677443,0.05475,0.731462,0.054326,-1.200377,-0.019162,0.163872,-4.012262,-170.570587,-94.240494,0,0
4845,2024 8 29,15:35:45.538,-0.687731,0.060269,0.721483,0.052701,-0.95229,-0.182768,-0.128228,-33.499828,-157.591995,-67.154724,0,0
4846,2024 8 29,15:35:45.546,-0.696184,0.064547,0.713056,0.051569,-0.835504,-0.256846,-0.320926,-17.43865,-125.778214,-52.073185,0,0
4847,2024 8 29,15:35:45.554,-0.699224,0.065984,0.710014,0.051017,-0.819137,-0.245663,-0.3978,-4.338373,-109.450882,-47.333988,0,0
4848,2024 8 29,15:35:45.563,-0.70304,0.06678,0.706292,0.049037,-0.84964,-0.067291,-0.14283,11.226788,-92.824806,-42.831161,0,0
4849,2024 8 29,15:35:45.571,-0.707341,0.067835,0.702063,0.046446,-0.960808,0.015911,0.046935,12.414882,-66.172333,-36.182247,0,0
4850,2024 8 29,15:35:45.579,-0.710623,0.068969,0.698776,0.044255,-0.939153,0.001835,-0.068672,9.240607,-49.170471,-31.236023,0,0
4851,2024 8 29,15:35:45.588,-0.713032,0.069798,0.696377,0.042014,-0.887569,-0.003272,-0.143747,13.150332,-32.760124,-27.836739,0,0
4852,2024 8 29,15:35:45.596,-0.714429,0.070251,0.695036,0.039709,-0.946067,0.026872,-0.039476,15.285706,-16.147156,-23.867941,0,0
4853,2024 8 29,15:35:45.604,-0.714896,0.070405,0.694599,0.038694,-0.990086,0.045807,0.029937,15.411969,-9.212046,-21.941063,0,0
4854,2024 8 29,15:35:45.613,-0.715089,0.070628,0.694446,0.037457,-1.023011,0.030866,0.033532,13.451634,-3.734398,-20.254057,0,0
4855,2024 8 29,15:35:45.621,-0.715374,0.279015,0.634526,0.088085,-1.058284,0.030489,0.076307,13.017565,-4.225706,-19.399023,0,0
4856,2024 8 29,15:35:45.629,-0.715956,0.071284,0.693669,0.033841,-1.094606,0.042852,0.161589,12.562439,-9.933161,-19.97389,0,0
4857,2024 8 29,15:35:45.638,-0.717022,0.071782,0.692599,0.03208,-1.124793,0.040781,0.193556,9.938222,-19.494879,-20.84374,0,0
4858,2024 8 29,15:35:45.646,-0.718762,0.07249,0.690791,0.030456,-1.120432,0.064699,0.169098,7.134974,-31.580746,-22.588144,0,0
4859,2024 8 29,15:35:45.654,-0.719714,0.072863,0.689796,0.029689,-1.111467,0.083486,0.151113,5.908401,-37.671844,-23.633074,0,0
4860,2024 8 29,15:35:45.663,-0.72136,0.073641,0.688028,0.028771,-1.086149,0.055278,0.106845,2.410314,-43.581783,-25.888889,0,0
4861,2024 8 29,15:35:45.671,-0.723965,0.075032,0.685185,0.027436,-1.024297,0.036429,0.013214,-0.635834,-48.259872,-29.486322,0,0
4862,2024 8 29,15:35:45.679,-0.726888,0.076791,0.68194,0.026019,-0.986908,0.011951,0.009791,-2.209342,-50.120724,-31.294891,0,0
4863,2024 8 29,15:35:45.688,-0.729766,0.078573,0.678712,0.024493,-0.998491,-0.00169,0.032344,-0.244493,-48.366219,-31.444122,0,0
4864,2024 8 29,15:35:45.696,-0.732698,0.080223,0.675408,0.022845,-1.03489,-0.027945,0.072292,1.514153,-50.816689,-31.321314,0,0
4865,2024 8 29,15:35:45.704,-0.73424,0.081053,0.67367,0.021974,-1.05612,-0.046517,0.099402,2.030901,-53.377495,-31.271791,0,0
4866,2024 8 29,15:35:45.713,-0.736286,0.081905,0.671363,0.020795,-1.051075,-0.043189,0.082385,4.335079,-55.583012,-31.027704,0,0
4867,2024 8 29,15:35:45.721,-0.73941,0.082929,0.667835,0.01923,-0.992601,-0.070479,-0.058383,5.861878,-61.482441,-28.326103,0,0
4868,2024 8 29,15:35:45.729,-0.742968,0.083692,0.663818,0.017656,-0.960283,-0.034546,-0.082171,7.446468,-62.189861,-24.102505,0,0
4869,2024 8 29,15:35:45.738,-0.746302,0.084365,0.66002,0.016195,-1.003049,-0.034796,-0.060983,6.918788,-57.500885,-22.272758,0,0
4870,2024 8 29,15:35:45.746,-0.748905,0.084924,0.65704,0.015042,-1.05774,-0.06158,-0.05479,5.575954,-52.810364,-21.737192,0,0
4871,2024 8 29,15:35:45.754,-0.752326,0.085666,0.653054,0.013683,-0.973995,-0.083741,-0.006956,5.377662,-61.480415,-22.496813,0,0
4872,2024 8 29,15:35:45.763,-0.752434,0.08569,0.652928,0.01364,-0.971353,-0.08444,-0.005447,5.371407,-61.753891,-22.520773,0,0
4873,2024 8 29,15:35:45.771,-0.755474,0.086343,0.649349,0.012184,-0.979467,-0.010334,-0.072193,9.146616,-53.128826,-23.494375,0,0
4874,2024 8 29,15:35:45.779,-0.758196,0.08708,0.646102,0.010318,-1.06196,-0.075133,-0.025409,11.350754,-46.908501,-27.158464,0,0
4875,2024 8 29,15:35:45.788,-0.760684,0.087844,0.643103,0.007667,-1.129017,-0.06632,-0.056444,17.506878,-41.333469,-35.089218,0,0
4876,2024 8 29,15:35:45.796,-0.763049,0.088529,0.640236,0.003716,-1.17482,-0.088679,-0.043079,27.345203,-39.847755,-46.56197,0,0
4877,2024 8 29,15:35:45.804,-0.76516,0.089384,0.637599,-0.00169,-1.227771,-0.015257,-0.108827,37.833416,-32.055103,-60.985222,0,0
4878,2024 8 29,15:35:45.813,-0.765407,0.089484,0.63729,-0.002322,-1.233963,-0.006672,-0.116514,39.059738,-31.143959,-62.671642,0,0
4879,2024 8 29,15:35:45.821,-0.767157,0.090584,0.634969,-0.00838,-1.322522,-0.014752,-0.10205,44.181068,-31.286943,-76.001213,0,0
4880,2024 8 29,15:35:45.829,-0.76898,0.092128,0.632377,-0.016324,-1.322752,-0.043912,-0.114411,46.917046,-29.556648,-90.459061,0,0
4881,2024 8 29,15:35:45.838,-0.770621,0.094388,0.629734,-0.025439,-1.505138,0.079115,-0.167489,47.948124,-26.345505,-105.785706,0,0
4882,2024 8 29,15:35:45.846,-0.772377,0.09809,0.626535,-0.035164,-1.604688,0.142383,-0.253191,38.307533,-35.824562,-124.047813,0,0
4883,2024 8 29,15:35:45.854,-0.774635,0.103854,0.622149,-0.045192,-1.65276,0.15479,-0.123423,22.130959,-50.540627,-143.580368,0,0
4884,2024 8 29,15:35:45.863,-0.775061,0.104941,0.621322,-0.047081,-1.66182,0.157128,-0.098966,19.082167,-53.314159,-147.261658,0,0
4885,2024 8 29,15:35:45.871,-0.776667,0.112173,0.617295,-0.055772,-1.74206,0.162592,-0.162915,-0.364441,-49.68576,-165.536728,0,0
4886,2024 8 29,15:35:45.879,-0.778026,0.1227,0.612527,-0.065973,-1.945573,0.163739,-0.149392,-22.419319,-50.252441,-187.108673,0,0
4887,2024 8 29,15:35:45.888,-0.778941,0.136111,0.607124,-0.077481,-2.301945,0.240389,-0.092114,-37.618134,-50.751637,-220.691711,0,0
4888,2024 8 29,15:35:45.896,-0.779331,0.152371,0.600753,-0.09129,-2.733302,0.239538,0.041588,-43.471516,-57.520966,-267.836273,0,0
4889,2024 8 29,15:35:45.904,-0.7797,0.170951,0.592184,-0.108937,-3.195197,0.287883,0.272589,-31.917015,-79.311424,-327.277985,0,0
4890,2024 8 29,15:35:45.913,-0.779792,0.175583,0.590048,-0.113336,-3.310344,0.299935,0.330176,-29.036579,-84.743599,-342.096283,0,0
4891,2024 8 29,15:35:45.921,-0.780408,0.418822,0.337334,-0.316992,-3.81576,0.367135,0.543725,-11.514824,-113.961449,-406.582947,0,0
4892,2024 8 29,15:35:45.929,-0.781241,0.216232,0.562671,-0.160016,-4.635027,0.284184,0.517871,3.196455,-156.331604,-495.008514,0,0
4893,2024 8 29,15:35:45.938,-0.781282,0.244056,0.539397,-0.19459,-5.609883,-0.160895,0.575003,20.552259,-194.057434,-602.74823,0,0
4894,2024 8 29,15:35:45.946,-0.778817,0.274686,0.510916,-0.234876,-6.1205,-0.437778,0.58133,35.283112,-219.743622,-679.58728,0,0
4895,2024 8 29,15:35:45.954,-0.77531,0.30509,0.476996,-0.275841,-5.737318,0.089985,0.933323,60.682514,-262.267548,-697.21405,0,1
4896,2024 8 29,15:35:45.963,-0.770184,0.332998,0.439625,-0.316557,-5.335361,0.647219,1.429491,86.241814,-267.381622,-696.997986,0,0
4897,2024 8 29,15:35:45.971,-0.768596,0.34164,0.428053,-0.329165,-5.210893,0.819769,1.583131,94.156349,-268.96521,-696.931091,0,0
4898,2024 8 29,15:35:45.979,-0.762046,0.359579,0.397778,-0.360999,-4.121361,1.50148,2.296855,116.454659,-238.130722,-691.338745,0,0
4899,2024 8 29,15:35:45.988,-0.749695,0.375418,0.366288,-0.401056,-3.098596,2.425015,2.518882,143.632965,-119.554543,-680.609558,0,0
4900,2024 8 29,15:35:45.996,-0.727847,0.388709,0.335617,-0.45356,-2.524114,2.367959,2.301598,141.606461,51.356377,-662.919495,0,0
4901,2024 8 29,15:35:46.004,-0.713758,0.391373,0.312956,-0.488898,2.52487,4.146682,2.615279,198.882874,-38.425011,-389.080261,0,0
4902,2024 8 29,15:35:46.013,-0.712334,0.381652,0.313074,-0.498804,0.260724,3.507183,0.845379,52.352829,201.995911,63.815063,0,0
4903,2024 8 29,15:35:46.021,-0.713136,0.376967,0.316339,-0.499252,-1.808088,2.809865,-0.084972,-29.900543,343.431152,226.029327,0,0
4904,2024 8 29,15:35:46.029,-0.719754,0.364565,0.332623,-0.487942,-2.520112,2.670196,0.211732,-50.633163,157.173294,331.17984,0,0
4905,2024 8 29,15:35:46.038,-0.729561,0.353144,0.352503,-0.467368,-1.900306,2.466712,1.836034,-73.511742,108.813042,343.679352,0,0
4906,2024 8 29,15:35:46.046,-0.733569,0.343774,0.376003,-0.449409,-1.046147,1.853361,1.449471,-105.166763,166.820633,284.517426,0,0
4907,2024 8 29,15:35:46.054,-0.732754,0.334403,0.401656,-0.435403,-0.25253,1.66712,1.516978,-114.611435,234.519897,248.84903,0,0
4908,2024 8 29,15:35:46.063,-0.727152,0.319841,0.434592,-0.423622,-0.457773,1.995378,1.21269,-118.166687,361.602753,275.736023,0,0
4909,2024 8 29,15:35:46.071,-0.724335,0.313282,0.448671,-0.419229,-0.707645,2.167919,0.931871,-120.359863,420.748474,294.310394,0,0
4910,2024 8 29,15:35:46.079,-0.718956,0.299162,0.475313,-0.408662,-1.381041,2.160061,1.050339,-129.855759,427.966431,341.605865,0,0
4911,2024 8 29,15:35:46.088,-0.711658,0.277004,0.513812,-0.389497,-2.124777,2.020933,0.762998,-138.019302,412.91629,399.164673,0,0
4912,2024 8 29,15:35:46.096,-0.705784,0.253033,0.551021,-0.364669,-2.472219,1.70914,0.516629,-141.259811,355.023895,438.263275,0,0
4913,2024 8 29,15:35:46.104,-0.702226,0.228724,0.583369,-0.336173,-2.341227,1.311109,0.499753,-131.024536,289.702087,460.651978,0,0
4914,2024 8 29,15:35:46.113,-0.699926,0.203236,0.611368,-0.306257,-2.00139,1.014562,0.529101,-106.00631,254.506134,474.356323,0,0
4915,2024 8 29,15:35:46.121,-0.699017,0.191853,0.623148,-0.293041,-1.840292,0.905389,0.54081,-93.271568,243.982544,479.557129,0,0
4916,2024 8 29,15:35:46.129,-0.696919,0.173109,0.639138,-0.274013,-1.768236,0.834349,0.60929,-70.471863,253.860657,485.204987,0,0
4917,2024 8 29,15:35:46.138,-0.692108,0.143831,0.661629,-0.247625,-1.835943,0.831879,0.606867,-37.938229,280.663696,494.869354,0,0
4918,2024 8 29,15:35:46.146,-0.684357,0.109323,0.685337,-0.220076,-2.061859,0.915707,0.578755,-8.898651,312.58725,510.791382,0,0
4919,2024 8 29,15:35:46.154,-0.673557,0.07111,0.708868,-0.192048,-2.416425,0.923197,0.489937,12.26807,339.933594,529.42981,0,0
4920,2024 8 29,15:35:46.163,-0.659742,0.030291,0.731392,-0.16352,-2.877877,0.692524,0.348047,27.124107,362.676422,545.571899,0,0
4921,2024 8 29,15:35:46.171,-0.652713,0.010435,0.741997,-0.149797,-3.112741,0.543172,0.275097,33.473827,373.047546,552.756592,0,0
4922,2024 8 29,15:35:46.179,-0.640961,-0.017513,0.755218,-0.130966,-3.476475,0.185204,0.070212,39.780132,386.677979,563.926941,0,0
4923,2024 8 29,15:35:46.188,-0.622419,-0.05763,0.772188,-0.104093,-4.124048,-0.458596,-0.207427,45.428806,399.948547,578.539612,0,0
4924,2024 8 29,15:35:46.196,-0.600816,-0.100476,0.787826,-0.075227,-4.952542,-1.457268,-0.639434,46.381721,394.007446,574.885864,0,0
4925,2024 8 29,15:35:46.204,-0.579534,-0.141057,0.799659,-0.048015,-5.424397,-2.717036,-1.121886,45.507648,348.060364,535.435852,0,0
4926,2024 8 29,15:35:46.213,-0.560575,-0.17666,0.807399,-0.024635,-5.177118,-3.856559,-1.471184,43.099808,294.095428,471.844513,0,0
4927,2024 8 29,15:35:46.221,-0.551251,-0.194097,0.81078,-0.013281,-4.933532,-4.403491,-1.623458,41.559761,267.543304,436.576233,0,0
4928,2024 8 29,15:35:46.229,-0.539579,-0.211054,0.814581,-0.00097,-4.524296,-4.685433,-2.438684,21.233395,270.170227,381.494263,0,0
4929,2024 8 29,15:35:46.238,-0.524468,-0.226674,0.820095,0.015425,-4.30909,-5.154784,-3.604689,-37.095551,267.485687,286.844177,0,0
4930,2024 8 29,15:35:46.246,-0.512153,-0.237803,0.824795,0.029047,-4.235572,-5.594855,-4.547966,-93.119598,261.139526,203.360657,0,0
4931,2024 8 29,15:35:46.254,-0.506044,-0.235176,0.828586,0.045237,-3.244633,-6.48349,-4.542782,-180.835846,116.604889,61.882339,0,0
4932,2024 8 29,15:35:46.263,-0.510085,-0.22156,0.829086,0.057642,-2.495764,-7.525054,-3.178385,-224.278427,24.999084,-51.05661,0,0
4933,2024 8 29,15:35:46.271,-0.512734,-0.202534,0.831806,0.064454,-2.966894,-7.110758,-3.006434,-185.342163,38.429844,-130.3806,0,0
4934,2024 8 29,15:35:46.279,-0.512894,-0.201386,0.83197,0.064865,-2.995314,-7.085766,-2.996061,-182.993378,39.24004,-135.165726,0,0
4935,2024 8 29,15:35:46.288,-0.512416,-0.183561,0.836843,0.058231,-14.827623,-2.709719,0.550349,30.087112,118.876175,-236.200821,0,0
4936,2024 8 29,15:35:46.296,-0.568614,-0.152651,0.807411,0.027668,-1.751766,1.431153,5.370952,-45.763382,-1096.509766,-472.297119,1,0
4937,2024 8 29,15:35:46.304,-0.600144,-0.12415,0.789867,0.011113,-1.335643,-0.139766,3.178778,-148.50882,-126.801392,-352.587189,0,0
4938,2024 8 29,15:35:46.313,-0.61755,-0.098398,0.780152,-0.007162,-0.394067,0.159284,0.086097,-27.001335,-507.830475,-352.598419,0,0
4939,2024 8 29,15:35:46.321,-0.63793,-0.074284,0.76598,-0.022875,-2.573549,-1.825696,-3.016717,-50.624866,-264.575562,-296.053223,0,0
4940,2024 8 29,15:35:46.329,-0.640801,-0.070886,0.763983,-0.025089,-2.880674,-2.105412,-3.453955,-53.953812,-230.296936,-288.085052,0,0
4941,2024 8 29,15:35:46.338,-0.657269,-0.06171,0.750023,-0.038717,-2.032945,-0.661343,-0.863932,13.96093,-261.957855,-172.232422,0,0
4942,2024 8 29,15:35:46.346,-0.673911,-0.053516,0.735258,-0.047022,-1.110811,0.589663,0.516967,-9.135168,-252.638046,-112.736847,0,0
4943,2024 8 29,15:35:46.354,-0.687691,-0.042799,0.722973,-0.049205,-1.031357,-0.221439,-0.128055,-65.267693,-223.110443,-95.626068,0,0
4944,2024 8 29,15:35:46.363,-0.701865,-0.033346,0.709547,-0.051659,-0.64032,-0.4261,-0.340615,-49.594658,-229.283096,-78.421967,0,0
4945,2024 8 29,15:35:46.371,-0.713246,-0.026691,0.698283,-0.053449,-0.6733,-0.191399,-0.326925,-35.082912,-174.973358,-50.565552,0,0
4946,2024 8 29,15:35:46.379,-0.721179,-0.022248,0.690225,-0.054105,-0.501242,-0.165575,-0.70399,-23.83762,-118.85273,-29.980736,0,0
4947,2024 8 29,15:35:46.388,-0.722917,-0.021275,0.68846,-0.054248,-0.463551,-0.159917,-0.786589,-21.374245,-106.559044,-25.471462,0,0
4948,2024 8 29,15:35:46.396,-0.726272,-0.019613,0.684893,-0.055248,-0.862111,0.036831,0.025904,-10.121448,-66.078629,-22.819029,0,0
4949,2024 8 29,15:35:46.404,-0.728665,-0.017834,0.682299,-0.056467,-0.963516,-0.073337,-0.046846,1.97718,-43.847061,-23.784481,0,0
4950,2024 8 29,15:35:46.413,-0.730416,-0.017029,0.680242,-0.058875,-0.928427,0.02057,-0.070328,14.230184,-30.611294,-26.325033,0,0
4951,2024 8 29,15:35:46.421,-0.731344,-0.016411,0.679015,-0.061636,-0.946834,0.011257,-0.048574,17.743538,-15.349309,-28.093487,0,0
4952,2024 8 29,15:35:46.429,-0.731517,-0.015852,0.678592,-0.064346,-0.960898,-0.004959,-0.028688,15.73173,-4.19294,-27.420816,0,0
4953,2024 8 29,15:35:46.438,-0.731564,-0.015699,0.678475,-0.065092,-0.964774,-0.009427,-0.023209,15.177396,-1.118905,-27.235468,0,0
4954,2024 8 29,15:35:46.446,-0.731262,-0.015184,0.678616,-0.067107,-0.997497,-0.025477,-0.017871,12.012402,3.406568,-26.967979,0,0
4955,2024 8 29,15:35:46.454,-0.730735,-0.014502,0.678974,-0.069335,-1.04036,0.025194,0.012564,11.086339,5.792154,-26.507589,0,0
4956,2024 8 29,15:35:46.463,-0.73041,-0.013367,0.679147,-0.071255,-1.091527,0.03708,0.02239,3.254203,0.089278,-26.8307,0,0
4957,2024 8 29,15:35:46.471,-0.730637,-0.011698,0.678767,-0.072827,-1.066843,0.072278,0.026421,-1.944142,-8.350683,-27.552721,0,0
4958,2024 8 29,15:35:46.479,-0.731148,-0.009429,0.67813,-0.073953,-1.062963,0.003372,0.003747,-11.095407,-13.361383,-27.658371,0,0
4959,2024 8 29,15:35:46.488,-0.731314,-0.008693,0.677923,-0.074318,-1.061704,-0.018981,-0.003608,-14.064115,-14.986875,-27.692644,0,0
4960,2024 8 29,15:35:46.496,-0.732017,-0.006422,0.677093,-0.075183,-0.993413,-0.029086,0.032771,-15.500572,-18.084023,-28.486443,0,0
4961,2024 8 29,15:35:46.504,-0.733035,-0.003626,0.675907,-0.076114,-1.058258,-0.020325,0.029123,-14.35634,-21.73217,-30.327721,0,0
4962,2024 8 29,15:35:46.513,-0.734389,-0.000703,0.67431,-0.077288,-1.042063,-0.057568,0.048452,-12.414773,-28.829412,-32.730637,0,0
4963,2024 8 29,15:35:46.521,-0.735595,0.00204,0.672786,-0.079069,-1.008942,-0.033967,-0.042573,-6.863475,-24.492346,-37.140179,0,0
4964,2024 8 29,15:35:46.529,-0.736635,0.004523,0.67133,-0.081608,-1.039473,-0.054315,-0.035189,2.618305,-22.068274,-41.39896,0,0
4965,2024 8 29,15:35:46.538,-0.736974,0.005332,0.670842,-0.08253,-1.056023,-0.039984,-0.005817,6.125068,-22.09236,-42.717125,0,0
4966,2024 8 29,15:35:46.546,-0.737495,0.00675,0.669954,-0.08493,-1.076051,-0.093484,0.007158,10.761551,-19.812748,-45.626457,0,0
4967,2024 8 29,15:35:46.554,-0.738095,0.008498,0.668753,-0.088908,-1.168373,-0.138642,0.017754,18.910524,-18.158707,-50.023033,0,0
4968,2024 8 29,15:35:46.563,-0.739085,0.01005,0.666961,-0.093825,-1.201188,-0.134178,0.11212,30.071228,-27.849665,-55.131912,0,0
4969,2024 8 29,15:35:46.571,-0.740542,0.011391,0.664468,-0.099663,-1.181425,-0.156994,0.090147,39.322968,-36.469162,-61.251602,0,0
4970,2024 8 29,15:35:46.579,-0.742067,0.012528,0.661667,-0.10654,-1.206583,-0.094043,0.00677,48.811577,-37.536201,-68.828667,0,0
4971,2024 8 29,15:35:46.588,-0.742655,0.012949,0.660558,-0.109333,-1.22408,-0.054731,-0.026547,52.691547,-37.129585,-71.947609,0,0
4972,2024 8 29,15:35:46.596,-0.743794,0.013847,0.658358,-0.114549,-1.236212,-0.03352,-0.041856,53.437202,-42.48764,-77.125145,0,0
4973,2024 8 29,15:35:46.604,-0.74538,0.015514,0.65512,-0.122267,-1.235026,0.000679,-0.108828,52.360565,-43.822521,-85.704079,0,0
4974,2024 8 29,15:35:46.613,-0.746772,0.017851,0.651804,-0.130835,-1.271361,0.015126,-0.130884,50.732372,-41.213676,-95.96154,0,0
4975,2024 8 29,15:35:46.621,-0.74784,0.020926,0.648562,-0.140026,-1.310416,0.002426,-0.123978,47.684338,-39.366798,-107.417168,0,0
4976,2024 8 29,15:35:46.629,-0.748712,0.02494,0.645239,-0.149691,-1.439791,0.020713,-0.19464,40.933502,-42.092716,-119.083221,0,0
4977,2024 8 29,15:35:46.638,-0.749074,0.026807,0.643776,-0.153949,-1.511609,0.034815,-0.238312,37.478954,-43.93845,-124.145851,0,0
4978,2024 8 29,15:35:46.646,-0.749762,0.030844,0.641167,-0.160495,-1.62445,0.06509,-0.142228,28.520233,-48.37793,-134.476547,0,0
4979,2024 8 29,15:35:46.654,-0.750466,0.038065,0.637537,-0.169719,-1.744423,0.061104,-0.041389,12.448757,-53.203945,-151.552429,0,0
4980,2024 8 29,15:35:46.663,-0.751073,0.047869,0.633388,-0.179664,-1.876047,0.027716,-0.057266,-6.412201,-59.725498,-171.232162,0,0
4981,2024 8 29,15:35:46.671,-0.751264,0.060038,0.628832,-0.190711,-2.055957,0.081258,-0.048298,-17.909191,-63.541645,-200.094696,0,0
4982,2024 8 29,15:35:46.679,-0.750825,0.074703,0.623689,-0.203493,-2.347016,0.140204,-0.06177,-25.037159,-69.25869,-238.050385,0,0
4983,2024 8 29,15:35:46.688,-0.750531,0.081995,0.621161,-0.209802,-2.502068,0.163132,-0.076215,-28.160635,-72.533333,-257.097321,0,0
4984,2024 8 29,15:35:46.696,-0.749514,0.093878,0.616841,-0.220606,-2.848126,0.26517,-0.121719,-26.147343,-78.450996,-291.43512,0,0
4985,2024 8 29,15:35:46.704,-0.747567,0.112484,0.609299,-0.238129,-3.3262,0.326309,-0.028934,-20.620329,-95.117844,-348.551178,0,0
4986,2024 8 29,15:35:46.713,-0.744263,0.135814,0.598975,-0.260651,-3.818898,0.151339,0.082425,-18.921946,-111.533096,-420.227173,0,0
4987,2024 8 29,15:35:46.721,-0.73915,0.162944,0.58575,-0.287479,-4.144642,-0.247652,0.021958,-14.941898,-129.431213,-486.503723,0,0
4988,2024 8 29,15:35:46.729,-0.732992,0.191933,0.568941,-0.316924,-4.086523,-0.363864,0.263515,1.84384,-155.874222,-525.383789,0,0
4989,2024 8 29,15:35:46.738,-0.72581,0.220811,0.549103,-0.347704,-3.872975,-0.152246,0.556248,21.472887,-167.809555,-543.091553,0,0
4990,2024 8 29,15:35:46.746,-0.720031,0.242976,0.533221,-0.371686,-3.697676,0.068939,0.759137,36.248264,-172.124771,-553.275024,0,0
4991,2024 8 29,15:35:46.754,-0.719959,0.243252,0.533023,-0.371985,-3.69549,0.071697,0.761667,36.432507,-172.178574,-553.401978,0,0
4992,2024 8 29,15:35:46.763,-0.709978,0.269055,0.511198,-0.402636,-3.661372,0.064778,1.145217,49.908047,-152.178741,-554.163635,0,0
4993,2024 8 29,15:35:46.771,-0.697801,0.291153,0.487935,-0.435971,-2.997399,0.913344,1.632166,101.859337,-118.247009,-555.000488,0,0
4994,2024 8 29,15:35:46.779,-0.679553,0.308039,0.468103,-0.473281,-2.349144,1.487053,1.233325,119.547379,7.625565,-586.060913,0,1
4995,2024 8 29,15:35:46.788,-0.659066,0.320734,0.448118,-0.511561,1.78074,1.041049,4.028536,166.172043,-11.725224,-537.618408,0,0
4996,2024 8 29,15:35:46.796,-0.650613,0.317901,0.433143,-0.536558,0.643722,2.611059,1.515471,208.205551,141.037643,-183.120178,0,0
4997,2024 8 29,15:35:46.804,-0.649759,0.317615,0.43163,-0.539085,0.528778,2.769775,1.261418,212.454834,156.480835,-147.28302,0,0
4998,2024 8 29,15:35:46.813,-0.644684,0.29026,0.442006,-0.551911,-2.935846,2.757729,-0.72089,204.648193,282.527618,69.548813,0,0
4999,2024 8 29,15:35:46.821,-0.655093,0.271354,0.442502,-0.548918,-1.04472,2.775056,1.979885,146.869843,34.278641,190.218292,0,0
5000,2024 8 29,15:35:46.829,-0.662827,0.252083,0.450281,-0.542448,-1.071769,2.138421,0.388367,71.517914,136.225922,213.064941,0,0
5001,2024 8 29,15:35:46.838,-0.668629,0.23821,0.457832,-0.535253,-0.037761,1.782736,1.504941,26.885742,84.152451,166.696533,0,0
5002,2024 8 29,15:35:46.846,-0.667799,0.224024,0.471336,-0.530658,0.25875,1.838184,1.06438,-4.512894,221.506485,136.720505,0,0
5003,2024 8 29,15:35:46.854,-0.667653,0.22154,0.473701,-0.529853,0.310675,1.847894,0.987229,-10.0114,245.55983,131.47113,0,0
5004,2024 8 29,15:35:46.862,-0.662158,0.20673,0.491612,-0.526286,-0.298555,1.835636,0.915812,-37.799301,295.118774,142.702896,0,0
5005,2024 8 29,15:35:46.871,-0.653889,0.187608,0.515998,-0.520252,-1.01504,1.77578,0.664262,-62.166912,358.087341,168.191299,0,0
5006,2024 8 29,15:35:46.879,-0.644493,0.166074,0.543088,-0.511515,-1.589954,1.601667,0.184032,-78.213364,369.171356,196.358337,0,0
5007,2024 8 29,15:35:46.887,-0.636948,0.144242,0.568783,-0.49947,-1.876015,1.368457,0.026753,-82.932518,337.186798,230.518753,0,0
5008,2024 8 29,15:35:46.896,-0.63193,0.12153,0.591968,-0.4847,-2.010204,1.094358,-0.292296,-72.194885,299.730804,266.525208,0,0
5009,2024 8 29,15:35:46.904,-0.630736,0.116127,0.597484,-0.481187,-2.042125,1.029155,-0.368192,-69.640602,290.82074,275.090454,0,0
5010,2024 8 29,15:35:46.912,-0.629765,0.096642,0.61248,-0.467552,-1.875122,0.826557,-0.351918,-46.469147,254.513367,299.523315,0,0
5011,2024 8 29,15:35:46.921,-0.629317,0.071467,0.627977,-0.45166,-1.824395,0.703879,-0.439106,-10.809605,249.653168,320.339081,0,0
5012,2024 8 29,15:35:46.929,-0.629059,0.042785,0.641893,-0.435658,-1.855684,0.691011,-0.528558,24.13908,243.117462,336.2276,0,0
5013,2024 8 29,15:35:46.937,-0.628854,0.01148,0.65379,-0.419806,-1.953438,0.735192,-0.549993,53.067551,240.930481,351.692871,0,0
5014,2024 8 29,15:35:46.946,-0.62879,-0.021636,0.663686,-0.403544,-2.038947,0.754935,-0.578435,70.769882,230.890625,368.204681,0,0
5015,2024 8 29,15:35:46.954,-0.628771,0.237979,0.630196,0.388403,-2.063896,0.760696,-0.586733,75.934845,227.961334,373.022278,0,0
5016,2024 8 29,15:35:46.962,-0.628907,-0.0584,0.672439,-0.38518,-1.999117,0.724444,-0.510573,81.517639,222.124985,384.298615,0,0
5017,2024 8 29,15:35:46.971,-0.628225,-0.091187,0.678696,-0.368189,-1.999095,0.642175,-0.412023,83.569794,228.798874,393.212891,0,0
5018,2024 8 29,15:35:46.979,-0.625848,-0.125957,0.684959,-0.349615,-2.113064,0.55049,-0.338514,84.382401,243.758133,395.290344,0,0
5019,2024 8 29,15:35:46.987,-0.621468,-0.161226,0.691051,-0.330208,-2.23926,0.402278,-0.288093,84.117676,258.22052,392.390411,0,0
5020,2024 8 29,15:35:46.996,-0.614037,-0.204769,0.698231,-0.305142,-2.525612,0.076492,-0.147308,78.868774,272.847595,392.237915,0,0
5021,2024 8 29,15:35:47.004,-0.612114,-0.214363,0.699765,-0.299463,-2.607098,-0.015409,-0.105224,77.018837,275.615753,392.687195,0,0
5022,2024 8 29,15:35:47.012,-0.60614,-0.239219,0.70318,-0.283786,-2.591766,-0.234143,-0.222673,71.838875,276.597351,391.061859,0,0
5023,2024 8 29,15:35:47.021,-0.596703,-0.272102,0.70775,-0.261816,-2.61553,-0.580307,-0.239874,61.25676,290.364075,383.674164,0,0
5024,2024 8 29,15:35:47.029,-0.584932,-0.303572,0.712995,-0.238436,-2.825793,-0.944782,-0.533277,41.696358,313.505829,369.196686,0,0
5025,2024 8 29,15:35:47.037,-0.571807,-0.33207,0.718649,-0.214071,-3.144078,-1.344147,-0.910298,13.242979,319.803894,346.338989,0,0
5026,2024 8 29,15:35:47.046,-0.559525,0.165582,0.634426,0.506924,-3.199022,-1.880247,-1.279755,-25.837843,295.527893,312.287231,0,0
5027,2024 8 29,15:35:47.054,-0.555542,-0.363297,0.725609,-0.181141,-3.185892,-2.073489,-1.403354,-39.858131,284.679321,299.895294,0,0
5028,2024 8 29,15:35:47.062,-0.549126,-0.374188,0.728855,-0.16425,-2.841452,-2.547784,-1.662323,-74.626831,261.263763,266.730103,0,0
5029,2024 8 29,15:35:47.071,-0.541352,-0.384793,0.734005,-0.140792,-2.374022,-3.169463,-2.060246,-123.53299,243.536926,217.700592,0,0
5030,2024 8 29,15:35:47.079,-0.534648,-0.389548,0.740565,-0.117008,-1.988624,-3.776897,-2.517516,-168.040985,225.521103,153.740326,0,0
5031,2024 8 29,15:35:47.087,-0.528177,-0.387303,0.749407,-0.095712,-6.030089,-6.779766,-0.795982,-179.10051,233.177933,59.09201,0,0
5032,2024 8 29,15:35:47.096,-0.526876,-0.371422,0.758959,-0.090546,-5.798664,-8.462764,-1.48346,-150.429703,-27.590042,-151.100952,0,0
5033,2024 8 29,15:35:47.104,-0.527048,-0.363733,0.762667,-0.090537,-4.961841,-8.838424,-2.158438,-135.535156,-164.673111,-246.389618,0,0
5034,2024 8 29,15:35:47.112,-0.539507,-0.344337,0.76009,-0.109642,-4.797406,-8.77228,-3.60931,-70.655815,-308.479675,-328.887726,1,0
5035,2024 8 29,15:35:47.121,-0.566142,-0.321218,0.744691,-0.142709,-1.975743,-2.067856,0.574914,25.45623,-507.046997,-273.68277,0,0
5036,2024 8 29,15:35:47.129,-0.589433,-0.301074,0.730539,-0.165272,-1.514082,0.71986,0.401272,19.015078,-403.880432,-224.249435,0,0
5037,2024 8 29,15:35:47.137,-0.605775,-0.282403,0.72075,-0.182129,-1.782968,-0.15639,-1.39326,-6.190224,-279.566406,-210.20108,0,0
5038,2024 8 29,15:35:47.146,-0.618554,-0.267101,0.711606,-0.197961,-1.574715,-0.404651,-0.642692,-1.473513,-231.296463,-172.91391,0,0
5039,2024 8 29,15:35:47.154,-0.629731,-0.255336,0.702512,-0.210648,-1.264081,-0.028872,0.444171,11.330486,-216.141205,-121.009399,0,0
5040,2024 8 29,15:35:47.162,-0.634504,-0.250533,0.698537,-0.215788,-1.130018,0.17041,0.854708,16.95129,-211.971405,-97.478836,0,0
5041,2024 8 29,15:35:47.171,-0.642239,-0.243461,0.692577,-0.220111,-1.071973,-0.011943,0.418543,-28.617813,-209.372406,-79.305229,0,0
5042,2024 8 29,15:35:47.179,-0.653727,-0.233397,0.683963,-0.22392,-0.861555,-0.283268,-0.174536,-61.148052,-213.328064,-57.758381,0,0
5043,2024 8 29,15:35:47.187,-0.665417,-0.22392,0.674814,-0.226879,-0.729655,-0.198258,-0.488185,-55.587955,-191.356964,-38.366112,0,0
5044,2024 8 29,15:35:47.196,-0.67511,-0.216347,0.667025,-0.228733,-0.754888,-0.094225,-0.289252,-48.015701,-149.591492,-25.406746,0,0
5045,2024 8 29,15:35:47.204,-0.682099,-0.210628,0.661382,-0.229865,-0.733939,-0.129156,-0.335439,-34.075264,-106.180817,-19.179396,0,0
5046,2024 8 29,15:35:47.212,-0.685101,-0.208113,0.658957,-0.23034,-0.710713,-0.162617,-0.418521,-26.034039,-85.764847,-16.983582,0,0
5047,2024 8 29,15:35:47.221,-0.687568,-0.206147,0.656739,-0.231133,-0.85365,-0.076751,-0.145658,-17.90715,-64.015808,-13.91642,0,0
5048,2024 8 29,15:35:47.229,-0.689675,-0.204316,0.654703,-0.232274,-0.927011,-0.01434,-0.076123,-4.514943,-44.214081,-14.63806,0,0
5049,2024 8 29,15:35:47.237,-0.691029,-0.20297,0.653114,-0.233907,-0.897241,-0.01036,-0.084868,3.645897,-30.389523,-17.190058,0,0
5050,2024 8 29,15:35:47.246,-0.691904,-0.202059,0.652,-0.235238,-0.859336,-0.017016,-0.085445,8.128681,-21.099771,-19.203602,0,0
5051,2024 8 29,15:35:47.254,-0.691637,-0.20171,0.651672,-0.237225,-0.924944,0.032307,-0.044605,16.013926,-0.754425,-18.572412,0,0
5052,2024 8 29,15:35:47.262,-0.6908,-0.201731,0.651908,-0.238989,-1.017357,-0.014496,0.017237,15.291308,4.055984,-17.095282,0,0
5053,2024 8 29,15:35:47.271,-0.690765,-0.201732,0.651918,-0.239063,-1.021273,-0.016479,0.019858,15.260685,4.259838,-17.032684,0,0
5054,2024 8 29,15:35:47.279,-0.689875,-0.201933,0.652137,-0.240859,-1.069475,-0.00573,0.065722,17.635063,5.176733,-16.915943,0,0
5055,2024 8 29,15:35:47.287,-0.689073,-0.202134,0.652188,-0.242839,-1.092105,0.022672,0.071696,18.975626,0.00681,-17.074646,0,0
5056,2024 8 29,15:35:47.296,-0.688664,0.291357,0.65587,0.103377,-1.056311,0.034771,0.008139,13.66046,-5.649269,-17.30772,0,0
5057,2024 8 29,15:35:47.304,-0.688653,-0.201368,0.651549,-0.246357,-0.986603,0.064075,-0.007279,5.781851,-9.563497,-17.222906,0,0
5058,2024 8 29,15:35:47.312,-0.6888,-0.200181,0.651356,-0.247421,-1.011517,0.049926,-0.026484,-1.922824,-8.675096,-17.21332,0,0
5059,2024 8 29,15:35:47.321,-0.688818,-0.200032,0.651332,-0.247555,-1.014655,0.048144,-0.028902,-2.89316,-8.56321,-17.212112,0,0
5060,2024 8 29,15:35:47.329,-0.689128,-0.198591,0.651218,-0.248151,-1.001438,0.009425,0.003857,-9.335974,-10.460936,-17.056818,0,0
5061,2024 8 29,15:35:47.337,-0.68946,-0.196857,0.651179,-0.248711,-1.013721,0.00971,0.016541,-10.408518,-9.064552,-17.390268,0,0
5062,2024 8 29,15:35:47.346,-0.689702,-0.195067,0.651213,-0.249363,-1.02939,0.005734,-0.005125,-9.728241,-9.189536,-19.053007,0,0
5063,2024 8 29,15:35:47.354,-0.690065,-0.193213,0.651076,-0.250157,-1.024977,-0.007253,0.033941,-8.866228,-11.293498,-19.193583,0,0
5064,2024 8 29,15:35:47.362,-0.690342,-0.191294,0.651007,-0.251045,-1.044505,0.004036,-0.051159,-10.662767,-11.780945,-20.637844,0,0
5065,2024 8 29,15:35:47.371,-0.690396,-0.190917,0.650993,-0.251219,-1.048334,0.00625,-0.067846,-11.015053,-11.876529,-20.921051,0,0
5066,2024 8 29,15:35:47.379,-0.690792,-0.189,0.650831,-0.251998,-1.032365,-0.011196,-0.025204,-12.754339,-14.419794,-23.265034,0,0
5067,2024 8 29,15:35:47.387,-0.691217,-0.186622,0.650702,-0.252933,-1.01762,-0.029269,-0.029108,-13.601761,-13.843946,-25.559502,0,0
5068,2024 8 29,15:35:47.396,-0.691615,-0.18412,0.650536,-0.254104,-1.029488,-0.044507,-0.000305,-11.057281,-14.594552,-27.518642,0,0
5069,2024 8 29,15:35:47.404,-0.691729,-0.18174,0.650479,-0.255646,-1.021307,-0.045919,-0.045877,-6.240868,-11.474806,-31.280382,0,0
5070,2024 8 29,15:35:47.412,-0.691818,-0.17944,0.650257,-0.257588,-1.022547,-0.079192,0.033705,-1.797446,-13.962063,-32.795536,0,0
5071,2024 8 29,15:35:47.421,-0.69184,-0.178852,0.6502,-0.258084,-1.022864,-0.087704,0.054064,-0.660738,-14.598348,-33.18314,0,0
5072,2024 8 29,15:35:47.429,-0.691722,-0.177345,0.649958,-0.260042,-1.000711,-0.08184,-0.032666,4.405271,-13.178622,-33.638779,0,0
5073,2024 8 29,15:35:47.437,-0.691756,-0.175729,0.649352,-0.262546,-0.980349,-0.082676,-0.039676,8.756209,-16.712645,-32.804638,0,0
5074,2024 8 29,15:35:47.446,-0.69179,-0.174275,0.648591,-0.265291,-0.967362,-0.092214,-0.035454,11.880121,-16.677332,-31.836901,0,0
5075,2024 8 29,15:35:47.454,-0.69169,-0.17303,0.647837,-0.268193,-1.001036,-0.074902,-0.022309,15.214769,-14.709408,-31.938368,0,0
5076,2024 8 29,15:35:47.462,-0.691515,-0.171914,0.647033,-0.271283,-1.044761,-0.075779,-0.042941,17.937031,-15.803048,-32.936138,0,0
5077,2024 8 29,15:35:47.471,-0.691461,-0.171571,0.646786,-0.272233,-1.058197,-0.076048,-0.049281,18.773539,-16.139105,-33.242737,0,0
5078,2024 8 29,15:35:47.479,-0.691332,-0.170723,0.646009,-0.27492,-1.030864,-0.057061,-0.054567,19.98255,-17.437004,-34.613556,0,0
5079,2024 8 29,15:35:47.487,-0.691058,-0.169677,0.645146,-0.278258,-1.028541,-0.048004,-0.048471,21.95788,-15.336424,-37.047527,0,0
5080,2024 8 29,15:35:47.496,-0.690381,-0.168214,0.644273,-0.28282,-1.090842,-0.050474,-0.087991,21.976284,-11.863053,-41.557617,0,0
5081,2024 8 29,15:35:47.504,-0.68959,-0.166697,0.64371,-0.286897,-1.181312,-0.058451,-0.086522,21.404985,-11.835934,-47.777245,0,0
5082,2024 8 29,15:35:47.512,-0.688582,-0.164736,0.643218,-0.291515,-1.270876,-0.055131,-0.051916,22.859793,-12.474064,-57.669491,0,0
5083,2024 8 29,15:35:47.521,-0.688293,-0.164174,0.643089,-0.292808,-1.294955,-0.053334,-0.041184,23.404243,-12.625054,-60.61132,0,0
5084,2024 8 29,15:35:47.529,-0.687295,-0.162242,0.64271,-0.297015,-1.354182,-0.050821,0.00282,26.663883,-14.35563,-70.507431,0,0
5085,2024 8 29,15:35:47.537,-0.685726,-0.159175,0.642189,-0.303349,-1.402478,-0.040395,-0.038252,28.661285,-16.963898,-83.730225,0,0
5086,2024 8 29,15:35:47.546,-0.684083,-0.155084,0.64145,-0.31064,-1.376589,-0.029543,-0.029207,27.021057,-23.890621,-97.452553,0,0
5087,2024 8 29,15:35:47.554,-0.682399,-0.149852,0.640691,-0.318371,-1.366852,-0.049026,-0.018246,19.843739,-27.698357,-108.837105,0,0
5088,2024 8 29,15:35:47.562,-0.680592,-0.143459,0.64008,-0.326303,-1.462637,-0.060504,-0.033694,11.020159,-30.577356,-120.000816,0,0
5089,2024 8 29,15:35:47.571,-0.678563,-0.135742,0.639515,-0.334806,-1.601045,-0.026471,-0.03123,5.530402,-35.697117,-136.539551,0,0
5090,2024 8 29,15:35:47.579,-0.677848,-0.132987,0.639322,-0.337776,-1.64996,-0.010653,-0.027936,3.998214,-37.670609,-142.745697,0,0
5091,2024 8 29,15:35:47.587,-0.676801,-0.125739,0.638363,-0.344338,-1.682519,-0.03412,0.070008,-2.808589,-54.078182,-156.208054,0,0
5092,2024 8 29,15:35:47.596,-0.675066,-0.114599,0.636959,-0.354031,-1.79872,-0.042769,0.081335,-8.882701,-62.74794,-178.238007,0,0
5093,2024 8 29,15:35:47.604,-0.672912,-0.101317,0.634953,-0.36553,-1.960764,-0.027873,0.161875,-7.241863,-75.073647,-205.708374,0,0
5094,2024 8 29,15:35:47.612,-0.670096,-0.086117,0.63218,-0.379072,-2.210709,0.019676,0.149524,-1.166622,-87.32103,-239.649017,0,0
5095,2024 8 29,15:35:47.621,-0.666376,-0.068816,0.628178,-0.395346,-2.5325,0.078982,0.183949,9.933608,-104.178146,-282.604797,0,0
5096,2024 8 29,15:35:47.629,-0.664827,-0.061818,0.626481,-0.402009,-2.664612,0.10271,0.207309,14.805161,-111.427048,-300.366852,0,0
5097,2024 8 29,15:35:47.637,-0.661128,-0.047447,0.622231,-0.416165,-3.047786,0.06957,0.151066,20.752422,-125.155754,-340.114594,0,0
5098,2024 8 29,15:35:47.646,-0.654939,-0.025052,0.614755,-0.438057,-3.425454,-0.077448,0.293112,28.806107,-150.854187,-402.036621,0,0
5099,2024 8 29,15:35:47.654,-0.645669,0.002371,0.60536,-0.464419,-3.452882,-0.36513,0.467326,31.518917,-162.545425,-473.08783,0,0
5100,2024 8 29,15:35:47.662,-0.632663,0.032577,0.595302,-0.492996,-3.699036,-0.597138,0.367909,28.451578,-150.413147,-517.148621,0,0
5101,2024 8 29,15:35:47.671,-0.617978,0.063008,0.583736,-0.521538,-3.886706,-0.630132,0.184983,42.540928,-159.412445,-521.268188,0,0
5102,2024 8 29,15:35:47.679,-0.61147,0.076245,0.578507,-0.533934,-3.948961,-0.622196,0.104517,51.06152,-166.79306,-518.996521,0,0
5103,2024 8 29,15:35:47.687,-0.602288,0.096054,0.567495,-0.552424,-3.548681,-0.397325,0.299868,69.115906,-185.372253,-504.791687,0,0
5104,2024 8 29,15:35:47.696,-0.589948,0.120843,0.550941,-0.576764,-3.023294,0.164174,0.810424,91.855423,-184.499268,-488.873352,0,0
5105,2024 8 29,15:35:47.704,-0.574726,0.144419,0.533158,-0.602677,-2.405598,0.737348,1.34318,110.343552,-147.086563,-483.700958,0,0
5106,2024 8 29,15:35:47.712,-0.554984,0.16434,0.516378,-0.629971,-1.678405,0.960992,1.725101,125.568199,-72.804863,-493.685577,0,0
5107,2024 8 29,15:35:47.721,-0.52948,0.178666,0.500592,-0.659889,-0.752162,0.858806,1.852143,176.287598,19.637466,-514.927612,0,0
5108,2024 8 29,15:35:47.729,-0.516764,0.184797,0.493214,-0.674367,-0.289437,0.778598,1.882389,205.310425,64.763435,-526.049194,0,1
5109,2024 8 29,15:35:47.737,-0.501586,0.187329,0.480886,-0.693707,1.352629,1.449467,1.988746,246.79747,61.236076,-408.667877,0,0
5110,2024 8 29,15:35:47.746,-0.489114,0.188834,0.470332,-0.709848,2.833218,2.093083,2.084604,281.712463,51.423592,-296.473816,0,0
5111,2024 8 29,15:35:47.754,-0.478248,0.167517,0.466012,-0.725277,-1.047483,2.367819,0.365227,198.01059,314.288116,-8.279999,0,0
5112,2024 8 29,15:35:47.762,-0.480713,0.140788,0.465621,-0.72956,-1.550989,2.219856,-0.233822,148.682388,151.404541,168.548004,0,0
5113,2024 8 29,15:35:47.771,-0.492808,0.121119,0.466458,-0.724467,-1.087062,1.857344,1.106315,79.485939,108.078796,242.378448,0,0
5114,2024 8 29,15:35:47.779,-0.504542,0.102294,0.471788,-0.715779,-0.759207,1.520201,0.282791,15.496693,93.076561,248.434097,0,0
5115,2024 8 29,15:35:47.787,-0.50537,0.100966,0.472164,-0.715167,-0.736085,1.496423,0.224709,10.983683,92.018494,248.861191,0,0
5116,2024 8 29,15:35:47.796,-0.514194,0.088856,0.478521,-0.706178,0.016554,1.090062,1.021455,-29.172819,100.828674,203.794144,0,0
5117,2024 8 29,15:35:47.804,-0.51661,0.073797,0.490511,-0.697858,0.139545,1.011973,0.589026,-57.854347,189.57486,156.014557,0,0
5118,2024 8 29,15:35:47.812,-0.514183,0.057409,0.506248,-0.689884,-0.026703,0.999835,0.707475,-81.797981,252.59111,129.457092,0,0
5119,2024 8 29,15:35:47.821,-0.507644,0.037568,0.526076,-0.681154,-0.658973,1.039092,0.283444,-100.596695,321.127472,128.405045,0,0
5120,2024 8 29,15:35:47.829,-0.500849,0.016661,0.547111,-0.670322,-1.078822,0.976953,0.200807,-117.779297,323.905457,146.746948,0,0
5121,2024 8 29,15:35:47.837,-0.499833,0.013536,0.550255,-0.668703,-1.14157,0.967666,0.188457,-120.34729,324.320648,149.488205,0,0
5122,2024 8 29,15:35:47.846,-0.495083,-0.005158,0.568205,-0.657135,-1.354255,0.838912,-0.0906,-124.436172,319.05188,172.833801,0,0
5123,2024 8 29,15:35:47.854,-0.491809,-0.026405,0.586879,-0.64244,-1.428752,0.657391,-0.18769,-121.370026,291.779968,202.188034,0,0
5124,2024 8 29,15:35:47.862,-0.490391,-0.048838,0.603816,-0.626278,-1.453436,0.485678,-0.342685,-106.897995,277.74884,229.383774,0,0
5125,2024 8 29,15:35:47.871,-0.489798,-0.072917,0.618591,-0.609736,-1.462115,0.379136,-0.537573,-82.72065,272.693359,248.360535,0,0
5126,2024 8 29,15:35:47.879,-0.488923,-0.098958,0.631326,-0.593467,-1.627528,0.345401,-0.685595,-54.291771,281.713257,259.462372,0,0
5127,2024 8 29,15:35:47.887,-0.488734,-0.104583,0.634077,-0.589953,-1.663262,0.338113,-0.717572,-48.150463,283.661774,261.860626,0,0
5128,2024 8 29,15:35:47.896,-0.487285,-0.127933,0.642626,-0.577015,-1.971963,0.443113,-1.011674,-25.395702,285.820923,267.837341,0,0
5129,2024 8 29,15:35:47.904,-0.486538,-0.155136,0.650023,-0.56239,-2.173941,0.579418,-1.198102,-5.443859,259.962311,275.713501,0,0
5130,2024 8 29,15:35:47.912,-0.487501,-0.182701,0.65479,-0.547503,-2.220277,0.67411,-1.389147,7.922995,226.53421,287.745361,0,0
5131,2024 8 29,15:35:47.921,-0.490645,-0.209746,0.656859,-0.532291,-2.172697,0.726869,-1.446432,13.119051,191.449371,304.049561,0,0
5132,2024 8 29,15:35:47.929,-0.495587,-0.23637,0.656873,-0.516266,-2.164729,0.753875,-1.472158,12.149787,168.624985,321.385284,0,0
5133,2024 8 29,15:35:47.937,-0.496936,-0.243637,0.656877,-0.511892,-2.162554,0.761245,-1.47918,11.885246,162.395523,326.11673,0,0
5134,2024 8 29,15:35:47.946,-0.502486,-0.26431,0.655189,-0.498048,-2.171945,0.73745,-1.386642,5.989976,144.817307,340.039307,0,0
5135,2024 8 29,15:35:47.954,-0.510149,-0.288372,0.652036,-0.48055,-2.231595,0.686915,-1.274579,-2.154016,129.534546,356.264069,0,0
5136,2024 8 29,15:35:47.962,-0.519296,-0.312934,0.647488,-0.460994,-2.334964,0.613217,-1.126597,-12.795604,112.299133,371.885651,0,0
5137,2024 8 29,15:35:47.971,-0.529778,-0.33701,0.64162,-0.439691,-2.43691,0.471081,-0.962026,-27.420547,96.485733,388.036896,0,0
5138,2024 8 29,15:35:47.979,-0.541925,-0.360145,0.634343,-0.416361,-2.63916,0.182452,-0.593919,-48.684135,74.76619,409.410004,0,0
5139,2024 8 29,15:35:47.987,-0.556377,-0.38167,0.625089,-0.391219,-2.588763,-0.209326,-0.328217,-72.947144,41.486927,429.11087,0,0
5140,2024 8 29,15:35:47.996,-0.563543,-0.392344,0.6205,-0.378751,-2.563771,-0.403607,-0.196457,-84.97905,24.9839,438.880432,0,0
5141,2024 8 29,15:35:48.004,-0.576183,-0.406753,0.612049,-0.357326,-2.325751,-0.816951,0.080363,-104.3554,24.659081,437.987366,0,0
5142,2024 8 29,15:35:48.012,-0.590382,-0.423994,0.603118,-0.328039,-2.305655,-1.367103,0.22893,-129.822281,60.758545,425.627319,0,0
5143,2024 8 29,15:35:48.021,-0.601942,-0.43916,0.596958,-0.296849,-2.574723,-2.144867,0.304459,-155.040833,95.238251,398.620605,0,0
5144,2024 8 29,15:35:48.029,-0.611574,-0.450581,0.593166,-0.266102,-2.534564,-2.928521,0.298364,-176.143845,104.780907,349.74585,0,0
5145,2024 8 29,15:35:48.037,-0.619284,-0.457091,0.592103,-0.238186,-1.952789,-3.597218,0.348475,-188.12233,107.154045,273.328064,0,0
5146,2024 8 29,15:35:48.046,-0.621355,-0.458634,0.591971,-0.230462,-1.754337,-3.779366,0.36842,-190.915436,107.725166,249.950821,0,0
5147,2024 8 29,15:35:48.054,-0.624091,-0.458857,0.594941,-0.21421,-0.909722,-4.376246,0.486659,-183.645081,123.503387,174.647812,0,0
5148,2024 8 29,15:35:48.062,-0.622891,-0.456963,0.603978,-0.195583,-0.477386,-5.49432,0.315081,-159.009995,191.338867,82.845139,0,0
5149,2024 8 29,15:35:48.071,-0.613385,-0.454764,0.620024,-0.179694,-0.870699,-5.747917,-0.10932,-104.99762,282.686646,7.505226,0,0
5150,2024 8 29,15:35:48.079,-0.598056,-0.452747,0.639296,-0.168426,-1.61024,-5.261339,-0.624307,-46.238319,306.84552,-49.245766,0,0
5151,2024 8 29,15:35:48.087,-0.582534,-0.450269,0.656346,-0.163999,-2.171121,-4.300442,-0.91133,5.312984,236.745911,-86.703468,0,0
5152,2024 8 29,15:35:48.096,-0.577304,-0.449377,0.661934,-0.163009,-2.342665,-3.940559,-0.987758,22.336302,205.926056,-98.110222,0,0
5153,2024 8 29,15:35:48.104,-0.568543,-0.447707,0.669167,-0.168641,-9.521049,-3.661797,1.031571,102.84626,148.651031,-134.458908,0,0
5154,2024 8 29,15:35:48.112,-0.574774,-0.432646,0.666,-0.195723,-4.505621,-0.947234,1.865444,100.876747,-415.214752,-245.651733,0,0
5155,2024 8 29,15:35:48.121,-0.590337,-0.411573,0.655297,-0.22763,0.334822,-0.598583,-0.137259,-55.098335,-386.083252,-264.66687,0,0
5156,2024 8 29,15:35:48.129,-0.590982,-0.393934,0.658002,-0.24917,-1.52471,0.205471,-0.9973,-26.460083,-113.850372,-282.111938,1,0
5157,2024 8 29,15:35:48.137,-0.598115,-0.372086,0.656706,-0.268332,-1.717072,0.035464,-0.354267,-31.185017,-248.032837,-259.329773,0,0
5158,2024 8 29,15:35:48.146,-0.602014,-0.362994,0.65539,-0.275861,-1.466659,-0.165188,0.004,-42.38916,-343.787689,-245.53244,0,0
5159,2024 8 29,15:35:48.154,-0.607686,-0.350276,0.652339,-0.286784,-1.245642,-0.581023,-0.313442,-23.616289,-227.000488,-208.126755,0,0
5160,2024 8 29,15:35:48.162,-0.611288,-0.339009,0.649228,-0.299504,-1.368147,-0.659383,-0.16512,14.31917,-157.616028,-153.084518,0,0
5161,2024 8 29,15:35:48.171,-0.615389,-0.330515,0.644698,-0.310259,-1.187374,-0.218436,0.398125,16.644857,-132.931549,-98.787491,0,0
5162,2024 8 29,15:35:48.179,-0.619285,-0.323722,0.641475,-0.316396,-1.136159,-0.059164,-0.003884,-12.881796,-99.760582,-61.971191,0,0
5163,2024 8 29,15:35:48.187,-0.624127,-0.316858,0.638059,-0.320726,-0.95923,-0.103497,0.06839,-23.666265,-103.20208,-50.180073,0,0
5164,2024 8 29,15:35:48.196,-0.626349,-0.313841,0.636507,-0.322519,-0.8614,-0.134231,0.183995,-25.575399,-109.247932,-47.412472,0,0
5165,2024 8 29,15:35:48.204,-0.628846,-0.310062,0.634474,-0.325308,-0.992103,-0.111379,0.129755,-15.902596,-89.673058,-44.525188,0,0
5166,2024 8 29,15:35:48.212,-0.63258,-0.305176,0.631646,-0.328164,-1.13109,-0.086066,0.255115,-22.291296,-90.110931,-34.166748,0,0
5167,2024 8 29,15:35:48.221,-0.637467,-0.299752,0.628038,-0.330598,-0.987108,-0.285537,0.000403,-26.15497,-97.398079,-27.057631,0,0
5168,2024 8 29,15:35:48.229,-0.642021,0.238783,0.682422,0.254735,-0.858064,0.012567,-0.09997,-18.77659,-83.37146,-26.03623,0,0
5169,2024 8 29,15:35:48.237,-0.645225,-0.290587,0.622141,-0.334882,-0.862021,-0.088639,-0.190742,-18.994404,-56.629803,-22.402245,0,0
5170,2024 8 29,15:35:48.246,-0.647269,-0.28781,0.620743,-0.335984,-0.885101,-0.195946,-0.28831,-20.9806,-36.412582,-19.129532,0,0
5171,2024 8 29,15:35:48.254,-0.647285,-0.287788,0.620732,-0.335993,-0.885277,-0.196763,-0.289053,-20.99572,-36.258686,-19.10462,0,0
5172,2024 8 29,15:35:48.262,-0.648439,-0.285844,0.619333,-0.338002,-0.861373,0.230272,-0.061714,6.778025,-28.46188,-21.330645,0,0
5173,2024 8 29,15:35:48.271,-0.648353,-0.283971,0.619902,-0.338702,-1.149196,-0.149171,0.075465,-9.657608,-0.825022,-22.629042,0,0
5174,2024 8 29,15:35:48.279,-0.648293,-0.282306,0.619687,-0.340598,-1.008684,-0.002751,-0.116836,-0.280561,-20.658659,-25.877819,0,0
5175,2024 8 29,15:35:48.287,-0.648378,-0.280423,0.619476,-0.34237,-0.960533,-0.012749,0.110805,0.088013,-10.016572,-26.214048,0,0
5176,2024 8 29,15:35:48.296,-0.647563,-0.279024,0.620161,-0.343812,-1.003181,-0.016222,-0.170432,-1.64193,-0.161836,-26.847277,0,0
5177,2024 8 29,15:35:48.304,-0.647484,-0.278888,0.620228,-0.343952,-1.007321,-0.016559,-0.197732,-1.809855,0.794762,-26.908745,0,0
5178,2024 8 29,15:35:48.312,-0.647037,-0.277438,0.620619,-0.345256,-0.952249,-0.014888,0.065791,-1.347878,-2.516643,-25.901096,0,0
5179,2024 8 29,15:35:48.321,-0.645969,-0.276157,0.621702,-0.346333,-0.982072,-0.00458,-0.115932,-3.290144,8.702082,-25.618906,0,0
5180,2024 8 29,15:35:48.329,-0.644925,-0.274725,0.622929,-0.347211,-0.986958,-0.022262,-0.043156,-7.236107,8.464845,-25.684237,0,0
5181,2024 8 29,15:35:48.337,-0.643689,-0.273245,0.62443,-0.347975,-0.965189,-0.01016,-0.075719,-8.025605,12.979469,-27.023077,0,0
5182,2024 8 29,15:35:48.346,-0.642495,-0.271629,0.626,-0.348627,-0.949201,-0.042902,-0.051092,-9.210596,12.039097,-26.834248,0,0
5183,2024 8 29,15:35:48.354,-0.64229,-0.271351,0.62627,-0.348739,-0.946455,-0.048525,-0.046863,-9.414098,11.877604,-26.801819,0,0
5184,2024 8 29,15:35:48.362,-0.641116,-0.270042,0.627688,-0.349362,-0.994598,-0.073093,-0.027259,-8.078317,14.643128,-28.316015,0,0
5185,2024 8 29,15:35:48.371,-0.639767,-0.268611,0.629137,-0.350329,-1.039544,-0.096823,0.034213,-4.432728,10.922172,-28.754829,0,0
5186,2024 8 29,15:35:48.379,-0.638428,-0.267305,0.630255,-0.351758,-1.025061,-0.07227,-0.038377,0.800643,6.914579,-29.703913,0,0
5187,2024 8 29,15:35:48.387,-0.637242,-0.265965,0.631019,-0.353549,-1.01667,-0.05606,0.002178,4.328718,2.377952,-30.850271,0,0
5188,2024 8 29,15:35:48.396,-0.636099,-0.264598,0.631666,-0.355473,-1.001015,-0.064317,-0.025154,5.913614,1.589168,-31.526917,0,0
5189,2024 8 29,15:35:48.404,-0.635119,-0.263193,0.632118,-0.35746,-0.984112,-0.072135,-0.036353,4.908586,-2.315345,-30.400288,0,0
5190,2024 8 29,15:35:48.412,-0.634879,-0.26285,0.632228,-0.357946,-0.979977,-0.074047,-0.039092,4.662749,-3.270416,-30.124706,0,0
5191,2024 8 29,15:35:48.421,-0.634103,-0.261733,0.632602,-0.359475,-0.980718,-0.060204,-0.066654,3.883901,-1.139881,-29.696508,0,0
5192,2024 8 29,15:35:48.429,-0.633204,-0.26038,0.633106,-0.36115,-1.001435,-0.065761,-0.03817,3.148243,-0.313913,-29.495384,0,0
5193,2024 8 29,15:35:48.437,-0.632319,-0.258911,0.633626,-0.362841,-1.017906,-0.093139,-0.012944,2.554885,-1.531004,-29.309593,0,0
5194,2024 8 29,15:35:48.446,-0.6315,-0.257434,0.634015,-0.364633,-1.01217,-0.113258,-0.017258,3.03581,-3.51311,-28.868917,0,0
5195,2024 8 29,15:35:48.454,-0.630783,-0.255981,0.63419,-0.366587,-1.001297,-0.119078,0.004018,5.051861,-6.517959,-28.528154,0,0
5196,2024 8 29,15:35:48.462,-0.630569,-0.255548,0.634242,-0.367169,-0.998061,-0.12081,0.010349,5.651796,-7.412141,-28.42675,0,0
5197,2024 8 29,15:35:48.471,-0.630106,-0.254489,0.634157,-0.368842,-0.968067,-0.116006,0.011618,7.960462,-8.977317,-27.562313,0,0
5198,2024 8 29,15:35:48.479,-0.629605,-0.253331,0.633957,-0.370831,-0.958331,-0.104941,0.004435,9.920395,-9.344605,-26.3025,0,0
5199,2024 8 29,15:35:48.487,-0.629091,-0.252253,0.633689,-0.372891,-0.980619,-0.102363,0.009296,11.487076,-9.136796,-25.083012,0,0
5200,2024 8 29,15:35:48.496,-0.628382,-0.251008,0.633256,-0.375655,-1.043325,-0.12362,-0.012386,13.088239,-9.131045,-24.333611,0,0
5201,2024 8 29,15:35:48.504,-0.627881,-0.250082,0.632724,-0.377999,-1.031132,-0.161756,-0.049375,14.256228,-12.642779,-25.439726,0,0
5202,2024 8 29,15:35:48.512,-0.627776,-0.24988,0.6326,-0.378516,-1.024707,-0.170545,-0.057765,14.515778,-13.57289,-25.744404,0,0
5203,2024 8 29,15:35:48.521,-0.627402,-0.249048,0.632015,-0.380653,-1.04557,-0.139773,-0.030311,16.238682,-14.719834,-28.256054,0,0
5204,2024 8 29,15:35:48.529,-0.626762,-0.247877,0.631323,-0.383608,-1.086459,-0.114162,-0.042521,18.251076,-15.005382,-32.826603,0,0
5205,2024 8 29,15:35:48.537,-0.626034,-0.246372,0.630582,-0.386969,-1.150805,-0.124243,-0.044349,18.977377,-17.752722,-38.870399,0,0
5206,2024 8 29,15:35:48.546,-0.625126,-0.244441,0.629878,-0.390788,-1.229124,-0.120401,-0.026913,19.44548,-18.862555,-46.899998,0,0
5207,2024 8 29,15:35:48.554,-0.624046,-0.2419,0.629235,-0.395103,-1.29686,-0.104383,-0.024361,18.834932,-22.727837,-56.489025,0,0
5208,2024 8 29,15:35:48.562,-0.62373,-0.241142,0.629056,-0.396357,-1.315288,-0.099352,-0.024836,18.589603,-24.043678,-59.293266,0,0
5209,2024 8 29,15:35:48.571,-0.623064,-0.238382,0.628498,-0.399934,-1.355162,-0.09128,-0.032348,14.535932,-30.177031,-66.075241,0,0
5210,2024 8 29,15:35:48.579,-0.622136,-0.233996,0.627843,-0.404956,-1.374585,-0.094415,-0.045509,10.475384,-34.693691,-78.016273,0,0
5211,2024 8 29,15:35:48.587,-0.620866,-0.228438,0.62743,-0.410668,-1.350642,-0.083135,-0.081893,4.982999,-36.84724,-92.30246,0,0
5212,2024 8 29,15:35:48.596,-0.619109,-0.221742,0.627453,-0.416894,-1.381745,-0.040808,-0.098252,-1.588227,-35.832382,-107.51239,0,0
5213,2024 8 29,15:35:48.604,-0.616732,-0.21385,0.628049,-0.423576,-1.482928,-0.02883,-0.058132,-7.353491,-34.239014,-124.438217,0,0
5214,2024 8 29,15:35:48.612,-0.615879,-0.21108,0.62829,-0.425883,-1.521814,-0.027636,-0.040446,-9.24367,-33.700623,-130.336594,0,0
5215,2024 8 29,15:35:48.621,-0.613587,-0.204125,0.629038,-0.431403,-1.668971,-0.040213,0.017329,-10.116863,-36.642136,-146.471344,0,0
5216,2024 8 29,15:35:48.629,-0.610076,-0.193696,0.629828,-0.4399,-1.910603,-0.062155,0.076522,-7.177276,-47.561359,-173.241302,0,0
5217,2024 8 29,15:35:48.637,-0.605678,-0.18095,0.629944,-0.451027,-2.303604,0.003879,0.161013,3.276113,-63.47382,-209.493988,0,0
5218,2024 8 29,15:35:48.646,-0.600348,-0.165598,0.628988,-0.465064,-2.686059,0.021557,0.247309,13.359011,-87.076385,-254.162354,0,0
5219,2024 8 29,15:35:48.654,-0.594446,-0.146396,0.626279,-0.482265,-3.121485,0.064411,0.457451,20.381447,-126.727089,-307.100189,0,0
5220,2024 8 29,15:35:48.662,-0.592114,-0.138624,0.625086,-0.489194,-3.296567,0.084769,0.550426,22.879807,-143.453949,-328.30777,0,0
5221,2024 8 29,15:35:48.671,-0.587048,-0.121018,0.621514,-0.504045,-3.502414,0.024708,0.504718,24.890059,-164.905304,-369.047882,0,0
5222,2024 8 29,15:35:48.679,-0.579947,-0.094399,0.614968,-0.525162,-3.685583,-0.058725,0.392884,22.911234,-209.649384,-414.256012,0,0
5223,2024 8 29,15:35:48.687,-0.573227,-0.06191,0.605033,-0.548071,-3.443531,-0.319802,0.4336,12.90321,-261.971527,-441.004639,0,0
5224,2024 8 29,15:35:48.696,-0.565521,-0.026741,0.593122,-0.571222,-2.923389,-0.653803,0.290074,10.146643,-276.070679,-457.89621,0,1
5225,2024 8 29,15:35:48.704,-0.556263,0.00817,0.579971,-0.593841,-2.898915,-0.643132,0.357425,23.461748,-262.481384,-455.341187,0,0
5226,2024 8 29,15:35:48.712,-0.55215,0.023139,0.574216,-0.603527,-2.941168,-0.603953,0.412102,30.573994,-254.783112,-452.459625,0,0
5227,2024 8 29,15:35:48.721,-0.545048,0.045438,0.563667,-0.618336,-3.09986,-0.255777,0.474507,44.274452,-260.648621,-439.814117,0,0
5228,2024 8 29,15:35:48.729,-0.536955,0.074203,0.54758,-0.636523,-2.810272,0.253163,0.917903,58.045723,-280.664703,-422.406464,0,0
5229,2024 8 29,15:35:48.737,-0.527737,0.103281,0.529554,-0.655016,-2.379611,0.830187,1.174374,67.673897,-263.681854,-409.354828,0,0
5230,2024 8 29,15:35:48.746,-0.521249,0.123115,0.517047,-0.667676,-2.079537,1.232924,1.307817,73.693626,-245.897415,-401.173126,0,0
5231,2024 8 29,15:35:48.754,-0.508455,0.149415,0.499224,-0.685485,-1.446275,1.3685,1.724343,66.391396,-208.324219,-405.360077,0,0
5232,2024 8 29,15:35:48.762,-0.490735,0.173023,0.483084,-0.704139,-0.830304,1.069125,1.561722,81.312897,-137.357422,-437.96698,0,0
5233,2024 8 29,15:35:48.771,-0.475181,0.195316,0.464453,-0.721288,3.205592,0.897024,1.142531,102.898155,-192.193314,-339.927307,0,0
5234,2024 8 29,15:35:48.779,-0.474357,0.196497,0.463466,-0.722197,3.419385,0.887907,1.120325,104.041588,-195.098114,-334.733887,0,0
5235,2024 8 29,15:35:48.787,-0.468884,0.200527,0.455453,-0.729715,1.656558,2.059319,1.377135,59.408188,64.12851,-84.41626,0,0
5236,2024 8 29,15:35:48.796,-0.465662,0.185054,0.462107,-0.731668,-0.907612,1.86475,-0.467915,22.469852,174.628723,101.562469,0,0
5237,2024 8 29,15:35:48.804,-0.476766,0.173833,0.469085,-0.722762,-1.311977,1.374141,0.779246,-39.899426,26.181732,239.148254,0,0
5238,2024 8 29,15:35:48.812,-0.493754,0.1624,0.47847,-0.707664,-1.619183,0.922347,0.235185,-71.4086,16.291855,315.706238,0,0
5239,2024 8 29,15:35:48.821,-0.516189,0.15514,0.485284,-0.688339,-1.166472,0.50887,0.672034,-82.896965,-95.141258,345.552856,0,0
5240,2024 8 29,15:35:48.829,-0.519212,0.154162,0.486202,-0.685734,-1.105457,0.453143,0.730911,-84.445328,-110.159813,349.5755,0,0
5241,2024 8 29,15:35:48.837,-0.539769,0.149734,0.490061,-0.667768,-0.481327,0.224196,0.919366,-73.564064,-93.887573,342.641602,0,0
5242,2024 8 29,15:35:48.846,-0.559308,0.142345,0.495141,-0.649271,-0.220968,0.038379,0.864928,-58.760498,-51.373142,318.067383,0,0
5243,2024 8 29,15:35:48.854,-0.575408,0.132603,0.500725,-0.632781,-0.010081,-0.035138,0.982286,-37.766525,3.469761,289.034668,0,0
5244,2024 8 29,15:35:48.862,-0.587151,0.118915,0.508179,-0.618619,-0.155176,0.087018,0.721971,-19.609974,72.613831,269.710602,0,0
5245,2024 8 29,15:35:48.871,-0.596249,0.102329,0.516982,-0.605435,-0.504447,0.258626,0.650059,-10.973031,113.998672,265.353699,0,0
5246,2024 8 29,15:35:48.879,-0.598101,0.098952,0.518774,-0.602751,-0.575548,0.29356,0.63542,-9.214796,122.423447,264.466736,0,0
5247,2024 8 29,15:35:48.887,-0.604714,0.083311,0.526922,-0.591252,-0.938368,0.395014,0.419045,-11.197363,131.444199,276.165344,0,0
5248,2024 8 29,15:35:48.896,-0.613925,0.065579,0.535402,-0.576096,-1.080786,0.416263,0.321371,-20.396341,104.54789,298.112732,0,0
5249,2024 8 29,15:35:48.904,-0.62519,0.048089,0.543101,-0.558155,-1.045704,0.33517,0.301455,-33.352913,82.392632,321.454498,0,0
5250,2024 8 29,15:35:48.912,-0.63734,0.030921,0.550459,-0.537998,-0.95399,0.222439,0.34672,-46.406067,73.044846,337.764465,0,0
5251,2024 8 29,15:35:48.921,-0.649012,0.013831,0.558111,-0.516386,-0.878775,0.109268,0.415919,-57.106426,81.797318,343.012665,0,0
5252,2024 8 29,15:35:48.929,-0.652073,0.009349,0.560117,-0.510718,-0.859051,0.079591,0.434065,-59.912407,84.092499,344.388916,0,0
5253,2024 8 29,15:35:48.937,-0.659695,-0.00453,0.56725,-0.492665,-0.893598,0.027098,0.453335,-66.491219,104.574463,338.987976,0,0
5254,2024 8 29,15:35:48.946,-0.666732,-0.020999,0.576776,-0.471073,-1.009418,0.030384,0.461149,-75.24781,129.842773,329.350952,0,0
5255,2024 8 29,15:35:48.954,-0.672004,-0.038109,0.587898,-0.448088,-1.188377,0.062425,0.443585,-86.57132,153.616272,320.976563,0,0
5256,2024 8 29,15:35:48.962,-0.675678,-0.055005,0.600072,-0.42393,-1.428557,0.07531,0.393125,-101.454498,168.606476,316.507568,0,0
5257,2024 8 29,15:35:48.971,-0.6785,-0.071031,0.61244,-0.39852,-1.648979,0.039186,0.370063,-117.632156,168.963242,315.061554,0,0
5258,2024 8 29,15:35:48.979,-0.679383,-0.076044,0.616309,-0.39057,-1.717937,0.027885,0.362848,-122.693253,169.07486,314.609192,0,0
5259,2024 8 29,15:35:48.987,-0.681364,-0.087363,0.625398,-0.369556,-1.8278,-0.062187,0.39642,-133.816849,160.302902,315.605896,0,0
5260,2024 8 29,15:35:48.996,-0.684395,-0.104094,0.638599,-0.335836,-1.930426,-0.259684,0.483311,-145.005951,147.030731,318.095551,0,0
5261,2024 8 29,15:35:49.004,-0.686509,-0.117282,0.64828,-0.307403,-1.958124,-0.451978,0.572972,-145.241562,143.147446,320.350311,0,0
5262,2024 8 29,15:35:49.012,-0.687539,-0.130724,0.657413,-0.278935,-2.03617,-0.666497,0.644782,-138.549881,150.248215,321.025513,0,0
5263,2024 8 29,15:35:49.021,-0.687051,-0.144947,0.666213,-0.250774,-2.10761,-0.949791,0.663847,-124.938965,161.634842,322.101074,0,0
5264,2024 8 29,15:35:49.029,-0.686886,-0.148101,0.668134,-0.244605,-2.122513,-1.014818,0.665887,-121.696541,164.238724,322.368195,0,0
5265,2024 8 29,15:35:49.037,-0.6849,-0.160439,0.674672,-0.223113,-2.172987,-1.334491,0.687439,-105.418594,175.166443,325.662872,0,0
5266,2024 8 29,15:35:49.046,-0.680944,-0.177138,0.682554,-0.196924,-2.25332,-1.779181,0.592933,-81.58017,188.043518,328.665039,0,0
5267,2024 8 29,15:35:49.054,-0.675431,-0.195136,0.689866,-0.171762,-2.351104,-2.233342,0.467843,-57.022034,192.786011,324.182465,0,0
5268,2024 8 29,15:35:49.062,-0.668929,-0.213219,0.696135,-0.148942,-2.399231,-2.639099,0.335139,-34.417305,184.911087,305.918182,0,0
5269,2024 8 29,15:35:49.071,-0.662179,-0.230155,0.701112,-0.129408,-2.183915,-2.969188,0.211234,-15.334949,166.163376,272.922363,0,0
5270,2024 8 29,15:35:49.079,-0.660249,-0.23492,0.702468,-0.124002,-2.108031,-3.059526,0.17648,-10.073353,160.321152,262.811554,0,0
5271,2024 8 29,15:35:49.087,-0.65484,-0.245514,0.705739,-0.112776,-1.69664,-3.26172,-0.012494,-2.530083,156.671799,227.255722,0,0
5272,2024 8 29,15:35:49.096,-0.646509,-0.256777,0.711216,-0.100588,-1.310981,-3.472556,-0.451344,0.319436,173.510773,174.975739,0,0
5273,2024 8 29,15:35:49.104,-0.635963,-0.264742,0.719104,-0.090604,-1.145856,-3.499055,-1.010342,-3.387414,195.874237,110.606384,0,0
5274,2024 8 29,15:35:49.112,-0.624025,-0.267981,0.729127,-0.083761,-1.744581,-3.780545,-1.359103,-9.610237,209.6492,36.407867,0,0
5275,2024 8 29,15:35:49.121,-0.608974,-0.264791,0.742821,-0.08397,-3.18542,-3.99439,-4.136906,1.872304,219.206558,-89.035347,0,0
5276,2024 8 29,15:35:49.129,-0.603654,-0.263324,0.747707,-0.084485,-3.723253,-4.058579,-5.250822,7.005918,222.292725,-135.110031,0,0
5277,2024 8 29,15:35:49.137,-0.606278,-0.252767,0.74786,-0.095369,-3.999506,-3.520388,-3.698403,10.878419,-37.618073,-204.192932,0,0
5278,2024 8 29,15:35:49.146,-0.623002,-0.23122,0.738169,-0.113569,-2.200384,-2.72057,-3.19995,-33.875561,-312.487762,-274.467194,1,0
5279,2024 8 29,15:35:49.154,-0.647305,-0.205359,0.721815,-0.129781,-1.274009,-0.898569,-1.837169,-142.581665,-373.062744,-242.262558,0,0
5280,2024 8 29,15:35:49.162,-0.665167,-0.182029,0.710357,-0.138271,-1.806548,-0.487181,-0.964701,-121.119133,-263.809387,-192.773483,0,0
5281,2024 8 29,15:35:49.171,-0.680844,-0.164259,0.698034,-0.147211,-0.77309,-0.768454,-1.185423,-42.371094,-263.755188,-154.193787,0,0
5282,2024 8 29,15:35:49.179,-0.690404,-0.15445,0.688993,-0.156435,-0.541971,-0.250412,-0.56737,0.497112,-143.448441,-105.100639,0,0
5283,2024 8 29,15:35:49.187,-0.693708,-0.151126,0.685715,-0.160068,-0.541648,0.02231,-0.243134,14.14698,-84.479065,-84.749008,0,0
5284,2024 8 29,15:35:49.196,-0.6953,-0.147405,0.684519,-0.161927,-1.165382,0.118942,0.253976,-22.535137,-53.373207,-55.955849,0,0
5285,2024 8 29,15:35:49.204,-0.699379,-0.140995,0.681864,-0.161241,-1.198202,-0.031859,0.448192,-63.657967,-80.726555,-38.221565,0,0
5286,2024 8 29,15:35:49.212,-0.705143,-0.133734,0.677512,-0.160591,-0.918132,-0.234027,-0.136,-60.848099,-102.220528,-34.919159,0,0
5287,2024 8 29,15:35:49.221,-0.711097,-0.127974,0.672374,-0.160626,-0.715216,-0.228072,-0.087635,-43.519463,-94.344101,-20.951885,0,0
5288,2024 8 29,15:35:49.229,-0.714734,-0.12442,0.669423,-0.1597,-1.004852,-0.13866,0.021384,-34.839745,-48.253201,-4.850395,0,0
5289,2024 8 29,15:35:49.237,-0.716117,-0.123039,0.668337,-0.159206,-1.170707,-0.096238,0.060947,-31.909758,-25.422625,2.104641,0,0
5290,2024 8 29,15:35:49.246,-0.716799,-0.122357,0.667801,-0.158962,-1.252604,-0.075291,0.080482,-30.462967,-14.149178,5.53895,0,0
5291,2024 8 29,15:35:49.254,-0.719085,-0.120657,0.665607,-0.159142,-1.121487,0.028545,-0.358792,-8.824043,-55.453159,-11.477337,0,0
5292,2024 8 29,15:35:49.262,-0.722427,-0.118686,0.661959,-0.160693,-0.648027,0.074418,-0.134094,-3.73486,-49.954163,-18.11739,0,0
5293,2024 8 29,15:35:49.271,-0.722082,-0.117471,0.662349,-0.16153,-1.061672,0.034897,-0.0718,-2.856125,14.103058,-18.358284,0,0
5294,2024 8 29,15:35:49.279,-0.721849,-0.11616,0.662586,-0.162543,-1.069762,-0.024068,-0.128712,-3.266315,-9.526255,-20.249353,0,0
5295,2024 8 29,15:35:49.287,-0.722172,-0.114813,0.662105,-0.164019,-0.968966,-0.005555,0.119504,1.190099,-5.374564,-22.280111,0,0
5296,2024 8 29,15:35:49.296,-0.722198,-0.114704,0.662066,-0.164137,-0.96085,-0.004064,0.139488,1.548895,-5.040303,-22.443613,0,0
5297,2024 8 29,15:35:49.304,-0.721386,-0.113919,0.662714,-0.165635,-1.056623,0.028691,-0.15259,6.474763,5.862373,-23.165665,0,0
5298,2024 8 29,15:35:49.312,-0.721293,-0.112927,0.662567,-0.167298,-0.986409,-0.026041,0.070391,4.917431,-5.867432,-21.958342,0,0
5299,2024 8 29,15:35:49.321,-0.720735,-0.112261,0.662856,-0.168997,-1.054329,-0.010705,-0.042385,8.158959,4.534322,-20.862642,0,0
5300,2024 8 29,15:35:49.329,-0.720404,-0.111636,0.662878,-0.170729,-1.102092,-0.009073,0.042407,8.279798,-4.061553,-20.404297,0,0
5301,2024 8 29,15:35:49.337,-0.720449,-0.110877,0.662491,-0.172522,-1.023339,0.012492,-0.037917,7.63097,-8.647543,-20.696306,0,0
5302,2024 8 29,15:35:49.346,-0.720457,-0.110757,0.66243,-0.172805,-1.01091,0.015896,-0.050594,7.528571,-9.371311,-20.742392,0,0
5303,2024 8 29,15:35:49.354,-0.720535,-0.109905,0.662132,-0.174157,-0.977698,0.025645,-0.095015,3.72272,-7.350468,-20.800049,0,0
5304,2024 8 29,15:35:49.362,-0.720346,-0.108836,0.662149,-0.175539,-0.976021,0.034881,-0.090458,1.608787,-0.88816,-21.597179,0,0
5305,2024 8 29,15:35:49.371,-0.719947,-0.107495,0.662488,-0.176722,-0.979968,-0.000214,-0.077166,-3.162377,2.049075,-22.235147,0,0
5306,2024 8 29,15:35:49.379,-0.719403,-0.10605,0.663004,-0.177866,-0.989957,-0.018044,-0.047286,-3.937186,4.558502,-23.273771,0,0
5307,2024 8 29,15:35:49.387,-0.71892,-0.104635,0.663444,-0.179014,-1.000777,-0.035068,-0.016358,-2.543356,2.022487,-22.125076,0,0
5308,2024 8 29,15:35:49.396,-0.718812,-0.104319,0.663543,-0.17927,-1.003191,-0.038866,-0.009457,-2.232339,1.456603,-21.868757,0,0
5309,2024 8 29,15:35:49.404,-0.718656,-0.10324,0.663616,-0.180245,-1.001176,-0.034964,-0.038415,-1.561441,-2.449889,-20.934416,0,0
5310,2024 8 29,15:35:49.412,-0.718538,-0.102019,0.663599,-0.181468,-1.011232,-0.033654,-0.051989,-0.444115,-3.307157,-21.434864,0,0
5311,2024 8 29,15:35:49.421,-0.71835,-0.100766,0.663597,-0.182914,-0.990785,-0.019318,-0.078034,0.914878,-3.119332,-23.132067,0,0
5312,2024 8 29,15:35:49.429,-0.718138,-0.099433,0.663606,-0.184436,-0.962032,-0.024084,-0.089452,0.560673,-2.449564,-24.373621,0,0
5313,2024 8 29,15:35:49.437,-0.717656,-0.098069,0.6639,-0.185975,-0.990349,-0.014861,-0.087983,0.333543,3.074618,-25.585138,0,0
5314,2024 8 29,15:35:49.446,-0.717521,-0.097688,0.663982,-0.186404,-0.998251,-0.012287,-0.087573,0.270161,4.616163,-25.923218,0,0
5315,2024 8 29,15:35:49.454,-0.717015,-0.09652,0.664345,-0.187663,-1.011128,-0.024888,-0.059747,0.080901,3.263677,-27.04664,0,0
5316,2024 8 29,15:35:49.462,-0.71654,-0.095121,0.664616,-0.189222,-0.983161,-0.036731,-0.061654,0.362946,0.708304,-27.12557,0,0
5317,2024 8 29,15:35:49.471,-0.716068,-0.093684,0.66486,-0.190862,-0.971983,-0.063389,-0.033163,0.74109,0.724809,-26.982502,0,0
5318,2024 8 29,15:35:49.479,-0.715632,-0.092224,0.665069,-0.192473,-1.00384,-0.074681,-0.028236,0.033302,-0.054545,-26.070772,0,0
5319,2024 8 29,15:35:49.487,-0.715328,-0.090887,0.665087,-0.194167,-0.999006,-0.068168,-0.059319,2.501193,-3.732899,-25.330111,0,0
5320,2024 8 29,15:35:49.496,-0.715178,-0.090227,0.665096,-0.195003,-0.996621,-0.064955,-0.074654,3.718761,-5.547666,-24.964695,0,0
5321,2024 8 29,15:35:49.504,-0.715101,-0.08922,0.664872,-0.196506,-0.970369,-0.082709,-0.050483,4.278195,-5.755936,-24.155931,0,0
5322,2024 8 29,15:35:49.512,-0.714905,-0.088177,0.664707,-0.198238,-0.979773,0.066745,-0.093146,4.737988,-4.108197,-22.701628,0,0
5323,2024 8 29,15:35:49.521,-0.714826,-0.087164,0.664417,-0.19994,-0.992555,-0.057045,-0.022973,6.137454,-6.382991,-22.073238,0,0
5324,2024 8 29,15:35:49.529,-0.714757,-0.086193,0.66411,-0.201619,-1.023473,-0.087117,-0.011415,6.014384,-6.110255,-21.642389,0,0
5325,2024 8 29,15:35:49.537,-0.714697,-0.085269,0.663742,-0.203427,-1.057957,-0.094011,-0.016486,7.16065,-7.926959,-22.311808,0,0
5326,2024 8 29,15:35:49.546,-0.714684,-0.085066,0.663658,-0.203834,-1.065632,-0.094219,-0.017917,7.474347,-8.430909,-22.501982,0,0
5327,2024 8 29,15:35:49.554,-0.714844,-0.0843,0.663053,-0.205552,-1.069664,-0.072886,0.023551,10.678958,-12.527681,-24.820683,0,0
5328,2024 8 29,15:35:49.562,-0.714998,-0.083311,0.662248,-0.207998,-1.104797,-0.072575,0.005341,14.267726,-13.194151,-28.701931,0,0
5329,2024 8 29,15:35:49.571,-0.715092,-0.082227,0.66129,-0.211128,-1.110474,-0.069284,-0.062327,18.665178,-15.867512,-35.24379,0,0
5330,2024 8 29,15:35:49.579,-0.715221,-0.080864,0.660091,-0.214928,-1.166825,-0.037047,-0.065822,21.547127,-18.3326,-43.354324,0,0
5331,2024 8 29,15:35:49.587,-0.715001,-0.079061,0.659102,-0.219316,-1.201748,-0.040056,-0.111438,21.350969,-14.590184,-53.645714,0,0
5332,2024 8 29,15:35:49.596,-0.714379,-0.076611,0.658381,-0.224311,-1.263379,-0.047336,-0.072585,19.185472,-11.592647,-64.788788,0,0
5333,2024 8 29,15:35:49.604,-0.714178,-0.075858,0.65818,-0.225813,-1.283205,-0.049355,-0.056363,18.470411,-10.797816,-68.106026,0,0
5334,2024 8 29,15:35:49.612,-0.713415,-0.073213,0.657807,-0.230122,-1.353241,-0.052391,-0.0334,17.130871,-11.406016,-77.971756,0,0
5335,2024 8 29,15:35:49.621,-0.712501,-0.069042,0.657109,-0.236135,-1.415924,-0.07322,0.004519,14.724848,-18.164772,-90.84449,0,0
5336,2024 8 29,15:35:49.629,-0.711883,-0.063615,0.65582,-0.242981,-1.472934,-0.076998,-0.001098,10.360014,-30.150738,-103.466858,0,0
5337,2024 8 29,15:35:49.637,-0.711411,-0.056918,0.654035,-0.25068,-1.564267,-0.058483,0.031725,7.848762,-37.97221,-120.226196,0,0
5338,2024 8 29,15:35:49.646,-0.710651,-0.048903,0.652012,-0.259595,-1.728315,-0.042855,0.049036,7.79531,-43.200428,-142.380142,0,0
5339,2024 8 29,15:35:49.654,-0.710369,-0.046049,0.651298,-0.26276,-1.789309,-0.037783,0.053671,7.900405,-44.914093,-150.359924,0,0
5340,2024 8 29,15:35:49.662,-0.709796,-0.038564,0.649141,-0.27064,-1.94986,-0.006532,0.028486,6.6492,-56.664433,-170.669174,0,0
5341,2024 8 29,15:35:49.671,-0.708833,-0.027534,0.645686,-0.282377,-2.191064,0.067389,0.04327,9.132374,-69.384567,-202.893738,0,0
5342,2024 8 29,15:35:49.679,-0.707615,-0.013639,0.640826,-0.296958,-2.44539,0.13557,0.12348,12.077467,-89.233871,-244.02832,0,0
5343,2024 8 29,15:35:49.687,-0.706186,0.003396,0.634124,-0.3143,-2.81054,0.173429,0.325642,13.253062,-115.833847,-291.822998,0,0
5344,2024 8 29,15:35:49.696,-0.704254,0.023747,0.625281,-0.334518,-3.337471,-0.000343,0.53957,15.216672,-144.415329,-344.433258,0,0
5345,2024 8 29,15:35:49.704,-0.703464,0.031925,0.621686,-0.34262,-3.553813,-0.082249,0.623083,16.059074,-155.705765,-365.345886,0,0
5346,2024 8 29,15:35:49.712,-0.701722,0.049895,0.612291,-0.360096,-3.787077,-0.079051,0.596707,24.060242,-189.907104,-405.527863,0,0
5347,2024 8 29,15:35:49.721,-0.699917,0.075987,0.596648,-0.383826,-3.529977,-0.194916,0.485569,23.855425,-243.781799,-446.993408,0,0
5348,2024 8 29,15:35:49.729,-0.697312,0.105813,0.5771,-0.409939,-3.163729,-0.523925,0.476613,27.560915,-264.221313,-474.628662,0,0
5349,2024 8 29,15:35:49.737,-0.692686,0.135614,0.556169,-0.436786,-3.137099,-0.745823,0.512366,38.1479,-256.350891,-478.057098,0,1
5350,2024 8 29,15:35:49.746,-0.689519,0.154669,0.542657,-0.454045,-3.15678,-0.87321,0.538032,45.572769,-248.921875,-477.905701,0,0
5351,2024 8 29,15:35:49.754,-0.684351,0.182331,0.51826,-0.479359,-2.814919,-0.682006,1.140521,72.348999,-276.25647,-453.363861,0,0
5352,2024 8 29,15:35:49.762,-0.684253,0.182856,0.517797,-0.47984,-2.808429,-0.678376,1.15196,72.857368,-276.775452,-452.897919,0,0
5353,2024 8 29,15:35:49.771,-0.678997,0.205421,0.493082,-0.503531,-2.450853,0.118951,1.399861,104.507202,-253.909393,-424.609741,0,0
5354,2024 8 29,15:35:49.779,-0.673123,0.225649,0.467508,-0.526596,-2.089027,0.740425,1.700551,118.462738,-236.458771,-402.497589,0,0
5355,2024 8 29,15:35:49.787,-0.665452,0.243275,0.442533,-0.549557,-1.970386,1.133651,1.975997,122.734695,-201.817856,-399.044373,0,0
5356,2024 8 29,15:35:49.796,-0.655558,0.25974,0.418159,-0.572497,-1.727527,1.576433,1.361929,121.248711,-190.620804,-412.644257,0,0
5357,2024 8 29,15:35:49.804,-0.648644,0.283404,0.38835,-0.589824,2.154553,1.075406,1.064848,79.901611,-348.154663,-355.117096,0,0
5358,2024 8 29,15:35:49.812,-0.647907,0.285924,0.385176,-0.591669,2.567976,1.022049,1.03321,75.498337,-364.931274,-348.990723,0,0
5359,2024 8 29,15:35:49.821,-0.647608,0.30064,0.36813,-0.595496,2.590359,1.948256,1.722314,6.012733,-153.719299,-133.560349,0,0
5360,2024 8 29,15:35:49.829,-0.64563,0.300704,0.371856,-0.595354,0.596749,1.550814,-0.012266,-42.447666,46.032593,43.626419,0,0
5361,2024 8 29,15:35:49.837,-0.650441,0.298637,0.381918,-0.584665,-0.07153,1.316307,1.307006,-95.969498,43.147499,187.281799,0,0
5362,2024 8 29,15:35:49.846,-0.655996,0.29115,0.400966,-0.569189,-1.00475,0.992865,0.468077,-128.194489,124.544258,267.236145,0,0
5363,2024 8 29,15:35:49.854,-0.664348,0.285373,0.419043,-0.548993,-0.971338,0.694421,0.903531,-145.798355,43.50209,295.818848,0,0
5364,2024 8 29,15:35:49.862,-0.665848,0.284335,0.422291,-0.545364,-0.965335,0.640799,0.981769,-148.961258,28.941177,300.954346,0,0
5365,2024 8 29,15:35:49.871,-0.672745,0.280261,0.436496,-0.527427,-0.703832,0.44327,0.906148,-142.715698,59.290821,289.839142,0,0
5366,2024 8 29,15:35:49.879,-0.678263,0.274262,0.453444,-0.508824,-0.679521,0.320269,0.611391,-133.357681,79.352249,265.505219,0,0
5367,2024 8 29,15:35:49.887,-0.682583,0.267933,0.469741,-0.491327,-0.5722,0.319175,0.648062,-120.684761,90.982727,243.935104,0,0
5368,2024 8 29,15:35:49.896,-0.68535,0.260094,0.486468,-0.475134,-0.77433,0.396621,0.389525,-109.465965,112.287735,236.482361,0,0
5369,2024 8 29,15:35:49.904,-0.688605,0.251751,0.501962,-0.458503,-0.94366,0.426763,0.308506,-101.193207,92.34346,243.141159,0,0
5370,2024 8 29,15:35:49.912,-0.689392,0.249733,0.505708,-0.454482,-0.984598,0.434051,0.288918,-99.193123,87.521568,244.751038,0,0
5371,2024 8 29,15:35:49.921,-0.693405,0.242705,0.516562,-0.439639,-1.011422,0.422938,0.22683,-94.466141,67.659409,259.761536,0,0
5372,2024 8 29,15:35:49.929,-0.699383,0.234099,0.528071,-0.42063,-0.988577,-0.025651,0.038274,-91.592712,43.932228,280.538422,0,0
5373,2024 8 29,15:35:49.937,-0.706493,0.224589,0.539133,-0.399254,-0.925943,0.323116,0.222044,-90.029274,32.233913,300.518646,0,0
5374,2024 8 29,15:35:49.946,-0.713676,0.214053,0.550236,-0.376369,-0.908865,0.266372,0.219017,-90.287491,34.741402,317.210907,0,0
5375,2024 8 29,15:35:49.954,-0.720251,0.202465,0.561773,-0.352348,-0.974861,0.217564,0.244178,-92.073875,45.77726,330.773285,0,0
5376,2024 8 29,15:35:49.962,-0.725821,0.189993,0.57387,-0.327385,-1.114153,0.167622,0.229942,-95.52021,57.453171,340.487244,0,0
5377,2024 8 29,15:35:49.971,-0.72751,0.186211,0.577538,-0.319814,-1.1564,0.152474,0.225624,-96.565475,60.994438,343.433472,0,0
5378,2024 8 29,15:35:49.979,-0.730937,0.176022,0.587134,-0.29942,-1.261155,0.103776,0.242469,-101.024513,64.370285,347.078796,0,0
5379,2024 8 29,15:35:49.987,-0.73425,0.163895,0.598355,-0.274632,-1.359645,0.043771,0.255691,-106.370674,66.632645,348.895844,0,0
5380,2024 8 29,15:35:49.996,-0.737988,0.14672,0.61394,-0.238309,-1.486949,-0.052781,0.303497,-114.639389,67.220184,350.001434,0,0
5381,2024 8 29,15:35:50.004,-0.739578,0.134141,0.625043,-0.210243,-1.5528,-0.128364,0.339794,-121.119072,68.694672,351.279572,0,0
5382,2024 8 29,15:35:50.012,-0.740164,0.121597,0.635807,-0.181516,-1.62585,-0.229073,0.405413,-126.889557,72.223656,355.369141,0,0
5383,2024 8 29,15:35:50.021,-0.740239,0.11954,0.637567,-0.17679,-1.638078,-0.246177,0.416889,-127.819656,72.84333,356.101563,0,0
5384,2024 8 29,15:35:50.029,-0.739703,0.108941,0.646221,-0.15227,-1.739102,-0.333208,0.468455,-130.48465,76.728508,360.585297,0,0
5385,2024 8 29,15:35:50.037,-0.738173,0.09618,0.65617,-0.122668,-1.878454,-0.461709,0.512232,-133.341675,80.533211,364.470001,0,0
5386,2024 8 29,15:35:50.046,-0.735576,0.083287,0.665703,-0.09252,-2.038412,-0.620401,0.542877,-135.686935,83.295959,364.78656,0,0
5387,2024 8 29,15:35:50.054,-0.732005,0.070596,0.67454,-0.06236,-2.138045,-0.868932,0.552099,-137.636459,84.564514,361.963409,0,0
5388,2024 8 29,15:35:50.062,-0.727273,0.270967,0.605706,0.17541,-2.216506,-1.15882,0.536399,-140.158829,90.811279,356.309052,0,0
5389,2024 8 29,15:35:50.071,-0.726123,0.055471,0.684815,-0.025433,-2.234585,-1.228121,0.531952,-140.774246,92.458405,354.893555,0,0
5390,2024 8 29,15:35:50.079,-0.721201,0.046611,0.690983,-0.002398,-2.307914,-1.433079,0.499512,-144.882217,97.56192,346.879517,0,0
5391,2024 8 29,15:35:50.087,-0.714439,0.036767,0.698032,0.025586,-2.365864,-1.657906,0.52684,-152.368149,98.71608,332.729156,0,0
5392,2024 8 29,15:35:50.096,-0.707032,0.028199,0.70434,0.053614,-2.315608,-1.862832,0.568281,-160.328918,94.492393,314.452301,0,0
5393,2024 8 29,15:35:50.104,-0.699436,0.021412,0.709557,0.080776,-2.123502,-2.097345,0.656718,-168.614197,88.272446,291.41217,0,0
5394,2024 8 29,15:35:50.112,-0.691463,0.01696,0.714101,0.10646,-1.88229,-2.367388,0.688404,-175.713013,90.335793,259.487732,0,0
5395,2024 8 29,15:35:50.121,-0.689091,0.015733,0.715423,0.113998,-1.809647,-2.448556,0.695089,-177.760178,91.304901,249.696335,0,0
5396,2024 8 29,15:35:50.129,-0.68263,0.015152,0.718576,0.131397,-1.556289,-2.574396,0.663373,-183.138611,96.842377,217.926361,0,0
5397,2024 8 29,15:35:50.137,-0.673946,0.017031,0.722709,0.151547,-1.231891,-2.661614,0.503778,-190.940247,110.914299,175.961411,0,0
5398,2024 8 29,15:35:50.146,-0.663936,0.02252,0.727595,0.170385,-0.915455,-2.673797,0.239004,-200.334976,134.731277,126.488907,0,0
5399,2024 8 29,15:35:50.154,-0.65255,0.032476,0.733567,0.186345,-0.520829,-2.652757,-0.08095,-205.754486,166.080917,63.32328,0,0
5400,2024 8 29,15:35:50.162,-0.639103,0.486498,0.459031,0.379679,-0.826931,-3.264749,-0.328615,-210.129257,217.736465,1.410393,0,0
5401,2024 8 29,15:35:50.171,-0.634346,0.052995,0.74392,0.203129,-0.968139,-3.508311,-0.410648,-211.624146,236.605957,-19.91004,0,0
5402,2024 8 29,15:35:50.179,-0.622108,0.067139,0.751474,0.208555,-1.609707,-3.533189,-0.660463,-194.070694,257.787354,-45.952587,0,0
5403,2024 8 29,15:35:50.187,-0.609587,0.085834,0.759437,0.209623,-3.415594,-3.940895,-1.658338,-126.097466,242.359085,-145.798462,0,0
5404,2024 8 29,15:35:50.196,-0.609878,0.107453,0.758478,0.202075,-2.091147,-3.61452,-0.348939,-67.485031,17.010635,-263.345917,0,0
5405,2024 8 29,15:35:50.204,-0.616463,0.133673,0.752669,0.186955,-1.196423,-2.816463,-1.552623,-36.300488,-9.118771,-366.444458,0,0
5406,2024 8 29,15:35:50.212,-0.624695,0.159459,0.745245,0.16773,-3.171624,-1.090525,-0.696325,-34.527561,-38.672565,-376.662689,1,0
5407,2024 8 29,15:35:50.221,-0.627967,0.169478,0.742284,0.160043,-4.093708,-0.368069,-0.227024,-35.251411,-52.161278,-375.690277,0,0
5408,2024 8 29,15:35:50.229,-0.642268,0.181932,0.728308,0.153195,-3.423595,-0.566868,-0.503947,-38.334248,-262.369751,-300.723328,0,0
5409,2024 8 29,15:35:50.237,-0.667642,0.190951,0.703602,0.147464,-1.113958,-0.805013,0.614787,2.748241,-372.334747,-234.656784,0,0
5410,2024 8 29,15:35:50.246,-0.684162,0.196183,0.687525,0.144023,0.440229,-0.946653,1.435193,32.011848,-429.381744,-195.415924,0,0
5411,2024 8 29,15:35:50.254,-0.687114,0.20245,0.684606,0.134907,-0.912687,-0.250335,0.157764,16.394405,90.974945,-110.656586,0,0
5412,2024 8 29,15:35:50.262,-0.682131,0.209044,0.688327,0.131154,-1.73265,-0.449598,-0.257008,-31.411602,43.291161,-52.034943,0,0
5413,2024 8 29,15:35:50.271,-0.686357,0.212442,0.682854,0.13225,-1.214403,0.045154,0.509127,-37.350792,-94.713249,-37.438824,0,0
5414,2024 8 29,15:35:50.279,-0.686562,0.212606,0.682588,0.132304,-1.189265,0.069153,0.546289,-37.638882,-101.407372,-36.730812,0,0
5415,2024 8 29,15:35:50.287,-0.69113,0.216074,0.676639,0.133432,-0.871492,-0.125872,0.313419,-37.60091,-79.625168,-43.319717,0,0
5416,2024 8 29,15:35:50.296,-0.694411,0.219483,0.67188,0.13488,-0.965926,-0.34607,-0.112106,-33.003456,-65.864975,-28.553635,0,0
5417,2024 8 29,15:35:50.304,-0.699774,0.220352,0.665644,0.136639,-0.64615,-0.20269,-0.236593,-13.991186,-101.404053,-12.207655,0,0
5418,2024 8 29,15:35:50.312,-0.703199,0.22025,0.661786,0.13797,-0.716068,0.010468,-0.110473,-6.996829,-39.726639,-1.573106,0,0
5419,2024 8 29,15:35:50.321,-0.703592,0.220703,0.661112,0.138485,-1.059646,0.000122,-0.240767,-8.81534,-8.14019,-3.013895,0,0
5420,2024 8 29,15:35:50.329,-0.703644,0.220762,0.661024,0.138552,-1.104671,-0.001234,-0.257842,-9.053657,-4.000784,-3.202711,0,0
5421,2024 8 29,15:35:50.337,-0.704787,0.221193,0.659535,0.139148,-1.031749,-0.021582,0.032141,-7.751161,-24.536844,-5.697506,0,0
5422,2024 8 29,15:35:50.346,-0.705663,0.22179,0.658362,0.139313,-1.047176,-0.024746,0.081686,-5.875948,-12.016253,-8.87323,0,0
5423,2024 8 29,15:35:50.354,-0.706204,0.222502,0.657589,0.139084,-1.096543,-0.039271,0.023586,-2.56331,-10.722905,-11.053662,0,0
5424,2024 8 29,15:35:50.362,-0.707407,0.222943,0.656203,0.13881,-1.000833,-0.026876,0.062121,0.444016,-21.239941,-11.788114,0,0
5425,2024 8 29,15:35:50.371,-0.708521,0.223312,0.654954,0.138436,-0.98424,-0.052153,0.039856,2.035701,-15.598185,-11.295098,0,0
5426,2024 8 29,15:35:50.379,-0.709383,0.223545,0.654073,0.137811,-1.010477,-0.048772,-0.024117,3.794422,-12.307907,-10.860355,0,0
5427,2024 8 29,15:35:50.387,-0.709565,0.223594,0.653887,0.137679,-1.016011,-0.048059,-0.037609,4.165359,-11.613943,-10.768662,0,0
5428,2024 8 29,15:35:50.396,-0.710464,0.223664,0.652993,0.137168,-0.992178,-0.03556,0.015879,4.66811,-15.293724,-10.748385,0,0
5429,2024 8 29,15:35:50.404,-0.71134,0.223781,0.65213,0.13654,-0.966733,-0.010888,-0.043385,5.015042,-11.667704,-10.743699,0,0
5430,2024 8 29,15:35:50.412,-0.712058,0.22401,0.651388,0.135963,-0.957689,-0.012967,-0.050001,2.865863,-9.381954,-10.241346,0,0
5431,2024 8 29,15:35:50.421,-0.71255,0.22432,0.650855,0.135423,-0.970185,-0.025007,-0.027178,2.237955,-5.075073,-9.440652,0,0
5432,2024 8 29,15:35:50.429,-0.712848,0.224665,0.650521,0.13489,-0.978406,-0.042709,-0.039388,1.186137,-3.112914,-8.743979,0,0
5433,2024 8 29,15:35:50.437,-0.712928,0.224758,0.650431,0.134747,-0.980614,-0.047463,-0.042667,0.903686,-2.586001,-8.556897,0,0
5434,2024 8 29,15:35:50.446,-0.713225,0.224985,0.650114,0.13433,-0.968387,-0.025879,-0.030737,2.169953,-4.131466,-8.591762,0,0
5435,2024 8 29,15:35:50.454,-0.7135,0.225312,0.649792,0.133874,-0.987178,0.076063,-0.01534,0.903366,-2.773272,-8.516012,0,0
5436,2024 8 29,15:35:50.462,-0.713781,0.225661,0.649455,0.133425,-1.005924,-0.048342,-0.026296,0.742383,-3.940707,-8.324296,0,0
5437,2024 8 29,15:35:50.471,-0.714225,0.225965,0.648942,0.133029,-0.984131,-0.045997,-0.044431,0.191318,-6.638234,-8.140711,0,0
5438,2024 8 29,15:35:50.479,-0.714625,0.226301,0.648458,0.132668,-0.967101,-0.049573,-0.038474,-0.021169,-5.034167,-7.835406,0,0
5439,2024 8 29,15:35:50.487,-0.714752,0.226409,0.648304,0.132553,-0.96168,-0.050711,-0.036578,-0.088807,-4.523565,-7.738223,0,0
5440,2024 8 29,15:35:50.496,-0.715077,0.226779,0.647896,0.132164,-0.959447,-0.010626,-0.087966,0.148177,-3.948235,-7.798537,0,0
5441,2024 8 29,15:35:50.504,-0.715336,0.227264,0.647491,0.131914,-0.949292,-0.032258,-0.026981,-1.944291,-3.268916,-7.918605,0,0
5442,2024 8 29,15:35:50.512,-0.715343,0.227841,0.647345,0.131596,-0.96039,-0.048564,-0.073088,-2.300273,1.427312,-7.934044,0,0
5443,2024 8 29,15:35:50.521,-0.715329,0.228377,0.647247,0.131224,-0.968925,-0.060151,-0.039575,-2.163912,1.129907,-7.934545,0,0
5444,2024 8 29,15:35:50.529,-0.715259,0.22888,0.647239,0.130768,-0.975028,-0.061895,-0.023365,-0.718272,2.913076,-7.934569,0,0
5445,2024 8 29,15:35:50.537,-0.715246,0.228964,0.647239,0.13069,-0.97602,-0.062004,-0.021182,-0.450007,3.265959,-7.93457,0,0
5446,2024 8 29,15:35:50.546,-0.715235,0.229317,0.64721,0.130277,-0.98554,-0.069489,-0.030458,0.456009,1.374859,-7.836197,0,0
5447,2024 8 29,15:35:50.554,-0.715351,0.229655,0.647057,0.129799,-0.986418,-0.064121,-0.034027,-0.029933,-0.780376,-7.572704,0,0
5448,2024 8 29,15:35:50.562,-0.715429,0.230041,0.646931,0.129317,-0.992861,-0.056964,0.003234,-0.49913,0.401945,-7.944965,0,0
5449,2024 8 29,15:35:50.571,-0.715407,0.230486,0.646911,0.128743,-1.004967,-0.046751,-0.030268,0.863756,2.059801,-8.983402,0,0
5450,2024 8 29,15:35:50.579,-0.715393,0.230995,0.646882,0.128053,-1.017498,-0.036926,-0.015741,0.989102,2.577549,-10.859263,0,0
5451,2024 8 29,15:35:50.587,-0.715391,0.231117,0.646874,0.127886,-1.020473,-0.034612,-0.010704,0.978532,2.668581,-11.326497,0,0
5452,2024 8 29,15:35:50.596,-0.715313,0.231679,0.646901,0.127164,-1.033575,-0.048339,-0.013175,1.33806,4.849668,-13.610996,0,0
5453,2024 8 29,15:35:50.604,-0.715173,0.232482,0.646983,0.12606,-1.046918,-0.057687,-0.001156,1.308351,6.100598,-16.577078,0,0
5454,2024 8 29,15:35:50.612,-0.715022,0.233481,0.647073,0.124599,-1.081049,-0.023085,-0.053711,2.956786,7.62946,-21.033762,0,0
5455,2024 8 29,15:35:50.621,-0.714981,0.234772,0.646975,0.122906,-1.100919,-0.043996,0.004838,2.126068,5.94229,-26.047684,0,0
5456,2024 8 29,15:35:50.629,-0.714908,0.236392,0.646856,0.120833,-1.140996,-0.031818,-0.043221,1.840717,7.660558,-31.951897,0,0
5457,2024 8 29,15:35:50.637,-0.714884,0.236883,0.64682,0.120207,-1.153626,-0.026828,-0.061604,1.785823,8.299842,-33.729084,0,0
5458,2024 8 29,15:35:50.646,-0.715067,0.238386,0.646416,0.118302,-1.1691,-0.03374,-0.046295,2.399713,3.558081,-38.878815,0,0
5459,2024 8 29,15:35:50.654,-0.715439,0.240495,0.645719,0.115538,-1.180777,-0.039587,-0.011108,3.399068,2.665116,-45.827202,0,0
5460,2024 8 29,15:35:50.662,-0.715865,0.243043,0.644891,0.112137,-1.212377,-0.051481,-0.011539,4.750125,2.462173,-53.610538,0,0
5461,2024 8 29,15:35:50.671,-0.716601,0.245987,0.643629,0.108175,-1.249009,-0.087182,-0.005069,6.173468,-2.424456,-63.043255,0,0
5462,2024 8 29,15:35:50.679,-0.717706,0.249274,0.641913,0.103382,-1.330488,-0.093476,0.045563,10.272404,-5.690694,-74.837914,0,0
5463,2024 8 29,15:35:50.687,-0.718101,0.250423,0.641303,0.101693,-1.360446,-0.094378,0.064783,11.796594,-6.7346,-79.004791,0,0
5464,2024 8 29,15:35:50.696,-0.719164,0.253296,0.639665,0.097224,-1.414699,-0.079102,-0.061245,13.383061,-8.576216,-89.473953,0,0
5465,2024 8 29,15:35:50.704,-0.720963,0.257421,0.636898,0.090929,-1.444762,-0.079681,0.032013,15.736866,-15.729061,-105.214302,0,0
5466,2024 8 29,15:35:50.712,-0.72306,0.262547,0.633428,0.083414,-1.519307,-0.084278,0.019794,14.66146,-18.467249,-121.324997,0,0
5467,2024 8 29,15:35:50.721,-0.725647,0.268568,0.62898,0.074824,-1.671144,-0.061784,0.033566,15.833288,-28.207855,-140.530624,0,0
5468,2024 8 29,15:35:50.729,-0.729086,0.27553,0.623047,0.064736,-1.897283,-0.058827,0.182152,21.774109,-42.162563,-167.442276,0,0
5469,2024 8 29,15:35:50.737,-0.730458,0.278275,0.620678,0.06075,-1.988161,-0.058672,0.245677,24.281647,-47.738586,-178.234421,0,0
5470,2024 8 29,15:35:50.746,-0.73402,0.284311,0.614503,0.05134,-2.240998,-0.045848,0.331099,33.008766,-63.234489,-204.645691,0,0
5471,2024 8 29,15:35:50.754,-0.736333,0.288208,0.610491,0.045248,-2.40559,-0.037251,0.384876,38.725067,-73.321701,-221.766479,0,0
5472,2024 8 29,15:35:50.762,-0.74338,0.297784,0.598187,0.029408,-2.922837,0.092374,0.525139,52.6381,-111.404961,-267.581055,0,0
5473,2024 8 29,15:35:50.771,-0.752469,0.309207,0.581387,0.011316,-3.396743,0.172732,0.572356,54.938328,-158.118195,-318.49118,0,0
5474,2024 8 29,15:35:50.779,-0.763306,0.323025,0.559336,-0.008871,-3.719205,0.13075,0.558102,51.728966,-210.248108,-374.135864,0,0
5475,2024 8 29,15:35:50.787,-0.775094,0.339435,0.531915,-0.030576,-3.627898,0.448426,0.10316,38.692741,-258.574677,-424.875854,0,0
5476,2024 8 29,15:35:50.796,-0.787018,0.358052,0.499471,-0.052106,-2.770235,0.273076,0.06002,18.460388,-299.24057,-451.311493,0,0
5477,2024 8 29,15:35:50.804,-0.788094,0.359733,0.496541,-0.05405,-2.692801,0.257245,0.056125,16.63372,-302.912048,-453.698242,0,1
5478,2024 8 29,15:35:50.812,-0.796653,0.37741,0.466141,-0.0734,-1.9399,-0.202245,-0.184821,2.728442,-286.727081,-453.246857,0,0
5479,2024 8 29,15:35:50.821,-0.803945,0.395568,0.433534,-0.094498,-1.551618,-0.156376,0.358091,8.202816,-262.521729,-435.705261,0,0
5480,2024 8 29,15:35:50.829,-0.808918,0.411509,0.403708,-0.11412,-1.899425,-0.116577,-0.041096,7.868815,-233.056427,-393.212006,0,0
5481,2024 8 29,15:35:50.837,-0.814479,0.425497,0.372027,-0.129808,-1.741302,0.322382,0.559493,11.785546,-285.394775,-358.234833,0,0
5482,2024 8 29,15:35:50.846,-0.81946,0.438231,0.340223,-0.142678,-1.666551,0.654065,0.685458,7.821547,-278.597717,-330.250366,0,0
5483,2024 8 29,15:35:50.854,-0.820287,0.440346,0.334943,-0.144814,-1.65414,0.709133,0.706371,7.163416,-277.469238,-325.604187,0,0
5484,2024 8 29,15:35:50.862,-0.823245,0.450793,0.308261,-0.15427,-1.699334,0.719694,0.775252,-1.3462,-287.439148,-318.016113,0,0
5485,2024 8 29,15:35:50.871,-0.826482,0.462068,0.276171,-0.163665,-1.093009,1.029499,1.354771,3.770355,-306.218903,-307.770172,0,0
5486,2024 8 29,15:35:50.879,-0.829993,0.472658,0.24228,-0.16905,0.959705,1.409966,1.775552,4.934541,-350.280273,-249.69632,0,0
5487,2024 8 29,15:35:50.887,-0.833826,0.482586,0.210258,-0.164954,1.802175,0.67906,1.346377,-24.792114,-338.377625,-118.809158,0,0
5488,2024 8 29,15:35:50.896,-0.835731,0.48661,0.197677,-0.159768,0.324995,0.734978,0.3191,-14.579085,-115.857651,11.341232,0,0
5489,2024 8 29,15:35:50.904,-0.836169,0.487537,0.194782,-0.158574,-0.014944,0.747847,0.082696,-12.2288,-64.649956,41.292252,0,0
5490,2024 8 29,15:35:50.912,-0.837816,0.488898,0.193616,-0.146612,-0.445053,0.967376,0.731528,-35.252174,-116.513123,139.813782,0,0
5491,2024 8 29,15:35:50.921,-0.839788,0.490612,0.195374,-0.125313,-0.874174,0.744941,0.737611,-56.446495,-108.135429,237.231995,0,0
5492,2024 8 29,15:35:50.929,-0.841763,0.491965,0.199055,-0.097116,-1.306612,0.421135,0.433032,-74.564995,-155.67247,305.18811,0,0
5493,2024 8 29,15:35:50.937,-0.84407,0.49325,0.19948,-0.062343,-1.067186,0.104135,0.963738,-79.106766,-212.175262,344.694977,0,0
5494,2024 8 29,15:35:50.946,-0.845457,0.49366,0.200332,-0.025628,-0.879743,-0.084605,0.849898,-77.322594,-210.730072,364.997406,0,0
5495,2024 8 29,15:35:50.954,-0.845852,0.493777,0.200575,-0.015162,-0.826308,-0.13841,0.817444,-76.813972,-210.318069,370.785156,0,0
5496,2024 8 29,15:35:50.962,-0.846137,0.492999,0.200833,0.014404,-0.603343,-0.24953,1.15192,-70.55838,-212.656647,369.812225,0,0
5497,2024 8 29,15:35:50.971,-0.845304,0.491242,0.203158,0.047209,-0.505229,-0.283724,1.09758,-60.540142,-169.102768,360.759033,0,0
5498,2024 8 29,15:35:50.979,-0.843218,0.488745,0.207835,0.078876,-0.503347,-0.234321,1.096329,-54.164352,-131.169464,349.461823,0,0
5499,2024 8 29,15:35:50.987,-0.839721,0.485976,0.214869,0.108755,-0.609905,-0.153749,1.024494,-53.491425,-91.188766,343.949249,0,0
5500,2024 8 29,15:35:50.996,-0.834649,0.483326,0.223779,0.137704,-0.779025,-0.103246,0.935358,-61.413193,-68.223465,346.976074,0,0
5501,2024 8 29,15:35:51.004,-0.832117,0.482002,0.228228,0.152158,-0.863465,-0.078029,0.890853,-65.368454,-56.757095,348.487335,0,0
5502,2024 8 29,15:35:51.012,-0.825283,0.480063,0.237552,0.178611,-0.911521,-0.086237,0.945989,-79.968513,-51.595161,361.119141,0,0
5503,2024 8 29,15:35:51.021,-0.815887,0.478379,0.248284,0.209,-0.936705,-0.157908,0.963423,-99.092682,-48.506512,378.56308,0,0
5504,2024 8 29,15:35:51.029,-0.804296,0.47734,0.259539,0.240212,-1.084107,-0.28931,1.006006,-118.125351,-38.606339,390.304565,0,0
5505,2024 8 29,15:35:51.037,-0.790798,0.476893,0.270783,0.271414,-1.154164,-0.394578,1.084755,-132.903442,-34.085556,391.082336,0,0
5506,2024 8 29,15:35:51.046,-0.775731,0.47707,0.28153,0.301894,-1.080157,-0.469072,1.157964,-145.999435,-25.430815,383.641174,0,0
5507,2024 8 29,15:35:51.054,-0.773111,0.477109,0.283376,0.307138,-1.065253,-0.481474,1.17045,-148.236755,-23.864864,382.243591,0,0
5508,2024 8 29,15:35:51.062,-0.758874,0.478358,0.292508,0.330927,-1.131096,-0.504692,1.173305,-159.877075,-3.087925,371.963104,0,0
5509,2024 8 29,15:35:51.071,-0.740664,0.480987,0.303352,0.357428,-1.229526,-0.511855,1.186534,-175.330841,18.190462,359.688049,0,0
5510,2024 8 29,15:35:51.079,-0.720378,0.485082,0.314427,0.382829,-1.405381,-0.549173,1.218035,-193.200104,39.662521,349.078217,0,0
5511,2024 8 29,15:35:51.087,-0.698287,0.490589,0.325107,0.407014,-1.633763,-0.627039,1.221511,-212.819901,53.228348,338.771851,0,0
5512,2024 8 29,15:35:51.096,-0.674668,0.497265,0.334608,0.430338,-1.797401,-0.778233,1.225385,-233.50116,57.789574,327.804565,0,0
5513,2024 8 29,15:35:51.104,-0.66898,0.498888,0.336859,0.435908,-1.835083,-0.815992,1.226382,-238.475876,58.699978,325.162354,0,0
5514,2024 8 29,15:35:51.112,-0.648986,0.505085,0.342821,0.453754,-1.890043,-0.951338,1.276655,-254.807892,57.960014,316.766235,0,0
5515,2024 8 29,15:35:51.121,-0.623882,0.513172,0.348613,0.474822,-1.895732,-1.135233,1.354194,-272.422211,56.490166,305.184509,0,0
5516,2024 8 29,15:35:51.129,-0.597177,0.522122,0.352976,0.495647,-1.795227,-1.323645,1.436356,-286.863342,57.835083,291.077057,0,0
5517,2024 8 29,15:35:51.137,-0.569425,0.532039,0.356116,0.51509,-1.745945,-1.430202,1.472123,-299.597992,69.589836,275.306824,0,0
5518,2024 8 29,15:35:51.146,-0.540649,0.543124,0.357996,0.532879,-1.782299,-1.48436,1.457229,-315.371277,82.176071,258.243317,0,0
5519,2024 8 29,15:35:51.154,-0.532094,0.546439,0.358521,0.538111,-1.795232,-1.499202,1.451564,-320.131683,85.904022,253.154556,0,0
5520,2024 8 29,15:35:51.162,-0.508949,0.556048,0.358313,0.550457,-1.839389,-1.54682,1.424837,-337.377899,92.095779,241.129074,0,0
5521,2024 8 29,15:35:51.171,-0.479528,0.568618,0.356184,0.565008,-1.853863,-1.628721,1.432318,-362.622986,93.634407,226.208481,0,0
5522,2024 8 29,15:35:51.179,-0.447911,0.582347,0.351184,0.579767,-1.724952,-1.817907,1.470965,-390.204285,88.0802,206.846924,0,0
5523,2024 8 29,15:35:51.187,-0.415549,0.597001,0.342878,0.593668,-1.462239,-2.102002,1.543456,-414.360291,87.058571,177.397156,0,0
5524,2024 8 29,15:35:51.196,-0.383401,0.613049,0.331392,0.605289,-1.149697,-2.418455,1.557092,-429.365448,100.075317,136.018555,0,0
5525,2024 8 29,15:35:51.204,-0.352223,0.631138,0.317274,0.613111,-0.970172,-2.659917,1.451371,-432.541779,130.150803,86.245422,0,0
5526,2024 8 29,15:35:51.212,-0.34126,0.637575,0.312222,0.615756,-0.911158,-2.742626,1.410529,-433.315521,141.250824,68.465431,0,0
5527,2024 8 29,15:35:51.221,-0.319939,0.652746,0.299751,0.617348,-0.694733,-2.841038,1.027379,-418.981232,160.315582,29.015499,0,0
5528,2024 8 29,15:35:51.229,-0.296607,0.671774,0.283044,0.616285,-0.344137,-3.163629,0.619747,-393.357147,178.992569,-21.414726,0,0
5529,2024 8 29,15:35:51.237,-0.27461,0.694032,0.265795,0.609317,-0.745059,-3.704457,0.094617,-351.984039,248.225082,-62.025047,0,0
5530,2024 8 29,15:35:51.246,-0.254297,0.719122,0.250133,0.595367,-4.066027,-6.001744,-1.627889,-313.57605,334.835968,-85.200371,0,0
5531,2024 8 29,15:35:51.254,-0.242565,0.73384,0.241108,0.586927,-6.141675,-7.42567,-2.689616,-291.461456,385.849792,-97.837448,0,0
5532,2024 8 29,15:35:51.262,-0.24431,0.736717,0.217068,0.591964,-2.389962,-5.026554,-2.061394,-214.702866,-297.464539,-169.964783,0,0
5533,2024 8 29,15:35:51.271,-0.244363,0.736804,0.216344,0.592116,-2.277029,-4.954336,-2.042483,-212.392288,-318.033539,-172.135956,1,0
5534,2024 8 29,15:35:51.279,-0.248924,0.71712,0.190285,0.622444,2.043659,-4.432689,0.198649,-97.424011,-465.39856,-97.645325,0,0
5535,2024 8 29,15:35:51.287,-0.257302,0.708474,0.190049,0.629059,-0.227587,-1.559789,1.376246,30.767639,3.793945,42.875244,0,0
5536,2024 8 29,15:35:51.296,-0.257732,0.707078,0.201589,0.626866,-1.883124,0.831554,-1.782745,134.204712,-21.58971,93.709854,0,0
5537,2024 8 29,15:35:51.304,-0.261831,0.692222,0.20377,0.640858,-0.066055,0.667513,-0.104606,45.081924,-241.976913,43.765621,0,0
5538,2024 8 29,15:35:51.312,-0.262828,0.690669,0.204591,0.641898,-0.783457,0.27836,0.029515,-2.461704,60.189011,-4.447765,0,0
5539,2024 8 29,15:35:51.321,-0.262943,0.69049,0.204686,0.642018,-0.866479,0.233325,0.045036,-7.963726,95.157364,-10.027294,0,0
5540,2024 8 29,15:35:51.329,-0.260361,0.695649,0.205129,0.637336,-1.541226,-0.184634,-0.007785,-15.679762,60.685856,-3.788074,0,0
5541,2024 8 29,15:35:51.337,-0.260316,0.694003,0.203625,0.639632,-1.002821,0.090117,-0.057717,-12.436995,-53.629429,-2.753652,0,0
5542,2024 8 29,15:35:51.346,-0.259766,0.69317,0.201475,0.641438,-0.863048,-0.115061,0.392936,-25.867947,-2.562229,-6.255041,0,0
5543,2024 8 29,15:35:51.354,-0.258449,0.695792,0.200997,0.639276,-1.305567,-0.129642,-0.01236,-14.047735,36.433044,-6.531594,0,0
5544,2024 8 29,15:35:51.362,-0.258686,0.695276,0.199909,0.640084,-1.122954,-0.038478,0.043134,-4.350304,-30.450958,-7.223035,0,0
5545,2024 8 29,15:35:51.371,-0.258731,0.695179,0.199705,0.640236,-1.088722,-0.021389,0.053537,-2.532442,-42.988907,-7.352652,0,0
5546,2024 8 29,15:35:51.379,-0.25951,0.693825,0.198607,0.641728,-0.839412,-0.020695,0.110649,-1.257726,-22.811626,-9.399305,0,0
5547,2024 8 29,15:35:51.387,-0.259955,0.694702,0.198312,0.64069,-1.06846,-0.031946,-0.052931,1.525175,17.158207,-11.726128,0,0
5548,2024 8 29,15:35:51.396,-0.26068,0.695059,0.197751,0.640181,-1.05266,-0.008915,-0.06328,0.119691,-3.094173,-13.220222,0,0
5549,2024 8 29,15:35:51.404,-0.261434,0.695069,0.196767,0.640167,-0.961686,-0.023625,0.127193,-1.22023,0.176623,-14.441648,0,0
5550,2024 8 29,15:35:51.412,-0.261944,0.696147,0.196115,0.638986,-1.070053,-0.011791,-0.038535,-1.723069,15.575782,-16.012508,0,0
5551,2024 8 29,15:35:51.421,-0.262071,0.696414,0.195953,0.638692,-1.096974,-0.008851,-0.079706,-1.847987,19.401329,-16.40275,0,0
5552,2024 8 29,15:35:51.429,-0.262592,0.696832,0.195012,0.63831,-1.059715,-0.025558,0.059384,-3.885021,3.101017,-17.617121,0,0
5553,2024 8 29,15:35:51.437,-0.263176,0.697394,0.19375,0.63784,-1.045199,-0.047971,0.107754,-5.748684,5.706008,-18.86525,0,0
5554,2024 8 29,15:35:51.446,-0.26371,0.698184,0.192466,0.637144,-1.088156,-0.054496,0.065432,-6.262314,5.163088,-18.817934,0,0
5555,2024 8 29,15:35:51.454,-0.264331,0.698426,0.190919,0.637086,-1.02166,-0.040541,0.037593,-7.353428,-6.203842,-18.331924,0,0
5556,2024 8 29,15:35:51.462,-0.264879,0.698591,0.189229,0.637182,-0.981142,-0.028305,0.041333,-9.201113,-4.096237,-18.486874,0,0
5557,2024 8 29,15:35:51.471,-0.265044,0.69864,0.18872,0.637211,-0.96895,-0.024623,0.042458,-9.75705,-3.462095,-18.533495,0,0
5558,2024 8 29,15:35:51.479,-0.265254,0.699223,0.187364,0.636884,-1.002681,-0.033441,-0.005642,-12.085657,2.250409,-19.501896,0,0
5559,2024 8 29,15:35:51.487,-0.265497,0.699851,0.185588,0.636612,-0.976624,-0.044436,0.002413,-13.110356,0.738464,-20.546785,0,0
5560,2024 8 29,15:35:51.496,-0.265764,0.700656,0.183757,0.636146,-0.967196,-0.0626,0.017029,-12.631913,5.356666,-21.047991,0,0
5561,2024 8 29,15:35:51.504,-0.266244,0.702105,0.181364,0.635035,-0.987089,-0.072102,-0.019506,-9.878325,10.173763,-21.186039,0,0
5562,2024 8 29,15:35:51.512,-0.266802,0.702865,0.179876,0.634383,-0.987023,-0.078862,-0.003962,-6.075888,4.159753,-20.024511,0,0
5563,2024 8 29,15:35:51.521,-0.266858,0.702937,0.179731,0.634321,-0.986854,-0.079559,-0.002045,-5.694442,3.509961,-19.903238,0,0
5564,2024 8 29,15:35:51.529,-0.267498,0.703277,0.178592,0.633996,-0.931852,-0.068932,-0.035211,-4.664906,0.816497,-17.446579,0,0
5565,2024 8 29,15:35:51.537,-0.268033,0.703715,0.177542,0.633578,-0.915643,-0.075898,0.000205,-4.055508,3.500076,-14.440538,0,0
5566,2024 8 29,15:35:51.546,-0.268324,0.704141,0.176788,0.633193,-0.921641,-0.093992,-0.007848,-3.561703,3.3052,-9.573601,0,0
5567,2024 8 29,15:35:51.554,-0.268485,0.704314,0.176319,0.633064,-0.906456,-0.098879,0.016505,-2.316367,0.44147,-4.996369,0,0
5568,2024 8 29,15:35:51.562,-0.268486,0.704448,0.176193,0.632949,-0.934623,-0.095914,0.029334,-0.748517,2.502907,-1.087891,0,0
5569,2024 8 29,15:35:51.571,-0.268485,0.704314,0.176319,0.633064,-0.940126,-0.095308,0.031427,-0.468948,2.927402,-0.406775,0,0
5570,2024 8 29,15:35:51.579,-0.268399,0.704533,0.176327,0.632853,-0.977109,-0.078456,0.008679,0.395747,1.811446,1.630783,0,0
5571,2024 8 29,15:35:51.587,-0.268275,0.704441,0.176524,0.632954,-0.963771,-0.073338,0.013436,0.480989,-0.689789,2.971594,0,0
5572,2024 8 29,15:35:51.596,-0.268126,0.704395,0.176804,0.632991,-0.963248,-0.059926,-0.021568,0.676754,1.611345,3.14702,0,0
5573,2024 8 29,15:35:51.604,-0.267945,0.704493,0.177084,0.632879,-0.989952,-0.063189,0.022095,0.441818,3.830487,2.514123,0,0
5574,2024 8 29,15:35:51.612,-0.267791,0.704743,0.177367,0.632587,-1.041219,-0.081201,0.082217,0.565163,5.767986,1.248483,0,0
5575,2024 8 29,15:35:51.621,-0.267788,0.704815,0.177561,0.632453,-1.065627,-0.101441,0.128246,1.694487,0.401103,0.614616,0,0
5576,2024 8 29,15:35:51.629,-0.267789,0.70483,0.177608,0.632423,-1.071275,-0.106547,0.139556,1.994822,-1.070916,0.466803,0,0
5577,2024 8 29,15:35:51.637,-0.268036,0.704509,0.17771,0.632648,-1.051502,-0.092697,0.122028,4.365346,-5.81596,0.258473,0,0
5578,2024 8 29,15:35:51.646,-0.268492,0.703947,0.177823,0.633047,-1.038708,-0.075659,0.064571,5.833162,-8.871572,-0.71973,0,0
5579,2024 8 29,15:35:51.654,-0.269138,0.703272,0.177846,0.633517,-1.049493,-0.073634,0.081747,7.045686,-10.164661,-2.608404,0,0
5580,2024 8 29,15:35:51.662,-0.269999,0.702573,0.177779,0.633945,-1.063985,-0.045984,0.027307,8.075336,-11.189681,-5.220765,0,0
5581,2024 8 29,15:35:51.671,-0.270989,0.701754,0.177389,0.634538,-1.019005,-0.041647,-0.049817,5.759405,-14.531002,-8.373699,0,0
5582,2024 8 29,15:35:51.679,-0.271293,0.701501,0.177264,0.634723,-1.004076,-0.04083,-0.073704,4.985414,-15.597522,-9.345766,0,0
5583,2024 8 29,15:35:51.687,-0.272132,0.701133,0.176695,0.634929,-0.994823,-0.041602,-0.031581,3.954736,-8.872897,-13.026522,0,0
5584,2024 8 29,15:35:51.696,-0.273132,0.701231,0.175974,0.634592,-1.025823,-0.048075,-0.032375,3.085953,0.009138,-16.42911,0,0
5585,2024 8 29,15:35:51.704,-0.274233,0.70137,0.17503,0.634223,-1.023034,-0.060637,-0.030747,2.078995,-2.06574,-18.505848,0,0
5586,2024 8 29,15:35:51.712,-0.275426,0.701411,0.173922,0.633966,-1.007919,-0.067542,0.02503,1.736515,-2.887418,-19.535379,0,0
5587,2024 8 29,15:35:51.721,-0.276612,0.701659,0.172841,0.63347,-1.028004,-0.080808,0.016141,1.869816,0.731656,-20.301468,0,0
5588,2024 8 29,15:35:51.729,-0.277029,0.701751,0.172462,0.63329,-1.035877,-0.085626,0.011474,1.926463,2.10174,-20.56628,0,0
5589,2024 8 29,15:35:51.737,-0.278003,0.701832,0.171599,0.633008,-1.048841,-0.087766,0.021703,2.521915,-2.316017,-20.95808,0,0
5590,2024 8 29,15:35:51.746,-0.279338,0.701752,0.170451,0.632818,-1.053722,-0.079055,0.03766,3.475967,-5.357501,-22.095221,0,0
5591,2024 8 29,15:35:51.754,-0.280097,0.701702,0.1698,0.632715,-1.056153,-0.073801,0.046759,4.021253,-6.997784,-22.75753,0,0
5592,2024 8 29,15:35:51.762,-0.281663,0.701512,0.168417,0.6326,-1.056184,-0.088907,-0.001962,3.613266,-8.796354,-23.832621,0,0
5593,2024 8 29,15:35:51.771,-0.283353,0.701201,0.166838,0.632608,-1.056185,-0.118259,-0.021079,2.143961,-10.771803,-25.729113,0,0
5594,2024 8 29,15:35:51.779,-0.285246,0.700912,0.165048,0.632547,-1.079596,-0.039676,0.007918,2.30883,-10.743961,-29.083147,0,0
5595,2024 8 29,15:35:51.787,-0.285358,0.700895,0.164942,0.632544,-1.080976,-0.035043,0.009628,2.318552,-10.74232,-29.280926,0,0
5596,2024 8 29,15:35:51.796,-0.287094,0.700759,0.162937,0.632427,-1.126457,-0.008899,-0.101024,0.15049,-10.352932,-33.466183,0,0
5597,2024 8 29,15:35:51.804,-0.289138,0.7009,0.160319,0.632009,-1.159793,-0.071016,-0.01213,-3.489525,-6.320972,-41.225891,0,0
5598,2024 8 29,15:35:51.812,-0.291591,0.70134,0.157253,0.631162,-1.209777,-0.129091,0.038728,-2.886816,-4.941953,-49.455673,0,0
5599,2024 8 29,15:35:51.821,-0.294783,0.701409,0.153725,0.630471,-1.232081,-0.116177,0.096,1.700024,-14.245102,-57.147655,0,0
5600,2024 8 29,15:35:51.829,-0.298758,0.701026,0.149729,0.629985,-1.244139,-0.102381,0.129272,6.683776,-21.29583,-65.7742,0,0
5601,2024 8 29,15:35:51.837,-0.299313,0.700973,0.149171,0.629917,-1.245825,-0.100452,0.133923,7.380419,-22.281399,-66.980042,0,0
5602,2024 8 29,15:35:51.846,-0.303566,0.700457,0.145226,0.629372,-1.30635,-0.094458,0.082912,10.642136,-24.46718,-76.32547,0,0
5603,2024 8 29,15:35:51.854,-0.308954,0.699672,0.140181,0.628762,-1.386933,-0.04007,0.026775,11.627889,-29.794151,-87.141243,0,0
5604,2024 8 29,15:35:51.862,-0.314973,0.698582,0.134103,0.628309,-1.332139,-0.030541,0.077931,10.46398,-38.202568,-98.639969,0,0
5605,2024 8 29,15:35:51.871,-0.321492,0.69738,0.127091,0.627793,-1.350448,-0.010012,0.049568,7.7077,-40.697453,-109.328888,0,0
5606,2024 8 29,15:35:51.879,-0.328337,0.696159,0.119215,0.627144,-1.329774,-0.0819,0.003886,3.646804,-44.754974,-118.760719,0,0
5607,2024 8 29,15:35:51.887,-0.32976,0.695905,0.117578,0.627009,-1.325478,-0.096839,-0.005608,2.802888,-45.59819,-120.720795,0,0
5608,2024 8 29,15:35:51.896,-0.335986,0.694377,0.110125,0.626734,-1.349695,-0.178939,0.214204,3.322732,-55.683926,-128.375244,0,0
5609,2024 8 29,15:35:51.904,-0.343886,0.692247,0.101044,0.626316,-1.394506,-0.28736,0.228778,7.425321,-63.497833,-137.858047,0,0
5610,2024 8 29,15:35:51.912,-0.35308,0.688855,0.090967,0.626465,-1.550071,-0.266688,0.307258,15.445173,-83.560852,-148.393036,0,0
5611,2024 8 29,15:35:51.921,-0.363284,0.684052,0.080024,0.627364,-1.686493,-0.27747,0.241407,21.178734,-106.502045,-158.271973,0,0
5612,2024 8 29,15:35:51.929,-0.374312,0.677377,0.067846,0.629524,-1.774341,-0.281309,0.27874,25.639748,-136.926987,-167.499863,0,0
5613,2024 8 29,15:35:51.937,-0.377244,0.675603,0.064608,0.630099,-1.797698,-0.28233,0.288666,26.825821,-145.01622,-169.953323,0,0
5614,2024 8 29,15:35:51.946,-0.38681,0.668651,0.053707,0.632676,-1.970231,-0.25684,0.288607,28.849352,-161.777679,-178.854568,0,0
5615,2024 8 29,15:35:51.954,-0.398366,0.659007,0.03953,0.636577,-2.141968,-0.367299,0.228029,25.164688,-191.990143,-187.35556,0,0
5616,2024 8 29,15:35:51.962,-0.410434,0.646615,0.023131,0.642315,-2.340004,-0.324723,0.329366,22.984295,-234.342804,-189.411346,0,1
5617,2024 8 29,15:35:51.971,-0.421775,0.630816,0.004586,0.650917,-2.502608,-0.552584,0.489839,20.355579,-295.320374,-181.542358,0,0
5618,2024 8 29,15:35:51.979,-0.431545,0.610657,-0.01532,0.663317,-2.847386,-0.655685,0.560216,23.698151,-364.480103,-155.448059,0,0
5619,2024 8 29,15:35:51.987,-0.434632,0.604287,-0.02161,0.667236,-2.956338,-0.688265,0.582455,24.754425,-386.335022,-147.202103,0,0
5620,2024 8 29,15:35:51.996,-0.439338,0.58309,-0.038025,0.68189,-3.107862,-0.748171,0.394161,23.83802,-464.322083,-111.775879,0,0
5621,2024 8 29,15:35:52.004,-0.443325,0.538981,-0.068931,0.712768,-2.988581,-0.840282,0.806183,17.59889,-587.357849,-68.265976,0,0
5622,2024 8 29,15:35:52.012,-0.443027,0.502933,-0.093885,0.736055,-2.58216,-0.721129,0.825776,-1.199745,-571.748901,-69.892387,0,0
5623,2024 8 29,15:35:52.021,-0.44226,0.46818,-0.119039,0.755533,-2.429266,-0.270916,0.980526,-19.368362,-548.409607,-89.137535,0,0
5624,2024 8 29,15:35:52.029,-0.441329,0.434406,-0.144281,0.771667,-2.291951,0.255564,1.332332,-31.167553,-519.584412,-103.450539,0,0
5625,2024 8 29,15:35:52.037,-0.44046,0.402153,-0.169667,0.784369,-2.235872,1.841443,0.732792,-49.41328,-493.372955,-125.940338,0,0
5626,2024 8 29,15:35:52.046,-0.440358,0.398347,-0.17267,0.785854,-2.229671,2.034602,0.656785,-51.606693,-490.288574,-128.644669,0,0
5627,2024 8 29,15:35:52.054,-0.436312,0.370211,-0.204388,0.794028,-0.014717,1.637454,0.45866,-216.611176,-551.252258,-151.984802,0,0
5628,2024 8 29,15:35:52.062,-0.424873,0.347984,-0.244409,0.798891,1.397692,1.467441,2.180755,-319.00238,-402.713806,-67.910309,0,0
5629,2024 8 29,15:35:52.071,-0.407428,0.346268,-0.27946,0.797282,0.424579,0.994443,1.224828,-404.309814,-207.316055,33.084633,0,0
5630,2024 8 29,15:35:52.079,-0.385875,0.353688,-0.311467,0.792858,-0.409237,0.550068,1.930814,-434.037292,-106.186485,82.629929,0,0
5631,2024 8 29,15:35:52.087,-0.366596,0.36942,-0.338272,0.783797,-1.024794,0.425587,1.288162,-420.564514,4.57579,78.950325,0,0
5632,2024 8 29,15:35:52.096,-0.362933,0.372496,-0.343352,0.782026,-1.140643,0.404569,1.152838,-417.634155,25.868998,77.803116,0,0
5633,2024 8 29,15:35:52.104,-0.349066,0.385553,-0.362484,0.773225,-0.833001,0.335985,1.465736,-383.429718,21.773598,65.064384,0,0
5634,2024 8 29,15:35:52.112,-0.334998,0.401433,-0.380756,0.762474,-0.659682,0.15073,1.407438,-329.948975,67.348824,69.235443,0,0
5635,2024 8 29,15:35:52.121,-0.322864,0.418663,-0.393445,0.751945,-0.650161,0.02801,1.074798,-263.542328,100.091499,86.294266,0,0
5636,2024 8 29,15:35:52.129,-0.312425,0.435905,-0.399689,0.743247,-0.715883,-0.010951,1.011464,-187.894012,125.800354,111.531136,0,0
5637,2024 8 29,15:35:52.137,-0.303682,0.453788,-0.398821,0.73662,-1.004928,0.064083,0.683166,-110.875946,150.840759,144.425919,0,0
5638,2024 8 29,15:35:52.146,-0.301492,0.458313,-0.398524,0.734969,-1.080428,0.08428,0.597105,-91.40741,157.162521,152.818588,0,0
5639,2024 8 29,15:35:52.154,-0.294547,0.471169,-0.39183,0.733214,-1.22595,0.180342,0.436771,-36.414417,133.299347,183.532486,0,0
5640,2024 8 29,15:35:52.162,-0.285159,0.484329,-0.380044,0.734506,-1.135393,0.293102,0.294602,18.77322,100.527534,219.666046,0,0
5641,2024 8 29,15:35:52.171,-0.27429,0.496335,-0.364109,0.73864,-0.908921,0.410261,0.23778,61.527328,80.409081,253.872559,0,0
5642,2024 8 29,15:35:52.179,-0.26269,0.508241,-0.344658,0.744012,-0.770576,0.544586,0.19476,90.838531,85.786934,281.486359,0,0
5643,2024 8 29,15:35:52.187,-0.250443,0.521308,-0.322455,0.749062,-0.84685,0.729565,0.105458,101.277969,105.853302,306.361328,0,0
5644,2024 8 29,15:35:52.196,-0.246696,0.525312,-0.315644,0.750599,-0.872881,0.786676,0.077591,104.22506,112.155869,313.921631,0,0
5645,2024 8 29,15:35:52.204,-0.235841,0.536716,-0.296948,0.753529,-1.05442,0.899489,-0.008804,95.36924,121.361145,330.162537,0,0
5646,2024 8 29,15:35:52.212,-0.22077,0.550471,-0.274649,0.756491,-1.178442,0.921542,-0.032156,73.863747,116.456688,344.227997,0,0
5647,2024 8 29,15:35:52.221,-0.202956,0.564857,-0.252448,0.758524,-1.238968,0.861088,-0.040221,44.581055,115.615387,349.985504,0,0
5648,2024 8 29,15:35:52.229,-0.183306,0.579623,-0.231791,0.758938,-1.266123,0.791201,-0.011831,11.239944,120.737823,347.303589,0,0
5649,2024 8 29,15:35:52.237,-0.162372,0.595034,-0.213301,0.757174,-1.38853,0.733049,0.009783,-24.152401,134.482224,338.976074,0,0
5650,2024 8 29,15:35:52.246,-0.155013,0.600448,-0.206847,0.756525,-1.432842,0.712826,0.017245,-36.591866,139.422607,335.979431,0,0
5651,2024 8 29,15:35:52.254,-0.151354,0.60314,-0.203638,0.756203,-1.454874,0.702772,0.020955,-42.776909,141.879028,334.489471,0,0
5652,2024 8 29,15:35:52.262,-0.128828,0.619118,-0.188985,0.751234,-1.628455,0.629526,0.021945,-79.055038,148.673141,324.737885,0,0
5653,2024 8 29,15:35:52.271,-0.104592,0.635035,-0.176516,0.744705,-1.742467,0.54859,0.069628,-112.270782,151.367676,319.977966,0,0
5654,2024 8 29,15:35:52.279,-0.078762,0.650751,-0.165954,0.736687,-1.859036,0.444922,0.11901,-142.359314,155.50502,318.453918,0,0
5655,2024 8 29,15:35:52.287,-0.051494,0.666388,-0.156981,0.727004,-2.111479,0.320842,0.117324,-168.979523,163.492798,318.140015,0,0
5656,2024 8 29,15:35:52.296,-0.022665,0.681191,-0.149247,0.716285,-2.337751,0.197835,0.148393,-192.061691,157.050797,321.347717,0,0
5657,2024 8 29,15:35:52.304,-0.020181,0.682466,-0.14858,0.715362,-2.357248,0.187236,0.15107,-194.050552,156.495728,321.624084,0,0
5658,2024 8 29,15:35:52.312,0.007649,0.694419,-0.142249,0.70523,-2.509177,0.017178,0.252046,-210.13295,144.068222,328.67514,0,0
5659,2024 8 29,15:35:52.321,0.039329,0.70575,-0.135423,0.694135,-2.575338,-0.292915,0.299667,-222.119217,125.415947,339.160583,0,0
5660,2024 8 29,15:35:52.329,0.072029,0.715197,-0.128155,0.683106,-2.56647,-0.848592,0.420234,-222.895493,108.062973,346.881622,0,0
5661,2024 8 29,15:35:52.337,0.103978,0.723185,-0.120138,0.671931,-2.569378,-1.522054,0.504777,-208.31929,98.420105,347.124176,0,0
5662,2024 8 29,15:35:52.346,0.133877,0.729807,-0.110795,0.660994,-2.424234,-2.003222,0.533424,-179.769287,86.772072,343.847534,0,0
5663,2024 8 29,15:35:52.354,0.138737,0.730884,-0.109277,0.659216,-2.400638,-2.081444,0.538081,-175.128052,84.878502,343.31485,0,0
5664,2024 8 29,15:35:52.362,0.161833,0.735722,-0.099453,0.649962,-2.361631,-2.364342,0.571015,-144.577087,79.690849,343.469971,0,0
5665,2024 8 29,15:35:52.371,0.186041,0.740076,-0.086549,0.640262,-2.111072,-2.721507,0.561859,-111.973152,59.072044,339.293335,0,0
5666,2024 8 29,15:35:52.379,0.207706,0.743885,-0.072709,0.630835,-1.701032,-3.062913,0.441182,-81.068512,58.9352,317.728394,0,0
5667,2024 8 29,15:35:52.387,0.225355,0.748589,-0.06025,0.620464,-1.414758,-3.261866,-0.018739,-55.539352,85.520287,273.991882,0,0
5668,2024 8 29,15:35:52.396,0.238717,0.754197,-0.050986,0.609447,-1.416511,-3.640758,-0.667814,-41.632721,110.980453,216.144867,0,0
5669,2024 8 29,15:35:52.404,0.248213,0.760192,-0.044733,0.598637,-1.842176,-4.030754,-1.271335,-26.923712,118.480652,167.65834,0,0
5670,2024 8 29,15:35:52.412,0.250463,0.761612,-0.043251,0.596075,-1.943053,-4.123179,-1.414363,-23.437838,120.258118,156.167572,0,0
5671,2024 8 29,15:35:52.421,0.255089,0.764099,-0.038755,0.591224,-2.049326,-4.523668,-1.596873,-5.43944,56.165314,130.814178,0,0
5672,2024 8 29,15:35:52.429,0.25683,0.763908,-0.032666,0.591093,-3.324224,-5.509043,-0.838212,35.118614,-17.446442,86.453644,0,0
5673,2024 8 29,15:35:52.437,0.245064,0.765537,-0.036577,0.593708,-1.278337,-4.277948,-2.152676,106.833275,-23.276617,-112.217941,0,0
5674,2024 8 29,15:35:52.446,0.224323,0.765479,-0.04946,0.600829,-0.358563,-4.846638,-1.136463,79.186539,17.401583,-285.911926,0,0
5675,2024 8 29,15:35:52.454,0.193708,0.771025,-0.068377,0.602234,-2.567433,-0.557315,2.161642,168.954041,111.788979,-378.306702,0,0
5676,2024 8 29,15:35:52.462,0.184799,0.772638,-0.073882,0.602643,-3.210209,0.690866,3.121382,195.076141,139.255463,-405.193329,1,0
5677,2024 8 29,15:35:52.471,0.16455,0.77509,-0.090364,0.602999,-3.88709,0.814066,0.977914,102.501389,46.241875,-368.027313,0,0
5678,2024 8 29,15:35:52.479,0.148613,0.763767,-0.10634,0.618652,-2.748111,0.256917,0.931116,44.657223,-221.598419,-313.909058,0,0
5679,2024 8 29,15:35:52.487,0.138438,0.744906,-0.120984,0.64076,-1.314202,-0.100544,0.229817,-27.787334,-300.605225,-261.216003,0,0
5680,2024 8 29,15:35:52.496,0.131734,0.730467,-0.134878,0.655961,-1.129413,-0.713391,0.125573,-46.875595,-170.9702,-197.304474,0,0
5681,2024 8 29,15:35:52.504,0.12463,0.717298,-0.149639,0.668987,-1.239774,-0.668402,-0.27144,-16.138168,-86.458206,-99.301491,0,0
5682,2024 8 29,15:35:52.512,0.124445,0.716985,-0.150023,0.669282,-1.246913,-0.657544,-0.28575,-14.628703,-85.000816,-96.333649,0,0
5683,2024 8 29,15:35:52.521,0.121744,0.711098,-0.152988,0.675357,-0.901915,-0.222599,0.646783,-3.518591,-81.215668,-59.751411,0,0
5684,2024 8 29,15:35:52.529,0.120851,0.708216,-0.156131,0.677825,-1.179747,-0.00136,-0.11751,-23.635517,-34.953529,-37.157398,0,0
5685,2024 8 29,15:35:52.537,0.122439,0.702613,-0.158981,0.682687,-0.838768,-0.276113,-0.297845,-32.420593,-98.421402,-26.496353,0,0
5686,2024 8 29,15:35:52.546,0.122369,0.69829,-0.16029,0.686818,-0.697431,0.040291,0.240248,-3.165525,-39.816742,-23.697987,0,0
5687,2024 8 29,15:35:52.554,0.121894,0.698348,-0.162211,0.686395,-1.241969,-0.0905,-0.109649,-12.212415,7.322533,-18.122715,0,0
5688,2024 8 29,15:35:52.562,0.121834,0.698369,-0.162451,0.686329,-1.311404,-0.108088,-0.155692,-13.451181,13.109169,-17.424034,0,0
5689,2024 8 29,15:35:52.571,0.121091,0.695985,-0.162936,0.688761,-0.815985,0.032646,-0.206091,10.15967,-44.578281,-21.442093,0,0
5690,2024 8 29,15:35:52.579,0.11954,0.695388,-0.163909,0.689404,-0.964066,-0.129097,0.135232,-0.095892,15.430489,-23.333895,0,0
5691,2024 8 29,15:35:52.587,0.117003,0.696417,-0.164982,0.688543,-1.186801,0.025611,-0.207273,12.236359,11.667912,-26.199375,0,0
5692,2024 8 29,15:35:52.596,0.115221,0.695153,-0.165795,0.689925,-0.931863,-0.054192,0.247908,10.976438,-16.947918,-25.553322,0,0
5693,2024 8 29,15:35:52.604,0.112808,0.69548,-0.166532,0.689817,-1.035619,-0.044001,-0.043233,13.477861,14.285128,-24.14431,0,0
5694,2024 8 29,15:35:52.612,0.112336,0.695551,-0.166674,0.689789,-1.057492,-0.041576,-0.103341,13.982782,20.632284,-23.867493,0,0
5695,2024 8 29,15:35:52.621,0.110629,0.695369,-0.167092,0.690147,-1.03136,-0.031197,0.006247,13.789609,-3.259144,-21.620283,0,0
5696,2024 8 29,15:35:52.629,0.108905,0.694876,-0.167457,0.690828,-0.972729,-0.036839,0.080042,11.859999,-1.9067,-19.241798,0,0
5697,2024 8 29,15:35:52.637,0.107133,0.695019,-0.167895,0.690856,-1.051642,-0.041915,-0.012943,10.532505,4.67329,-17.542637,0,0
5698,2024 8 29,15:35:52.646,0.105657,0.694647,-0.168258,0.691369,-1.007379,-0.02804,0.051009,8.846114,-5.603212,-16.182392,0,0
5699,2024 8 29,15:35:52.654,0.104312,0.69433,-0.16866,0.691793,-0.987868,-0.027443,0.017116,7.796515,-1.136936,-15.443201,0,0
5700,2024 8 29,15:35:52.662,0.103971,0.69425,-0.168762,0.6919,-0.983068,-0.027369,0.007932,7.533569,0.083258,-15.258923,0,0
5701,2024 8 29,15:35:52.671,0.102988,0.694132,-0.169185,0.692062,-0.977286,-0.019918,-0.042822,5.74332,-0.36863,-15.125085,0,0
