frame,date,time,quaternion_x,quaternion_y,quaternion_z,quaternion_w,accel_x,accel_y,accel_z,gyro_x,gyro_y,gyro_z,HS,TO
4782,2024 8 29,15:35:45.013,-0.633417,0.335035,0.697503,-0.005037,-2.653319,-5.253813,2.384253,-70.060059,-51.43364,40.211273,0,0
4783,2024 8 29,15:35:45.021,-0.632847,0.336404,0.697375,0.001524,-5.427986,-3.590757,-0.604378,-68.469864,22.453972,-20.614933,0,0
4784,2024 8 29,15:35:45.029,-0.627593,0.326179,0.706363,0.026679,-2.323928,-3.79632,2.975008,-8.928741,111.113892,-316.140381,0,0
4785,2024 8 29,15:35:45.038,-0.649709,0.316058,0.687363,0.0721,0.451532,4.33482,-1.119469,-122.206779,489.249756,-325.28775,0,0
4786,2024 8 29,15:35:45.046,-0.654104,0.30266,0.686916,0.09264,-0.916579,2.265489,-1.318841,-136.032806,8.710114,-300.088226,0,0
4787,2024 8 29,15:35:45.054,-0.645733,0.288472,0.698136,0.11093,-2.665474,-0.299981,1.935952,-21.238922,-31.797298,-302.361511,0,0
4788,2024 8 29,15:35:45.063,-0.644738,0.286785,0.69947,0.113104,-2.873334,-0.604893,2.32279,-7.595436,-36.611687,-302.631714,0,0
4789,2024 8 29,15:35:45.071,-0.658028,0.26751,0.691714,0.129676,-1.212716,-0.399408,-0.099882,67.639656,293.416443,-256.226593,0,0
4790,2024 8 29,15:35:45.079,-0.668348,0.250072,0.685884,0.14213,-1.087935,-0.806773,-0.833377,47.48819,133.403381,-185.527512,0,0
4791,2024 8 29,15:35:45.088,-0.672193,0.239506,0.683927,0.151555,-1.772437,-0.135141,0.679804,13.747631,112.852409,-129.110611,0,0
4792,2024 8 29,15:35:45.096,-0.683713,0.228405,0.674911,0.157378,-1.051109,-0.199982,-0.482495,68.63765,204.723511,-75.390099,0,0
4793,2024 8 29,15:35:45.104,-0.691802,0.219469,0.669465,0.158114,-1.113549,-0.273481,-0.211236,74.670792,100.056229,-37.390434,0,0
4794,2024 8 29,15:35:45.113,-0.693339,0.217771,0.668429,0.158254,-1.125418,-0.287453,-0.15967,75.81768,80.159142,-30.166758,0,0
4795,2024 8 29,15:35:45.121,-0.697837,0.212973,0.665368,0.157904,-1.151593,-0.121806,0.187595,54.896111,91.654701,-20.034346,0,0
4796,2024 8 29,15:35:45.129,-0.703894,0.208303,0.660359,0.158245,-0.901134,-0.030372,-0.141173,41.480751,94.226341,-14.626759,0,0
4797,2024 8 29,15:35:45.138,-0.707675,0.204777,0.657466,0.158061,-0.98992,-0.026559,0.080147,33.415726,51.999599,-10.485174,0,0
4798,2024 8 29,15:35:45.146,-0.710691,0.202082,0.655051,0.158044,-0.906786,-0.042282,0.103344,22.877235,47.988617,-8.327088,0,0
4799,2024 8 29,15:35:45.154,-0.712406,0.200514,0.653563,0.158498,-0.916608,-0.004175,0.014939,7.856754,20.834784,-8.67179,0,0
4800,2024 8 29,15:35:45.163,-0.712836,0.200121,0.65319,0.158612,-0.919071,0.005378,-0.007222,4.091341,14.027717,-8.758202,0,0
4801,2024 8 29,15:35:45.171,-0.71258,0.199853,0.653414,0.159181,-1.051908,0.025984,0.063422,-2.306546,-0.134633,-9.313698,0,0
4802,2024 8 29,15:35:45.179,-0.712357,0.199743,0.653434,0.160231,-1.024793,0.020994,-0.030969,-8.809891,1.410177,-10.428427,0,0
4803,2024 8 29,15:35:45.188,-0.711545,0.200124,0.653862,0.16161,-1.084547,0.042153,-0.025967,-16.511757,-9.042185,-11.041452,0,0
4804,2024 8 29,15:35:45.196,-0.710652,0.200757,0.654228,0.163262,-1.128385,0.063974,-0.046125,-19.830414,-4.537976,-11.431135,0,0
4805,2024 8 29,15:35:45.204,-0.710153,0.201318,0.654138,0.165089,-1.129109,0.075823,-0.105578,-20.003922,1.869349,-11.630627,0,0
4806,2024 8 29,15:35:45.213,-0.710001,0.201676,0.653715,0.166973,-1.141045,0.116235,-0.063661,-17.587708,9.123839,-12.486064,0,0
4807,2024 8 29,15:35:45.221,-0.709953,0.201788,0.653584,0.167558,-1.144755,0.128796,-0.050631,-16.83667,11.378773,-12.751963,0,0
4808,2024 8 29,15:35:45.229,-0.710574,0.201487,0.65264,0.168958,-1.121727,0.131163,-0.080505,-10.544956,21.871105,-13.81816,0,0
4809,2024 8 29,15:35:45.238,-0.711381,0.200924,0.651616,0.170182,-1.099723,0.130357,-0.068439,-4.842652,29.003967,-15.061115,0,0
4810,2024 8 29,15:35:45.246,-0.712973,0.199487,0.6499,0.17176,-1.078049,0.128956,-0.020908,1.626073,34.886051,-18.027197,0,0
4811,2024 8 29,15:35:45.254,-0.714903,0.19741,0.64795,0.173488,-1.088316,0.126498,-0.044076,5.310435,41.04137,-23.489689,0,0
4812,2024 8 29,15:35:45.263,-0.717142,0.194732,0.645723,0.17556,-1.095879,0.082788,-0.037518,7.946773,48.057236,-29.483557,0,0
4813,2024 8 29,15:35:45.271,-0.718838,0.192647,0.644042,0.177109,-1.062847,0.022681,0.035972,9.820137,53.861813,-32.1646,0,0
4814,2024 8 29,15:35:45.279,-0.719735,0.191551,0.64312,0.177988,-0.994193,0.016621,0.066522,8.696196,52.854679,-32.390602,0,0
4815,2024 8 29,15:35:45.288,-0.721738,0.188816,0.641042,0.180283,-0.915229,0.042395,0.107125,5.530397,42.478333,-32.426041,0,0
4816,2024 8 29,15:35:45.296,-0.723096,0.186201,0.639701,0.182315,-1.017882,0.062296,0.083103,7.577233,29.273117,-30.826984,0,0
4817,2024 8 29,15:35:45.304,-0.724562,0.183351,0.638434,0.183817,-1.008166,0.001196,0.052199,14.946059,32.659492,-27.277515,0,0
4818,2024 8 29,15:35:45.313,-0.726105,0.180429,0.637158,0.185047,-1.006761,0.027962,0.010042,16.805073,30.096291,-25.817791,0,0
4819,2024 8 29,15:35:45.321,-0.727032,0.178313,0.636496,0.185741,-1.07779,0.019506,0.013144,18.717531,25.657652,-25.870018,0,0
4820,2024 8 29,15:35:45.329,-0.727602,0.177135,0.63606,0.186127,-1.096319,0.011315,-0.016378,18.923264,27.279091,-25.723572,0,0
4821,2024 8 29,15:35:45.338,-0.728967,0.174349,0.634995,0.187044,-1.110587,-0.013868,-0.054362,19.493727,31.30592,-25.632181,0,0
4822,2024 8 29,15:35:45.346,-0.730438,0.17132,0.633802,0.188141,-1.083441,-0.017527,-0.000542,18.999302,31.273998,-26.598627,0,0
4823,2024 8 29,15:35:45.354,-0.73181,0.168348,0.632615,0.189483,-1.03842,0.016258,0.038099,14.109016,29.152519,-28.756886,0,0
4824,2024 8 29,15:35:45.363,-0.732665,0.165549,0.631882,0.191085,-1.032691,0.001538,0.093705,9.716732,19.683037,-32.308773,0,0
4825,2024 8 29,15:35:45.371,-0.732985,0.163599,0.631606,0.192454,-1.04387,-0.018102,0.155946,5.819567,13.324293,-35.459808,0,0
4826,2024 8 29,15:35:45.379,-0.732901,0.162627,0.631632,0.193509,-1.068269,-0.003582,0.160052,2.399233,9.071868,-38.472355,0,0
4827,2024 8 29,15:35:45.388,-0.732194,0.160725,0.632092,0.196242,-1.139467,0.036073,0.150957,-4.463273,-0.406462,-46.750462,0,0
4828,2024 8 29,15:35:45.396,-0.730729,0.15852,0.633159,0.200003,-1.243893,0.032057,0.120851,-9.516623,-9.133327,-57.763302,0,0
4829,2024 8 29,15:35:45.404,-0.728635,0.156099,0.63459,0.204924,-1.391125,0.00464,0.018668,-18.385242,-13.088003,-71.259003,0,0
4830,2024 8 29,15:35:45.413,-0.72606,0.153619,0.635953,0.211562,-1.511648,0.003573,-0.0306,-33.279873,-10.480947,-87.902107,0,0
4831,2024 8 29,15:35:45.421,-0.724025,0.151664,0.636718,0.217597,-1.578228,0.029063,-0.064855,-45.04686,-3.959704,-101.494499,0,0
4832,2024 8 29,15:35:45.429,-0.722715,0.150413,0.637067,0.221739,-1.666459,0.038904,-0.091237,-50.253193,-2.035918,-109.78595,0,0
4833,2024 8 29,15:35:45.438,-0.720024,0.147603,0.637465,0.230945,-1.864178,0.067386,-0.108011,-57.185497,2.774042,-127.854568,0,0
4834,2024 8 29,15:35:45.446,-0.717157,0.143241,0.637221,0.242859,-1.977989,0.147525,-0.033674,-59.558205,19.654242,-151.555832,0,0
4835,2024 8 29,15:35:45.454,-0.714899,0.136576,0.63589,0.256354,-2.018607,0.28119,0.118801,-49.524948,42.605419,-175.632996,0,0
4836,2024 8 29,15:35:45.463,-0.712992,0.126955,0.634068,0.270593,-2.14167,0.430612,0.273261,-29.095427,56.268356,-203.006638,0,0
4837,2024 8 29,15:35:45.471,-0.711476,0.117805,0.632644,0.281953,-2.328743,0.513102,0.236302,-12.056383,63.184109,-228.664124,0,0
4838,2024 8 29,15:35:45.479,-0.71049,0.111069,0.631685,0.289211,-2.470613,0.53124,0.158653,-1.788249,70.564079,-246.333557,0,0
4839,2024 8 29,15:35:45.488,-0.708452,0.095976,0.629657,0.304002,-2.793992,0.515154,-0.082493,18.186081,90.146576,-284.297211,0,0
4840,2024 8 29,15:35:45.496,-0.705441,0.075051,0.62638,0.323039,-3.347602,0.649585,-0.390755,21.549137,107.852577,-337.95285,0,0
4841,2024 8 29,15:35:45.504,-0.701705,0.049998,0.62112,0.34537,-4.146813,0.746724,-0.658411,17.708557,146.100937,-401.940674,0,0
4842,2024 8 29,15:35:45.513,-0.697293,0.020003,0.612395,0.371841,-5.06617,0.656468,-0.77486,16.713242,197.459991,-477.30542,0,0
4843,2024 8 29,15:35:45.521,-0.692211,-0.015746,0.598504,0.402762,-5.059219,0.360416,-0.894275,4.205025,269.699158,-559.605408,0,0
4844,2024 8 29,15:35:45.529,-0.691893,-0.017981,0.597636,0.404694,-5.058785,0.34191,-0.901739,3.423175,274.2146,-564.749695,0,0
4845,2024 8 29,15:35:45.538,-0.685365,-0.055211,0.580361,0.436041,-4.592903,0.074984,-0.959935,-1.567884,289.797882,-610.133118,0,0
4846,2024 8 29,15:35:45.546,-0.674323,-0.094322,0.559421,0.472237,-4.610374,1.151241,-0.801521,-44.528023,280.300812,-653.435242,0,0
4847,2024 8 29,15:35:45.554,-0.659425,-0.133555,0.537275,0.508061,-4.558014,1.257601,-0.947102,-27.674088,270.493744,-668.545959,0,0
4848,2024 8 29,15:35:45.563,-0.643825,-0.172988,0.512003,0.541117,-3.563322,1.362053,-1.697251,-30.406342,285.70639,-649.084229,0,0
4849,2024 8 29,15:35:45.571,-0.624159,-0.205753,0.489328,0.572763,-2.780153,1.799518,-1.222929,-47.15226,179.589508,-609.43573,0,0
4850,2024 8 29,15:35:45.579,-0.621351,-0.21043,0.486092,0.57728,-2.668363,1.861962,-1.155223,-49.542599,164.44223,-603.776245,0,0
4851,2024 8 29,15:35:45.588,-0.60214,-0.230371,0.470318,0.602334,-0.233051,2.400035,-3.210478,-92.67691,99.346069,-532.539429,0,0
4852,2024 8 29,15:35:45.596,-0.593861,-0.244067,0.449458,0.620851,2.661403,3.344491,-2.288443,-101.560455,163.894257,-255.29361,0,0
4853,2024 8 29,15:35:45.604,-0.593957,-0.239105,0.445705,0.625556,-0.251925,2.864366,0.047066,-128.995651,-78.628265,59.389313,0,0
4854,2024 8 29,15:35:45.613,-0.607268,-0.225532,0.448654,0.615578,-1.264816,2.693787,-0.796942,-23.44545,17.906372,271.270264,0,0
4855,2024 8 29,15:35:45.621,-0.625316,-0.213556,0.453321,0.59802,-1.296605,2.083746,-1.438569,6.001358,3.864333,325.709259,0,0
4856,2024 8 29,15:35:45.629,-0.629113,-0.211038,0.454303,0.594327,-1.303292,1.955439,-1.573519,12.194765,0.910938,337.159149,0,0
4857,2024 8 29,15:35:45.638,-0.640086,-0.19921,0.462267,0.580293,-1.295784,1.369863,-0.910152,12.671979,-36.604122,302.259583,0,0
4858,2024 8 29,15:35:45.646,-0.652895,-0.187687,0.4684,0.56469,-0.255473,1.208629,-1.595912,6.224109,-15.096001,285.161926,0,0
4859,2024 8 29,15:35:45.654,-0.663918,-0.171641,0.477538,0.54901,-0.201048,1.27568,-1.065739,-6.359982,-96.884575,306.7258,0,0
4860,2024 8 29,15:35:45.663,-0.674699,-0.151489,0.48884,0.531459,-0.478893,1.345023,-0.80904,-8.422236,-118.797775,346.018555,0,0
4861,2024 8 29,15:35:45.671,-0.686383,-0.128763,0.500802,0.51081,-0.645145,1.382908,-0.801617,-6.554772,-133.590637,390.618622,0,0
4862,2024 8 29,15:35:45.679,-0.698093,-0.103639,0.51382,0.487,-1.021494,1.242633,-0.581715,0.44777,-146.913193,427.218933,0,0
4863,2024 8 29,15:35:45.688,-0.701335,-0.096683,0.517424,0.480408,-1.125682,1.203799,-0.520838,2.386347,-150.601395,437.351349,0,0
4864,2024 8 29,15:35:45.696,-0.710693,-0.076017,0.527113,0.459086,-1.173263,1.063704,-0.504834,5.384291,-140.11734,449.121277,0,0
4865,2024 8 29,15:35:45.704,-0.720984,-0.051434,0.537943,0.432811,-1.175715,0.910643,-0.466562,7.96054,-141.063248,453.893555,0,0
4866,2024 8 29,15:35:45.713,-0.730151,-0.025619,0.548927,0.404829,-1.274317,0.791687,-0.432549,9.031898,-149.098877,450.05661,0,0
4867,2024 8 29,15:35:45.721,-0.737375,0.000491,0.559835,0.376499,-1.375786,0.704449,-0.414714,8.038927,-161.031952,439.301117,0,0
4868,2024 8 29,15:35:45.729,-0.742421,0.026713,0.570682,0.348213,-1.467324,0.647567,-0.383497,6.331301,-174.569092,429.577332,0,0
4869,2024 8 29,15:35:45.738,-0.744064,0.035249,0.574213,0.339005,-1.497123,0.62905,-0.373335,5.775412,-178.975876,426.411896,0,0
4870,2024 8 29,15:35:45.746,-0.7455,0.047882,0.579381,0.325391,-1.547443,0.608593,-0.354025,5.156991,-186.098526,424.470703,0,0
4871,2024 8 29,15:35:45.754,-0.746781,0.074419,0.590123,0.296812,-1.655666,0.58893,-0.319425,3.600791,-203.015518,425.531006,0,0
4872,2024 8 29,15:35:45.763,-0.745815,0.101956,0.601229,0.267178,-1.805611,0.600527,-0.295721,1.269178,-226.386871,431.44809,0,0
4873,2024 8 29,15:35:45.771,-0.742097,0.130331,0.612979,0.236622,-2.084497,0.597181,-0.244171,-0.516481,-256.638824,435.409241,0,0
4874,2024 8 29,15:35:45.779,-0.73533,0.158991,0.625419,0.205507,-2.443984,0.56665,-0.164592,-1.679647,-286.027527,431.271454,0,0
4875,2024 8 29,15:35:45.788,-0.728977,0.179229,0.634585,0.183333,-2.731369,0.540273,-0.085158,-1.53996,-305.695587,423.345367,0,0
4876,2024 8 29,15:35:45.796,-0.725001,0.188814,0.639143,0.172549,-2.897154,0.521077,-0.03643,-0.980488,-312.152008,417.57196,0,0
4877,2024 8 29,15:35:45.804,-0.713409,0.21376,0.651156,0.14382,-3.37086,0.441821,0.131154,3.01797,-322.931396,403.225342,0,0
4878,2024 8 29,15:35:45.813,-0.700119,0.238685,0.662816,0.113236,-3.845385,0.165999,0.377126,14.590927,-316.04599,394.884308,0,0
4879,2024 8 29,15:35:45.821,-0.687179,0.261763,0.672155,0.082273,-4.118248,-0.552299,0.515628,31.105949,-289.078461,392.447266,0,0
4880,2024 8 29,15:35:45.829,-0.67512,0.282871,0.67887,0.051622,-4.192777,-1.638095,0.462923,42.719738,-260.181152,387.717804,0,0
4881,2024 8 29,15:35:45.838,-0.666536,0.29747,0.682712,0.029579,-4.159253,-2.545089,0.50149,46.328045,-241.255875,377.901611,0,0
4882,2024 8 29,15:35:45.846,-0.662118,0.304127,0.684436,0.019122,-4.050622,-2.996835,0.629131,45.915474,-234.956802,362.782806,0,0
4883,2024 8 29,15:35:45.854,-0.651677,0.317435,0.688594,-0.003081,-3.636591,-3.961284,1.1021,43.247253,-228.679321,309.230865,0,0
4884,2024 8 29,15:35:45.863,-0.639701,0.327489,0.69471,-0.023627,-3.10701,-4.887199,1.840459,45.439095,-234.617737,230.961609,0,0
4885,2024 8 29,15:35:45.871,-0.627246,0.332001,0.703124,-0.040692,-2.959862,-5.74736,2.635106,56.819901,-243.311951,149.130173,0,0
4886,2024 8 29,15:35:45.879,-0.615922,0.330839,0.712781,-0.05389,-3.384696,-6.179053,3.047676,70.189789,-223.968674,72.763985,0,0
4887,2024 8 29,15:35:45.888,-0.609087,0.327249,0.719748,-0.061486,-3.827865,-6.213015,3.132519,81.893135,-171.703613,19.297626,0,0
4888,2024 8 29,15:35:45.896,-0.608626,0.32426,0.721351,-0.063529,-3.765836,-6.184083,3.038836,86.026222,-107.701828,-3.843258,0,0
4889,2024 8 29,15:35:45.904,-0.610503,0.315777,0.723736,-0.060314,-3.275221,-6.414378,4.395177,22.83543,-33.284409,-111.04454,0,0
4890,2024 8 29,15:35:45.913,-0.612541,0.302994,0.728528,-0.03729,-2.983147,-5.04009,5.009361,-199.406021,-5.638962,-338.310577,0,0
4891,2024 8 29,15:35:45.921,-0.623578,0.28532,0.726931,0.003115,-2.704484,-0.328419,-1.796414,-275.590637,278.836792,-423.356384,1,0
4892,2024 8 29,15:35:45.929,-0.637657,0.264677,0.721729,0.035177,-1.921642,-0.001042,-1.754141,-70.777008,254.983475,-369.807495,0,0
4893,2024 8 29,15:35:45.938,-0.64296,0.250067,0.721054,0.058943,-2.022262,-0.070138,0.259453,-49.035614,112.939957,-367.552368,0,0
4894,2024 8 29,15:35:45.946,-0.646573,0.240786,0.72014,0.070058,-2.067567,-0.079729,1.115485,-28.028036,114.270668,-354.93985,0,0
4895,2024 8 29,15:35:45.954,-0.656613,0.22221,0.715114,0.086272,-1.815349,-0.296891,1.176757,14.445269,219.77478,-300.884827,0,0
4896,2024 8 29,15:35:45.963,-0.670217,0.204646,0.705819,0.100737,-1.28154,-0.644953,-0.326323,26.540775,226.30455,-216.137146,0,0
4897,2024 8 29,15:35:45.971,-0.678439,0.192257,0.700057,0.110826,-1.58431,-0.177422,-0.018458,33.026478,137.481339,-142.600555,0,0
4898,2024 8 29,15:35:45.979,-0.688056,0.180689,0.693189,0.114359,-1.41992,-0.130333,0.016665,86.64856,168.451218,-81.941086,0,0
4899,2024 8 29,15:35:45.988,-0.697918,0.171266,0.68582,0.113983,-0.912503,-0.436579,-0.429256,116.91906,188.625961,-40.403538,0,0
4900,2024 8 29,15:35:45.996,-0.702841,0.166562,0.682142,0.113796,-0.659185,-0.589466,-0.651874,132.031052,198.69783,-19.666676,0,0
4901,2024 8 29,15:35:46.004,-0.708947,0.160096,0.677643,0.112073,-0.826178,-0.227511,0.122942,58.288704,67.941681,-18.412083,0,0
4902,2024 8 29,15:35:46.013,-0.712284,0.156505,0.674945,0.112273,-1.174779,0.026563,-0.139904,26.235294,57.112411,-18.838865,0,0
4903,2024 8 29,15:35:46.021,-0.716606,0.15318,0.671169,0.111984,-1.059876,-0.068428,0.120024,35.919701,73.615784,-8.381874,0,0
4904,2024 8 29,15:35:46.029,-0.721044,0.150337,0.667107,0.11162,-0.856288,-0.078285,0.015966,27.550476,66.677269,-5.489238,0,0
4905,2024 8 29,15:35:46.038,-0.723335,0.148797,0.664901,0.112032,-1.007832,0.018189,-0.047824,6.998323,31.251282,-8.600153,0,0
4906,2024 8 29,15:35:46.046,-0.72354,0.148659,0.664703,0.112069,-1.021395,0.026824,-0.053534,5.158854,28.080568,-8.878588,0,0
4907,2024 8 29,15:35:46.054,-0.724651,0.147905,0.663521,0.112889,-1.111942,0.088008,0.118146,-0.037167,26.192566,-10.683752,0,0
4908,2024 8 29,15:35:46.063,-0.726114,0.147063,0.661833,0.114488,-1.00111,0.071359,-0.024837,-7.74879,27.935532,-17.364605,0,0
4909,2024 8 29,15:35:46.071,-0.726274,0.146586,0.6613,0.117132,-1.111005,0.168739,-0.014021,-19.198635,7.199476,-27.688225,0,0
4910,2024 8 29,15:35:46.079,-0.726501,0.145577,0.660717,0.120227,-1.226727,0.118627,-0.148109,-13.554019,18.794918,-34.559437,0,0
4911,2024 8 29,15:35:46.088,-0.727766,0.143876,0.659089,0.123506,-1.187606,0.067037,-0.190246,-9.892938,36.22245,-36.884953,0,0
4912,2024 8 29,15:35:46.096,-0.729448,0.141889,0.656979,0.127071,-1.183942,0.096178,-0.14231,-10.890518,42.310463,-40.876301,0,0
4913,2024 8 29,15:35:46.104,-0.729745,0.141538,0.656605,0.127701,-1.183294,0.10133,-0.133834,-11.066893,43.386833,-41.581982,0,0
4914,2024 8 29,15:35:46.113,-0.731875,0.139172,0.654168,0.130566,-1.106355,0.08709,-0.041387,0.110251,56.846497,-41.227192,0,0
4915,2024 8 29,15:35:46.121,-0.734798,0.135931,0.65106,0.133058,-0.924472,-0.019234,0.042008,10.266676,58.463638,-36.828526,0,0
4916,2024 8 29,15:35:46.129,-0.736964,0.132905,0.648799,0.135173,-0.883368,0.07925,0.137675,10.019458,38.490128,-34.15197,0,0
4917,2024 8 29,15:35:46.138,-0.738062,0.12968,0.647912,0.136566,-1.025365,0.026299,0.079608,19.14613,20.19276,-34.032719,0,0
4918,2024 8 29,15:35:46.146,-0.739015,0.126219,0.64723,0.13789,-1.043535,-0.005834,0.067388,20.96386,22.18861,-35.531296,0,0
4919,2024 8 29,15:35:46.154,-0.739242,0.125391,0.647066,0.138207,-1.047884,-0.013523,0.064464,21.398874,22.666252,-35.889935,0,0
4920,2024 8 29,15:35:46.163,-0.739776,0.122623,0.646719,0.139449,-1.008929,-0.050063,-0.008042,19.97422,14.489429,-37.331726,0,0
4921,2024 8 29,15:35:46.171,-0.739393,0.119763,0.647291,0.141294,-1.222949,-0.073388,-0.05383,10.745323,-1.246757,-41.488785,0,0
4922,2024 8 29,15:35:46.179,-0.738856,0.117079,0.647709,0.144393,-1.250917,-0.053226,0.036692,-2.276687,5.985664,-50.69268,0,0
4923,2024 8 29,15:35:46.188,-0.738508,0.114424,0.647527,0.149022,-1.198838,0.015959,0.027603,-19.341702,9.068018,-64.053192,0,0
4924,2024 8 29,15:35:46.196,-0.737287,0.112108,0.647881,0.155134,-1.304935,0.035648,0.147653,-29.222078,-1.819903,-76.056747,0,0
4925,2024 8 29,15:35:46.204,-0.73693,0.111429,0.647985,0.156925,-1.336023,0.041418,0.182828,-32.117111,-5.010156,-79.573891,0,0
4926,2024 8 29,15:35:46.213,-0.735717,0.109519,0.648127,0.163203,-1.333979,0.072011,0.196108,-39.447933,2.165202,-90.489243,0,0
4927,2024 8 29,15:35:46.221,-0.734231,0.106846,0.648088,0.171542,-1.379781,0.100378,0.10602,-45.695026,3.679467,-103.48317,0,0
4928,2024 8 29,15:35:46.229,-0.732098,0.103525,0.648395,0.181196,-1.550388,0.111996,0.122047,-46.487411,-0.061994,-118.752075,0,0
4929,2024 8 29,15:35:46.238,-0.729912,0.099112,0.648392,0.192089,-1.733541,0.114473,0.039713,-47.920029,9.664971,-137.28746,0,0
4930,2024 8 29,15:35:46.246,-0.728265,0.094997,0.648086,0.201351,-1.895791,0.133395,-0.025836,-48.157108,18.372618,-153.625534,0,0
4931,2024 8 29,15:35:46.254,-0.726925,0.090419,0.647363,0.210523,-2.065527,0.175441,-0.084581,-47.032433,27.602856,-170.608612,0,0
4932,2024 8 29,15:35:46.263,-0.726381,0.08788,0.646805,0.215009,-2.107499,0.176702,-0.102598,-46.571854,33.428707,-179.671982,0,0
4933,2024 8 29,15:35:46.271,-0.72496,0.078925,0.644477,0.229672,-2.203851,0.201732,-0.181841,-41.494125,56.049767,-207.519196,0,0
4934,2024 8 29,15:35:46.279,-0.724493,0.066798,0.64046,0.245594,-2.358387,0.320269,-0.11466,-22.452648,88.375923,-233.364899,0,0
4935,2024 8 29,15:35:46.288,-0.724901,0.050917,0.634766,0.262264,-2.794888,0.559033,0.195667,0.93951,119.861687,-267.785156,0,0
4936,2024 8 29,15:35:46.296,-0.725318,0.030871,0.627349,0.281199,-3.271559,0.806916,-0.068569,7.57185,144.564072,-324.494934,0,0
4937,2024 8 29,15:35:46.304,-0.725013,0.013744,0.621415,0.296474,-3.737912,0.846346,-0.27052,17.750584,157.356644,-370.742737,0,0
4938,2024 8 29,15:35:46.313,-0.724466,0.004485,0.618043,0.304676,-4.019675,0.800961,-0.370766,19.653852,167.118393,-395.375183,0,0
4939,2024 8 29,15:35:46.321,-0.722441,-0.022578,0.607365,0.328622,-4.798397,0.625392,-0.596395,19.146784,203.624832,-464.285095,0,0
4940,2024 8 29,15:35:46.329,-0.719509,-0.056084,0.59164,0.357889,-5.367969,0.384146,-0.707685,13.497173,258.334015,-534.805176,0,0
4941,2024 8 29,15:35:46.338,-0.715375,-0.093677,0.57111,0.389829,-5.315388,0.224566,-0.832803,7.214075,299.947418,-587.241943,0,0
4942,2024 8 29,15:35:46.346,-0.708777,-0.132467,0.5469,0.423566,-5.017601,0.640333,-1.133067,-13.622086,311.31839,-623.910889,0,0
4943,2024 8 29,15:35:46.354,-0.702164,-0.161868,0.52647,0.45035,-4.928313,1.14095,-1.39474,-27.654396,307.281952,-651.936584,0,0
4944,2024 8 29,15:35:46.363,-0.697611,-0.17579,0.516436,0.463544,-4.832315,1.257758,-1.511764,-31.21398,296.51886,-654.157837,0,1
4945,2024 8 29,15:35:46.371,-0.685421,-0.206245,0.493021,0.493205,-4.237173,1.533536,-1.785916,-39.122246,268.716736,-631.658386,0,0
4946,2024 8 29,15:35:46.379,-0.672202,-0.235798,0.466757,0.522779,-2.098434,2.256049,-2.317755,-66.762726,251.792465,-560.569885,0,0
4947,2024 8 29,15:35:46.388,-0.662555,-0.259081,0.441021,0.546223,1.133052,2.493049,-2.826966,-98.897484,226.018967,-414.876526,0,0
4948,2024 8 29,15:35:46.396,-0.661047,-0.269344,0.42057,0.559525,1.37503,2.045212,-1.830183,-114.525101,138.117676,-171.974442,0,0
4949,2024 8 29,15:35:46.404,-0.662277,-0.26363,0.413525,0.566313,-0.550349,2.95145,-0.390126,-185.958389,-64.855072,36.056,0,0
4950,2024 8 29,15:35:46.413,-0.665802,-0.25869,0.412042,0.565554,-1.147685,3.062963,-0.257007,-175.193817,-76.071503,127.317062,0,0
4951,2024 8 29,15:35:46.421,-0.678891,-0.246511,0.412335,0.554952,-1.577749,2.620946,-0.805866,-91.338364,23.98996,257.612549,0,0
4952,2024 8 29,15:35:46.429,-0.696772,-0.236046,0.412482,0.536773,-1.439939,1.929832,-1.046905,-38.252197,75.197571,310.614594,0,0
4953,2024 8 29,15:35:46.438,-0.714811,-0.227765,0.412478,0.516168,-0.652081,1.442556,-1.29679,-14.268391,101.035576,311.547699,0,0
4954,2024 8 29,15:35:46.446,-0.731269,-0.219567,0.413749,0.495204,0.055088,1.198704,-1.541221,-6.604679,62.289963,313.876892,0,0
4955,2024 8 29,15:35:46.454,-0.742471,-0.21074,0.417771,0.47895,0.069756,1.156968,-1.169506,-7.275048,-13.73381,324.297852,0,0
4956,2024 8 29,15:35:46.463,-0.748075,-0.204913,0.42114,0.469786,-0.004104,1.159417,-1.082342,-5.708686,-43.150146,332.963806,0,0
4957,2024 8 29,15:35:46.471,-0.757239,-0.191664,0.430366,0.451714,-0.310599,1.195274,-1.045902,1.784936,-77.931679,354.332397,0,0
4958,2024 8 29,15:35:46.479,-0.766494,-0.174993,0.443341,0.429452,-0.685886,1.168623,-0.823969,14.528616,-112.055298,376.524994,0,0
4959,2024 8 29,15:35:46.488,-0.775165,-0.15723,0.458037,0.404329,-0.944891,1.058621,-0.668148,31.274647,-121.724541,393.356567,0,0
4960,2024 8 29,15:35:46.496,-0.785195,-0.135609,0.476335,0.371675,-1.064317,0.928565,-0.596699,50.879257,-124.775162,408.905914,0,0
4961,2024 8 29,15:35:46.504,-0.791912,-0.117908,0.491908,0.341983,-1.077273,0.789438,-0.553109,62.687958,-130.382599,418.528778,0,0
4962,2024 8 29,15:35:46.513,-0.792108,-0.117391,0.492363,0.341116,-1.077652,0.785373,-0.551835,63.032925,-130.546417,418.809875,0,0
4963,2024 8 29,15:35:46.521,-0.797232,-0.100232,0.507156,0.311571,-1.08088,0.627846,-0.700408,66.087341,-139.040054,425.817902,0,0
4964,2024 8 29,15:35:46.529,-0.800504,-0.081247,0.523293,0.28039,-1.146096,0.449576,-0.73771,60.512207,-164.776138,429.678558,0,0
4965,2024 8 29,15:35:46.538,-0.801277,-0.060357,0.540391,0.249221,-1.326544,0.360343,-0.801384,45.92802,-194.413757,434.132568,0,0
4966,2024 8 29,15:35:46.546,-0.799706,-0.037383,0.557961,0.218001,-1.588521,0.322267,-0.752702,29.482491,-216.400177,442.07782,0,0
4967,2024 8 29,15:35:46.554,-0.796234,-0.01273,0.575079,0.186701,-1.863614,0.224799,-0.726613,13.953613,-226.23909,448.115814,0,0
4968,2024 8 29,15:35:46.563,-0.790922,0.01327,0.591328,0.155806,-1.977262,0.149847,-0.688767,-2.598841,-233.266556,448.916321,0,0
4969,2024 8 29,15:35:46.571,-0.790243,0.016594,0.593405,0.151857,-1.99179,0.140266,-0.683929,-4.714748,-234.164871,449.018646,0,0
4970,2024 8 29,15:35:46.579,-0.783355,0.040589,0.60719,0.125473,-2.055336,0.156672,-0.663436,-19.76878,-249.770447,446.659485,0,0
4971,2024 8 29,15:35:46.588,-0.772871,0.068213,0.623083,0.096679,-2.306361,0.14615,-0.652987,-33.407658,-279.212463,441.212799,0,0
4972,2024 8 29,15:35:46.596,-0.758868,0.096607,0.640006,0.068151,-2.702349,-0.023329,-0.69662,-43.121735,-311.286041,433.094849,0,0
4973,2024 8 29,15:35:46.604,-0.741459,0.124792,0.65759,0.040388,-3.195834,-0.442189,-0.588312,-49.182137,-339.382538,421.773621,0,0
4974,2024 8 29,15:35:46.613,-0.721368,0.15199,0.675038,0.013731,-3.652722,-1.135419,-0.484908,-52.364273,-355.41803,406.724854,0,0
4975,2024 8 29,15:35:46.621,-0.717396,0.157367,0.678487,0.008461,-3.743044,-1.272464,-0.464466,-52.993347,-358.588074,403.749878,0,0
4976,2024 8 29,15:35:46.629,-0.698766,0.17842,0.692315,-0.012374,-4.142026,-1.900915,-0.221082,-52.031403,-360.531311,387.068573,0,0
4977,2024 8 29,15:35:46.638,-0.675777,0.200487,0.708128,-0.0328,-10.690275,-4.050238,0.533788,-86.294182,-381.921234,322.028015,0,0
4978,2024 8 29,15:35:46.646,-0.655017,0.208954,0.724377,-0.046061,-5.616371,-2.98507,0.87858,-23.56485,-230.270187,200.763245,0,0
4979,2024 8 29,15:35:46.654,-0.643187,0.209093,0.733857,-0.061442,-3.762192,-3.999849,2.981354,142.424026,-221.459106,131.265106,0,0
4980,2024 8 29,15:35:46.663,-0.63016,0.199686,0.74618,-0.07706,-3.375145,-5.138005,3.511643,162.35498,-257.41922,18.653709,0,0
4981,2024 8 29,15:35:46.671,-0.62681,0.197267,0.74935,-0.081076,-3.275602,-5.430725,3.648027,167.480988,-266.667725,-10.30858,0,0
4982,2024 8 29,15:35:46.679,-0.621843,0.177206,0.757734,-0.086702,-3.401653,-7.553896,3.81012,204.429291,-183.958862,-161.719116,0,0
4983,2024 8 29,15:35:46.688,-0.622138,0.143557,0.765198,-0.078984,-3.333997,-9.612083,3.568596,164.777618,-85.327507,-376.53418,0,0
4984,2024 8 29,15:35:46.696,-0.629233,0.101206,0.767814,-0.0558,-4.048391,-6.503024,2.571125,97.769547,57.182152,-520.069458,1,0
4985,2024 8 29,15:35:46.704,-0.649559,0.068386,0.755492,-0.037553,-3.887341,-1.237768,2.222583,133.97113,311.830414,-349.72052,0,0
4986,2024 8 29,15:35:46.713,-0.674401,0.047341,0.735726,-0.022576,-1.498283,-1.422902,1.391284,13.842926,330.933899,-269.278198,0,0
4987,2024 8 29,15:35:46.721,-0.682064,0.273318,0.533848,0.41834,-0.761329,-1.48001,1.134852,-23.213108,336.826782,-244.464081,0,0
4988,2024 8 29,15:35:46.729,-0.688431,0.034475,0.724271,-0.007174,-0.890619,-0.342547,0.258322,-52.579571,131.268311,-171.330719,0,0
4989,2024 8 29,15:35:46.738,-0.689574,0.028859,0.723549,0.000408,-1.235348,-0.035324,-0.316848,-3.550224,26.159386,-110.713356,0,0
4990,2024 8 29,15:35:46.746,-0.690666,0.023751,0.722758,0.004447,-1.449245,0.109118,-0.556312,37.012482,-1.305456,-81.069382,0,0
4991,2024 8 29,15:35:46.754,-0.694734,0.015206,0.719046,0.005393,-1.31773,-0.163075,-0.383873,70.182579,94.877731,-79.973862,0,0
4992,2024 8 29,15:35:46.763,-0.703687,0.007361,0.710419,0.006314,-0.788026,-0.644727,-0.465471,43.37653,150.702362,-64.064743,0,0
4993,2024 8 29,15:35:46.771,-0.708779,0.003759,0.705378,0.007278,-1.073204,-0.173988,-1.058506,35.934742,76.382225,-36.425873,0,0
4994,2024 8 29,15:35:46.779,-0.70927,0.002488,0.704897,0.00681,-1.278272,-0.097338,-0.674043,40.234257,60.922573,-29.325483,0,0
4995,2024 8 29,15:35:46.788,-0.712324,-0.001618,0.7018,0.004199,-1.584561,-0.012301,0.312955,59.944946,73.955063,-10.238218,0,0
4996,2024 8 29,15:35:46.796,-0.721393,-0.006202,0.692451,-0.000392,-0.996277,-0.119781,-0.126573,77.916954,167.170776,3.669241,0,0
4997,2024 8 29,15:35:46.804,-0.728506,-0.010211,0.684919,-0.005172,-0.904693,-0.090756,-0.289114,73.329384,98.408516,8.938633,0,0
4998,2024 8 29,15:35:46.813,-0.731873,-0.013849,0.681211,-0.009643,-1.245796,-0.072456,0.231735,68.29393,59.795685,8.821159,0,0
4999,2024 8 29,15:35:46.821,-0.735445,-0.01652,0.677253,-0.012844,-1.164361,0.012781,0.132167,64.211685,93.966812,5.440971,0,0
5000,2024 8 29,15:35:46.829,-0.737309,-0.017684,0.675162,-0.014067,-1.068334,0.009783,0.058524,60.234901,98.281525,3.133429,0,0
5001,2024 8 29,15:35:46.838,-0.741905,-0.020603,0.669965,-0.016709,-0.845791,-0.004375,-0.039526,47.546787,84.320602,-3.53718,0,0
5002,2024 8 29,15:35:46.846,-0.744748,-0.023433,0.666668,-0.018483,-0.892535,0.054527,0.129396,38.086555,43.259624,-9.446788,0,0
5003,2024 8 29,15:35:46.854,-0.746357,-0.026489,0.664714,-0.019891,-0.998895,0.037184,0.088413,38.04015,26.805767,-14.000377,0,0
5004,2024 8 29,15:35:46.862,-0.74737,-0.029786,0.663405,-0.020919,-1.050066,0.027057,-0.018189,36.643967,16.526772,-18.462582,0,0
5005,2024 8 29,15:35:46.871,-0.747707,-0.032423,0.66289,-0.021345,-1.086122,0.032681,2.6e-05,32.240959,6.033027,-23.7876,0,0
5006,2024 8 29,15:35:46.879,-0.747747,-0.033694,0.662781,-0.021376,-1.11038,0.039743,-0.003812,29.992538,2.646333,-25.948109,0,0
5007,2024 8 29,15:35:46.887,-0.74764,-0.036589,0.662758,-0.02103,-1.18371,0.045023,0.00306,24.65126,-1.021653,-30.33824,0,0
5008,2024 8 29,15:35:46.896,-0.747587,-0.039643,0.662674,-0.019965,-1.253857,0.024427,0.062579,17.823523,0.552376,-36.078476,0,0
5009,2024 8 29,15:35:46.904,-0.747835,-0.042644,0.662265,-0.017888,-1.246755,0.021192,0.0213,8.656129,5.546876,-44.071594,0,0
5010,2024 8 29,15:35:46.912,-0.748363,-0.045607,0.661542,-0.014945,-1.238372,-0.047846,-0.004227,0.987818,10.419847,-51.400284,0,0
5011,2024 8 29,15:35:46.921,-0.749068,-0.047887,0.660644,-0.012023,-1.233337,-0.034646,-0.023622,-5.042845,17.436264,-56.033447,0,0
5012,2024 8 29,15:35:46.929,-0.749554,0.380886,0.407897,-0.354756,-1.219481,-0.03011,-0.01327,-7.451546,20.865963,-58.152409,0,0
5013,2024 8 29,15:35:46.937,-0.750865,-0.051384,0.658406,-0.006708,-1.171971,-0.02743,0.031515,-10.009991,26.994335,-61.719257,0,0
5014,2024 8 29,15:35:46.946,-0.752577,-0.054129,0.656252,-0.002264,-1.132061,-0.030649,0.042685,-10.619658,31.095634,-64.850632,0,0
5015,2024 8 29,15:35:46.954,-0.754426,-0.057035,0.653873,0.002564,-1.109691,-0.032358,0.05815,-12.774294,33.098938,-67.892967,0,0
5016,2024 8 29,15:35:46.962,-0.756438,-0.060077,0.651227,0.007612,-1.073366,-0.033613,0.093071,-13.188587,36.50042,-70.624985,0,0
5017,2024 8 29,15:35:46.971,-0.758143,-0.062654,0.648942,0.011851,-1.048718,-0.033999,0.094532,-13.102132,36.997818,-72.904106,0,0
5018,2024 8 29,15:35:46.979,-0.759008,-0.064079,0.64775,0.014157,-1.044211,-0.037488,0.097324,-12.88058,36.442772,-73.937134,0,0
5019,2024 8 29,15:35:46.987,-0.760525,-0.066861,0.645566,0.018558,-1.047503,-0.051108,0.102476,-12.323502,34.778217,-75.512215,0,0
5020,2024 8 29,15:35:46.996,-0.762661,-0.070852,0.642426,0.024818,-1.030991,-0.071052,0.095786,-12.268723,35.996128,-77.852768,0,0
5021,2024 8 29,15:35:47.004,-0.764497,-0.074465,0.639589,0.030408,-1.051205,-0.092166,0.063437,-11.971487,35.061218,-79.244423,0,0
5022,2024 8 29,15:35:47.012,-0.766256,-0.078047,0.636746,0.036234,-1.002741,-0.103488,0.115769,-14.76454,35.852402,-81.558937,0,0
5023,2024 8 29,15:35:47.021,-0.768073,-0.081624,0.63372,0.042378,-1.010299,-0.101679,0.066107,-17.297104,36.001392,-84.702599,0,0
5024,2024 8 29,15:35:47.029,-0.769471,-0.085188,0.631066,0.049055,-1.124255,-0.114237,0.093974,-21.231874,28.661072,-89.973099,0,0
5025,2024 8 29,15:35:47.037,-0.769573,-0.085447,0.630874,0.04954,-1.132535,-0.11515,0.095999,-21.51779,28.127697,-90.356071,0,0
5026,2024 8 29,15:35:47.046,-0.770834,-0.088823,0.628296,0.056236,-1.171404,-0.074009,0.12117,-23.735098,32.301994,-96.034988,0,0
5027,2024 8 29,15:35:47.054,-0.772366,-0.092937,0.625094,0.063716,-1.202953,-0.016747,0.197561,-20.880219,35.744755,-103.300316,0,0
5028,2024 8 29,15:35:47.062,-0.773733,-0.097846,0.621801,0.071491,-1.261439,-0.031942,0.228802,-14.863684,35.178642,-112.105705,0,0
5029,2024 8 29,15:35:47.071,-0.775079,-0.103657,0.618192,0.079536,-1.301974,0.013527,0.23653,-7.916269,39.300812,-121.4506,0,0
5030,2024 8 29,15:35:47.079,-0.776201,-0.110652,0.614424,0.08788,-1.472554,0.033906,0.237605,-0.646033,38.272308,-135.048218,0,0
5031,2024 8 29,15:35:47.087,-0.776371,-0.11171,0.613854,0.089142,-1.498352,0.036988,0.237768,0.453532,38.116756,-137.104752,0,0
5032,2024 8 29,15:35:47.096,-0.777103,-0.119011,0.610332,0.097024,-1.641608,0.011369,0.218103,7.163078,42.461636,-152.710831,0,0
5033,2024 8 29,15:35:47.104,-0.778189,-0.128492,0.605316,0.107001,-1.686828,0.034642,0.097349,8.334275,54.713985,-175.103455,0,0
5034,2024 8 29,15:35:47.112,-0.779188,-0.139528,0.599377,0.118583,-1.828943,0.062032,0.11832,9.626987,59.970901,-200.961624,0,0
5035,2024 8 29,15:35:47.121,-0.779929,-0.152022,0.592491,0.132043,-2.160864,0.121424,0.068437,9.013239,67.272911,-231.746307,0,0
5036,2024 8 29,15:35:47.129,-0.780623,-0.166412,0.583974,0.147432,-2.588616,0.132209,-0.011943,10.170775,84.916412,-267.912018,0,0
5037,2024 8 29,15:35:47.137,-0.780774,-0.169542,0.582121,0.15078,-2.681671,0.134555,-0.029429,10.42259,88.754646,-275.779663,0,0
5038,2024 8 29,15:35:47.146,-0.781594,-0.183495,0.572546,0.165708,-3.179066,0.075377,-0.235541,8.764616,113.456818,-312.756897,0,0
5039,2024 8 29,15:35:47.154,-0.782614,-0.201735,0.558672,0.185356,-3.866921,0.106734,-0.206842,5.487446,143.945877,-360.944061,0,0
5040,2024 8 29,15:35:47.162,-0.784267,-0.223154,0.539829,0.20775,-4.370901,-0.129957,-0.213496,3.638588,200.107697,-410.990753,0,0
5041,2024 8 29,15:35:47.171,-0.786798,-0.247755,0.515165,0.231029,-4.440777,-0.396671,-0.474109,8.074957,262.932861,-447.47467,0,0
5042,2024 8 29,15:35:47.179,-0.789358,-0.273677,0.485816,0.254884,-4.115036,-0.261089,-0.718584,1.359678,304.649048,-472.015411,0,0
5043,2024 8 29,15:35:47.187,-0.790061,-0.280785,0.477767,0.261426,-4.025705,-0.223907,-0.785628,-0.481904,316.089203,-478.745392,0,0
5044,2024 8 29,15:35:47.196,-0.791238,-0.301212,0.450934,0.281291,-3.298685,0.241474,-0.834896,-15.550467,325.049927,-495.282959,0,0
5045,2024 8 29,15:35:47.204,-0.789583,-0.323781,0.420216,0.306602,-3.194391,0.562513,-0.960179,-22.407637,270.709381,-510.053894,0,1
5046,2024 8 29,15:35:47.212,-0.784889,-0.345192,0.390256,0.333451,-2.776055,0.831561,-0.948615,-25.344902,242.615936,-500.901459,0,0
5047,2024 8 29,15:35:47.221,-0.778921,-0.365277,0.361031,0.358058,-2.146366,1.044988,-1.465978,-22.841311,219.719543,-466.131348,0,0
5048,2024 8 29,15:35:47.229,-0.772723,-0.38055,0.334165,0.381112,-0.022776,1.435725,-2.064367,-57.379684,187.271423,-403.275696,0,0
5049,2024 8 29,15:35:47.237,-0.77072,-0.385487,0.32548,0.388564,0.663719,1.56204,-2.257809,-68.544937,176.781891,-382.956268,0,0
5050,2024 8 29,15:35:47.246,-0.76909,-0.390168,0.315695,0.395551,1.335296,1.253342,-2.103682,-70.312248,163.209824,-334.776184,0,0
5051,2024 8 29,15:35:47.254,-0.767464,-0.394829,0.298504,0.40738,1.824545,0.529475,-1.04956,-78.148262,83.90522,-167.577164,0,0
5052,2024 8 29,15:35:47.262,-0.770032,-0.386386,0.296279,0.412204,0.228372,1.653979,-0.142285,-118.423431,-63.977364,49.847595,0,0
5053,2024 8 29,15:35:47.271,-0.778486,-0.374763,0.302711,0.402139,-0.608325,1.747575,-0.271288,-61.788338,-22.051464,236.07428,0,0
5054,2024 8 29,15:35:47.279,-0.790053,-0.364901,0.312007,0.380873,-1.251675,1.166687,-0.223699,-9.285011,7.921198,334.784515,0,0
5055,2024 8 29,15:35:47.287,-0.799239,-0.358352,0.319738,0.361235,-1.278255,0.85328,-0.150117,21.970255,44.863174,358.674164,0,0
5056,2024 8 29,15:35:47.296,-0.802602,-0.356558,0.322012,0.3533,-1.104203,0.791367,-0.331077,27.480515,51.574776,356.02066,0,0
5057,2024 8 29,15:35:47.304,-0.812289,-0.351377,0.329299,0.328679,-0.568137,0.631294,-0.826151,36.652157,47.623276,335.007477,0,0
5058,2024 8 29,15:35:47.312,-0.819792,-0.34536,0.339372,0.305358,-0.493395,0.435999,-0.680617,38.05109,-1.309746,307.37442,0,0
5059,2024 8 29,15:35:47.321,-0.825334,-0.338806,0.350724,0.284224,-0.418247,0.345709,-0.709972,35.714478,-28.857403,287.107391,0,0
5060,2024 8 29,15:35:47.329,-0.829117,-0.331131,0.36408,0.264767,-0.471806,0.397307,-0.573858,31.674421,-68.310745,281.366547,0,0
5061,2024 8 29,15:35:47.337,-0.831296,-0.324285,0.375869,0.24977,-0.60222,0.451688,-0.479148,30.75918,-88.895432,286.825775,0,0
5062,2024 8 29,15:35:47.346,-0.83204,-0.3211,0.381207,0.243148,-0.652864,0.46739,-0.446446,31.00848,-94.615723,292.090942,0,0
5063,2024 8 29,15:35:47.354,-0.833621,-0.312088,0.39593,0.224939,-0.761591,0.487385,-0.374218,32.968464,-103.178131,310.843719,0,0
5064,2024 8 29,15:35:47.362,-0.834901,-0.301278,0.412819,0.203263,-0.811467,0.482231,-0.316756,35.82967,-107.488998,332.280762,0,0
5065,2024 8 29,15:35:47.371,-0.835464,-0.289382,0.430589,0.179785,-0.816493,0.484805,-0.290832,37.669243,-116.092758,350.324036,0,0
5066,2024 8 29,15:35:47.379,-0.834764,-0.276554,0.449356,0.15543,-0.877028,0.482625,-0.234834,39.262825,-132.32428,361.730255,0,0
5067,2024 8 29,15:35:47.387,-0.833252,-0.265736,0.465119,0.135543,-0.975492,0.473081,-0.198018,40.565372,-147.221039,366.260925,0,0
5068,2024 8 29,15:35:47.396,-0.832152,-0.260629,0.472555,0.126363,-1.028257,0.457532,-0.183558,41.179787,-153.039185,366.971283,0,0
5069,2024 8 29,15:35:47.404,-0.828592,-0.24872,0.489791,0.105495,-1.150621,0.399826,-0.161246,42.102497,-162.947662,365.139709,0,0
5070,2024 8 29,15:35:47.412,-0.823419,-0.235068,0.509172,0.082218,-1.257682,0.337374,-0.148724,41.295918,-170.509155,360.540039,0,0
5071,2024 8 29,15:35:47.421,-0.816852,-0.220814,0.528913,0.058755,-1.386029,0.299587,-0.121675,39.291672,-177.833038,355.878387,0,0
5072,2024 8 29,15:35:47.429,-0.809141,-0.206176,0.548346,0.035445,-1.54362,0.294594,-0.083734,37.472088,-180.361588,353.387085,0,0
5073,2024 8 29,15:35:47.437,-0.802187,-0.193934,0.563964,0.016286,-1.694873,0.297973,-0.033005,36.907967,-180.098145,352.737915,0,0
5074,2024 8 29,15:35:47.446,-0.79858,-0.187842,0.571431,0.006771,-1.752341,0.294906,-0.016832,37.167454,-178.316986,352.648773,0,0
5075,2024 8 29,15:35:47.454,-0.790734,-0.175366,0.585832,-0.012696,-1.819622,0.273958,-0.025717,38.975639,-172.362518,352.861084,0,0
5076,2024 8 29,15:35:47.462,-0.781045,-0.161089,0.601637,-0.03509,-1.880604,0.232654,-0.094027,41.416416,-171.639053,352.377869,0,0
5077,2024 8 29,15:35:47.471,-0.76981,-0.146455,0.617744,-0.058221,-2.003322,0.169155,-0.144565,44.689945,-178.428925,350.338074,0,0
5078,2024 8 29,15:35:47.479,-0.757021,-0.132044,0.633905,-0.081364,-2.156943,0.059438,-0.201673,49.267891,-189.019577,346.760742,0,0
5079,2024 8 29,15:35:47.487,-0.742627,-0.118121,0.650072,-0.104253,-2.321654,-0.180944,-0.277509,53.811123,-201.144012,342.50415,0,0
5080,2024 8 29,15:35:47.496,-0.723035,-0.101098,0.670327,-0.132781,-2.50357,-0.665914,-0.441679,58.726131,-213.858047,337.273224,0,0
5081,2024 8 29,15:35:47.504,-0.722838,-0.100927,0.67053,-0.133067,-2.505398,-0.670786,-0.443328,58.775509,-213.985779,337.220673,0,0
5082,2024 8 29,15:35:47.512,-0.705679,-0.088483,0.685893,-0.15391,-2.531166,-1.30878,-0.585535,53.983593,-225.270676,328.918854,0,0
5083,2024 8 29,15:35:47.521,-0.686328,-0.07629,0.702144,-0.173359,-2.698826,-2.038959,-0.643454,42.970093,-248.864029,315.343384,0,0
5084,2024 8 29,15:35:47.529,-0.665585,-0.064634,0.718648,-0.190449,-2.971951,-2.700439,-0.4959,28.757549,-261.071686,298.890778,0,0
5085,2024 8 29,15:35:47.537,-0.645545,-0.053525,0.733656,-0.205072,-2.89285,-3.122619,-0.140658,17.042236,-240.480026,273.860352,0,0
5086,2024 8 29,15:35:47.546,-0.627449,-0.044008,0.746522,-0.216761,-2.211522,-3.345752,0.367056,8.301789,-220.112473,228.850067,0,0
5087,2024 8 29,15:35:47.554,-0.625656,-0.043065,0.747796,-0.21792,-2.144012,-3.367861,0.417363,7.435736,-218.094345,224.390198,0,0
5088,2024 8 29,15:35:47.562,-0.609176,-0.038328,0.759473,-0.224869,-1.619865,-3.37333,1.212774,6.912208,-250.630966,166.246582,0,0
5089,2024 8 29,15:35:47.571,-0.588755,-0.038527,0.773804,-0.230208,-1.941005,-3.340835,2.118849,27.268541,-303.63678,104.887115,0,0
5090,2024 8 29,15:35:47.579,-0.568328,-0.043429,0.787009,-0.235796,-2.66958,-3.345463,2.622132,67.745499,-289.469666,69.054924,0,0
5091,2024 8 29,15:35:47.587,-0.555927,-0.049359,0.792933,-0.244307,-2.848691,-3.797131,2.762541,118.966141,-136.649597,58.729973,0,0
5092,2024 8 29,15:35:47.596,-0.556368,-0.054357,0.789121,-0.254446,-2.091341,-4.224799,1.681005,139.432053,36.886444,30.398148,0,0
5093,2024 8 29,15:35:47.604,-0.556445,-0.055224,0.78846,-0.256205,-1.959994,-4.298969,1.493435,142.981445,66.982727,25.484571,0,0
5094,2024 8 29,15:35:47.612,-0.561424,-0.061038,0.782728,-0.261502,-1.440481,-3.894139,1.057503,117.700012,65.737518,-26.12179,0,0
5095,2024 8 29,15:35:47.621,-0.56141,-0.077267,0.786162,-0.246288,-1.188627,-2.425557,4.982125,-106.542252,-171.620468,-339.185333,0,0
5096,2024 8 29,15:35:47.629,-0.58182,-0.089338,0.779357,-0.213549,-2.480317,1.136991,-1.581625,-243.921204,221.058121,-410.117981,1,0
5097,2024 8 29,15:35:47.637,-0.609351,-0.102529,0.761546,-0.193971,-1.650596,0.406605,-2.194804,-101.421005,326.916626,-343.186035,0,0
5098,2024 8 29,15:35:47.646,-0.62745,-0.115326,0.749674,-0.174744,-1.911914,-0.369794,0.787136,-37.74979,163.421799,-293.065338,0,0
5099,2024 8 29,15:35:47.654,-0.631729,-0.118352,0.746868,-0.170198,-1.9737,-0.553365,1.492183,-22.695431,124.765244,-281.214874,0,0
5100,2024 8 29,15:35:47.662,-0.64758,-0.127545,0.733296,-0.162521,-1.749592,-0.008763,1.160953,8.250923,276.76535,-222.637421,0,0
5101,2024 8 29,15:35:47.671,-0.667425,-0.136204,0.713999,-0.160706,-1.152814,-0.650235,-1.387539,56.511143,271.334106,-150.337982,0,0
5102,2024 8 29,15:35:47.679,-0.676052,-0.144217,0.704375,-0.160685,-1.597504,-0.166507,0.474275,70.996391,115.651596,-84.775116,0,0
5103,2024 8 29,15:35:47.687,-0.685385,-0.150766,0.692894,-0.165072,-1.147905,-0.216751,-0.022321,98.027046,178.591217,-48.666119,0,0
5104,2024 8 29,15:35:47.696,-0.693778,-0.155584,0.682401,-0.169273,-0.793912,-0.139566,-0.277528,68.463211,129.767181,-37.361317,0,0
5105,2024 8 29,15:35:47.704,-0.696216,-0.156984,0.679353,-0.170493,-0.69107,-0.117142,-0.351672,59.87426,115.582703,-34.077019,0,0
5106,2024 8 29,15:35:47.712,-0.6989,-0.159925,0.675487,-0.172188,-1.000067,-0.104718,0.110343,50.363735,72.246742,-26.404039,0,0
5107,2024 8 29,15:35:47.721,-0.702748,-0.162267,0.670336,-0.174439,-0.978076,-0.019366,-0.10864,38.750603,80.538086,-18.100451,0,0
5108,2024 8 29,15:35:47.729,-0.705922,-0.164139,0.666003,-0.176475,-1.020836,-0.003027,-0.057482,31.187937,57.444321,-12.772249,0,0
5109,2024 8 29,15:35:47.737,-0.708398,-0.165781,0.662492,-0.178246,-1.047964,-0.062169,0.11354,30.741335,49.792957,-9.671309,0,0
5110,2024 8 29,15:35:47.746,-0.710241,-0.166825,0.659965,-0.17936,-1.027295,-0.062631,0.135508,27.786898,45.144966,-8.885176,0,0
5111,2024 8 29,15:35:47.754,-0.712272,0.254634,0.648412,0.085954,-0.915099,0.032166,-0.070729,18.792158,42.311146,-11.348539,0,0
5112,2024 8 29,15:35:47.762,-0.712565,-0.167864,0.656963,-0.180202,-0.94981,0.052748,-0.038721,15.780684,36.201004,-11.948819,0,0
5113,2024 8 29,15:35:47.771,-0.713584,-0.168977,0.655514,-0.1804,-1.08167,0.078962,0.077271,8.264471,17.12924,-13.376699,0,0
5114,2024 8 29,15:35:47.779,-0.714618,-0.170112,0.654058,-0.180526,-1.096608,-0.018095,0.036228,12.582104,19.317858,-12.948361,0,0
5115,2024 8 29,15:35:47.787,-0.715727,-0.171154,0.652647,-0.180254,-1.070368,0.033135,-0.027581,8.408451,15.754871,-15.844903,0,0
5116,2024 8 29,15:35:47.796,-0.716401,-0.172388,0.651738,-0.179689,-1.123321,0.051183,-0.007225,5.99472,9.017677,-18.054728,0,0
5117,2024 8 29,15:35:47.804,-0.717095,-0.173361,0.650836,-0.179256,-1.085445,0.030914,-0.01424,6.091177,16.120216,-18.606209,0,0
5118,2024 8 29,15:35:47.812,-0.717385,-0.173741,0.650449,-0.179134,-1.065962,0.027386,-0.020075,6.97614,16.416054,-18.570702,0,0
5119,2024 8 29,15:35:47.821,-0.718221,-0.175015,0.64928,-0.178781,-1.01869,0.035725,-0.017229,10.425754,12.913998,-18.456724,0,0
5120,2024 8 29,15:35:47.829,-0.718677,-0.176677,0.648437,-0.178371,-1.033251,0.069395,0.043287,13.13413,5.458518,-19.513897,0,0
5121,2024 8 29,15:35:47.837,-0.718841,-0.178727,0.647799,-0.177985,-1.040284,0.041842,0.032844,15.73887,0.812733,-21.792959,0,0
5122,2024 8 29,15:35:47.846,-0.718796,-0.181067,0.647413,-0.177202,-1.044913,0.06288,0.077621,14.23737,-4.520595,-26.327599,0,0
5123,2024 8 29,15:35:47.854,-0.718674,-0.183168,0.647199,-0.176321,-1.023896,0.103083,0.14436,14.3235,-7.247784,-30.529921,0,0
5124,2024 8 29,15:35:47.862,-0.718588,-0.184142,0.647102,-0.176011,-1.029219,0.089804,0.131104,16.162153,-7.937646,-31.281448,0,0
5125,2024 8 29,15:35:47.871,-0.718281,-0.186913,0.646856,-0.175241,-1.068613,0.017432,0.04236,21.55162,-8.96941,-31.984339,0,0
5126,2024 8 29,15:35:47.879,-0.717942,-0.190021,0.646638,-0.174084,-1.097383,0.004206,0.034555,17.591528,-9.328353,-34.818058,0,0
5127,2024 8 29,15:35:47.887,-0.717844,-0.193023,0.646278,-0.17251,-1.081424,-0.006843,0.041393,12.36009,-6.149771,-37.649506,0,0
5128,2024 8 29,15:35:47.896,-0.718051,-0.195862,0.645685,-0.170663,-1.038985,-0.040063,-0.000541,9.133911,-2.503599,-39.399887,0,0
5129,2024 8 29,15:35:47.904,-0.718471,-0.198395,0.644995,-0.168562,-1.000332,-0.028399,0.092816,5.093321,0.000864,-39.154705,0,0
5130,2024 8 29,15:35:47.912,-0.718928,-0.200339,0.644344,-0.166801,-0.986342,-0.030877,0.060907,3.714535,1.494524,-38.18066,0,0
5131,2024 8 29,15:35:47.921,-0.719142,-0.201185,0.64405,-0.166002,-0.989241,-0.03534,0.046947,2.834328,1.93512,-37.732845,0,0
5132,2024 8 29,15:35:47.929,-0.719673,-0.202915,0.643362,-0.164247,-1.007208,-0.048595,0.022904,0.8224,3.221528,-36.623249,0,0
5133,2024 8 29,15:35:47.937,-0.720431,-0.204713,0.642443,-0.162277,-1.004216,-0.048181,0.018983,0.476887,6.343575,-35.142765,0,0
5134,2024 8 29,15:35:47.946,-0.72122,-0.206511,0.641469,-0.160334,-1.036405,-0.051088,0.02815,0.643004,6.278463,-34.184658,0,0
5135,2024 8 29,15:35:47.954,-0.722141,-0.20826,0.640329,-0.158467,-1.04552,-0.062774,0.018771,0.582871,10.155299,-33.485409,0,0
5136,2024 8 29,15:35:47.962,-0.723081,-0.209661,0.639186,-0.156945,-1.043782,-0.05787,0.005483,-0.156151,13.21315,-33.080101,0,0
5137,2024 8 29,15:35:47.971,-0.723547,-0.210332,0.638623,-0.156198,-1.04141,-0.058795,0.009651,-0.419439,14.00321,-32.955879,0,0
5138,2024 8 29,15:35:47.979,-0.724502,-0.211608,0.637479,-0.154708,-1.037229,-0.067694,0.035547,-0.857365,13.883904,-32.889591,0,0
5139,2024 8 29,15:35:47.987,-0.725651,-0.213011,0.636127,-0.152946,-1.053094,-0.071714,0.026561,-1.970404,14.155733,-32.952301,0,0
5140,2024 8 29,15:35:47.996,-0.727164,-0.214836,0.634376,-0.150484,-1.096824,-0.077104,0.007005,-3.466081,13.252434,-33.927124,0,0
5141,2024 8 29,15:35:48.004,-0.728521,-0.216249,0.632838,-0.148354,-1.126712,-0.066675,0.041598,-4.728474,16.69663,-35.423183,0,0
5142,2024 8 29,15:35:48.012,-0.730073,-0.217715,0.631076,-0.146071,-1.198641,-0.059862,-0.021725,-5.344907,18.713161,-38.738552,0,0
5143,2024 8 29,15:35:48.021,-0.730135,-0.217774,0.631005,-0.14598,-1.201526,-0.059588,-0.024264,-5.369626,18.794025,-38.871498,0,0
5144,2024 8 29,15:35:48.029,-0.731708,-0.219331,0.629231,-0.143406,-1.277901,-0.066378,0.006899,-7.695981,19.932629,-44.719666,0,0
5145,2024 8 29,15:35:48.037,-0.733815,-0.221098,0.626868,-0.140236,-1.301546,-0.015934,0.05508,-9.812421,27.046625,-52.274109,0,0
5146,2024 8 29,15:35:48.046,-0.736271,-0.223308,0.623972,-0.136723,-1.28242,0.001938,0.13258,-7.681087,31.16276,-61.045433,0,0
5147,2024 8 29,15:35:48.054,-0.738836,-0.226154,0.620751,-0.132807,-1.329939,0.013216,0.079068,-4.710956,31.619234,-70.07988,0,0
5148,2024 8 29,15:35:48.062,-0.741326,-0.229774,0.617384,-0.128332,-1.449609,0.041786,0.173429,-2.086868,29.802618,-82.074043,0,0
5149,2024 8 29,15:35:48.071,-0.741635,-0.230223,0.616966,-0.127777,-1.464453,0.04533,0.185134,-1.761366,29.577278,-83.561844,0,0
5150,2024 8 29,15:35:48.079,-0.744121,-0.234262,0.613362,-0.123218,-1.455702,0.061567,0.161859,1.547719,36.282993,-96.51265,0,0
5151,2024 8 29,15:35:48.087,-0.747024,-0.239729,0.608818,-0.117501,-1.530826,0.057037,0.094229,6.076037,36.974659,-112.642181,0,0
5152,2024 8 29,15:35:48.096,-0.749973,-0.246316,0.603818,-0.110644,-1.654529,0.072025,0.111971,8.26471,38.194023,-131.454636,0,0
5153,2024 8 29,15:35:48.104,-0.75337,-0.254004,0.597762,-0.102722,-1.80819,0.042812,-0.063422,9.734739,47.544918,-153.027283,0,0
5154,2024 8 29,15:35:48.112,-0.757411,-0.262597,0.59042,-0.093332,-1.939891,-0.000185,-0.207346,5.202223,60.188965,-177.862244,0,0
5155,2024 8 29,15:35:48.121,-0.758197,-0.264268,0.588992,-0.091506,-1.965506,-0.008548,-0.235337,4.320709,62.648064,-182.692307,0,0
5156,2024 8 29,15:35:48.129,-0.762718,-0.272023,0.580914,-0.082068,-2.056254,-0.003393,-0.33726,-2.777662,83.284943,-204.817413,0,0
5157,2024 8 29,15:35:48.137,-0.768938,-0.28142,0.569685,-0.069717,-2.17714,0.056481,-0.343781,-10.758038,104.588737,-231.762482,0,0
5158,2024 8 29,15:35:48.146,-0.776246,-0.29177,0.555915,-0.055354,-2.374343,0.139523,-0.324802,-17.113419,125.755547,-262.056824,0,0
5159,2024 8 29,15:35:48.154,-0.784589,-0.303084,0.539181,-0.03938,-2.57276,0.160178,-0.326574,-19.481792,156.023254,-293.647888,0,0
5160,2024 8 29,15:35:48.162,-0.793748,-0.315516,0.519158,-0.02207,-2.810971,0.155816,-0.288584,-19.563818,185.824387,-326.038849,0,0
5161,2024 8 29,15:35:48.171,-0.796079,-0.318679,0.514063,-0.017666,-2.871582,0.154706,-0.278917,-19.584688,193.407089,-334.280518,0,0
5162,2024 8 29,15:35:48.179,-0.804024,-0.329742,0.494439,-0.002605,-3.046328,0.008726,-0.3333,-18.131599,220.997345,-359.525085,0,0
5163,2024 8 29,15:35:48.187,-0.813464,-0.343334,0.468548,0.015904,-3.222498,-0.270342,-0.334845,-17.866636,248.164597,-383.258606,0,0
5164,2024 8 29,15:35:48.196,-0.823071,-0.357726,0.438705,0.035872,-3.12017,-0.462368,-0.621063,-19.604113,273.319702,-404.298767,0,0
5165,2024 8 29,15:35:48.204,-0.83171,-0.371602,0.407325,0.057168,-2.989569,-0.220924,-0.51332,-30.936102,269.778229,-415.680328,0,1
5166,2024 8 29,15:35:48.212,-0.839522,-0.38413,0.374665,0.078639,-2.774019,0.03541,-0.617059,-41.30722,280.014954,-414.057861,0,0
5167,2024 8 29,15:35:48.221,-0.841913,-0.387965,0.364668,0.085211,-2.708041,0.113871,-0.648813,-44.481739,283.148346,-413.561249,0,0
5168,2024 8 29,15:35:48.229,-0.84673,-0.396102,0.339192,0.102301,-2.696875,0.2953,-0.650549,-54.948292,264.410553,-411.758392,0,0
5169,2024 8 29,15:35:48.237,-0.851488,-0.404635,0.308907,0.122076,-2.310941,0.480688,-1.11845,-57.094711,264.487793,-398.843781,0,0
5170,2024 8 29,15:35:48.246,-0.854347,-0.410388,0.287892,0.136234,-1.952456,0.595786,-1.337597,-58.767159,248.693298,-386.634521,0,0
5171,2024 8 29,15:35:48.254,-0.85667,-0.416626,0.260487,0.156498,-0.806473,0.814761,-1.494963,-70.381783,183.607208,-350.739471,0,0
5172,2024 8 29,15:35:48.262,-0.858894,-0.418324,0.238306,0.174375,1.49199,1.168358,-2.16186,-103.578911,137.810074,-265.322632,0,0
5173,2024 8 29,15:35:48.271,-0.86094,-0.41673,0.225702,0.184812,2.803646,0.65231,-1.847563,-98.041565,57.037369,-144.121735,0,0
5174,2024 8 29,15:35:48.279,-0.861525,-0.414814,0.225882,0.18617,2.243336,0.747477,-1.430988,-96.748268,22.626144,-98.736626,0,0
5175,2024 8 29,15:35:48.287,-0.863941,-0.406144,0.230824,0.187959,-0.206272,1.27135,-0.165361,-85.469101,-84.375137,65.908058,0,0
5176,2024 8 29,15:35:48.296,-0.866582,-0.397982,0.240113,0.181432,-0.677042,1.460423,-0.88181,-45.09396,-70.825165,146.669434,0,0
5177,2024 8 29,15:35:48.304,-0.867495,-0.392635,0.252763,0.171203,-1.028231,1.156842,-0.465375,9.720551,-86.366661,177.80629,0,0
5178,2024 8 29,15:35:48.312,-0.867226,-0.390641,0.264565,0.158824,-0.640691,0.76806,-0.810274,49.563465,-58.207481,177.47995,0,0
5179,2024 8 29,15:35:48.321,-0.866075,-0.390406,0.274461,0.148733,-0.20248,0.616557,-0.898922,66.502205,-80.11161,172.80629,0,0
5180,2024 8 29,15:35:48.329,-0.865324,-0.390382,0.278552,0.145468,-0.121865,0.581173,-0.900473,69.863091,-90.201714,171.786255,0,0
5181,2024 8 29,15:35:48.337,-0.862088,-0.39026,0.292928,0.136232,-0.060029,0.51453,-0.860588,73.539734,-129.073593,170.247131,0,0
5182,2024 8 29,15:35:48.346,-0.857156,-0.389237,0.311929,0.127544,-0.217953,0.489702,-0.802507,69.197678,-182.637589,171.873703,0,0
5183,2024 8 29,15:35:48.354,-0.850829,-0.386627,0.334612,0.119845,-0.479664,0.513114,-0.56825,60.387222,-223.628799,181.190765,0,0
5184,2024 8 29,15:35:48.362,-0.843897,-0.382336,0.358919,0.111775,-0.66172,0.53625,-0.375131,51.345284,-237.334167,197.702728,0,0
5185,2024 8 29,15:35:48.371,-0.836713,-0.376249,0.38394,0.102685,-0.754957,0.527039,-0.182983,40.196339,-241.431824,217.921616,0,0
5186,2024 8 29,15:35:48.379,-0.830695,-0.369833,0.405012,0.094252,-0.733911,0.525762,-0.113574,28.568348,-240.256546,235.850876,0,0
5187,2024 8 29,15:35:48.387,-0.828177,-0.366756,0.413728,0.090703,-0.747863,0.528631,-0.083624,23.05928,-242.955322,242.753082,0,0
5188,2024 8 29,15:35:48.396,-0.821558,-0.357443,0.436144,0.081484,-0.862472,0.538332,9.7e-05,7.211468,-256.5979,258.194,0,0
5189,2024 8 29,15:35:48.404,-0.813568,-0.344914,0.462089,0.070995,-1.075237,0.521685,0.094077,-11.0732,-265.250977,271.164612,0,0
5190,2024 8 29,15:35:48.412,-0.80518,-0.330042,0.488328,0.060221,-1.271384,0.481324,0.126833,-30.559261,-262.325989,279.35025,0,0
5191,2024 8 29,15:35:48.421,-0.796842,-0.313157,0.513619,0.049575,-1.425589,0.42285,0.153115,-51.56218,-251.749954,283.397797,0,0
5192,2024 8 29,15:35:48.429,-0.790004,-0.29748,0.534084,0.040691,-1.494402,0.362003,0.147606,-70.677155,-237.213943,285.733429,0,0
5193,2024 8 29,15:35:48.437,-0.787082,-0.290115,0.542816,0.036829,-1.493849,0.337289,0.133375,-79.623055,-230.929337,286.870026,0,0
5194,2024 8 29,15:35:48.446,-0.781004,-0.272494,0.56073,0.028797,-1.410617,0.297727,0.069182,-100.829964,-221.180756,289.995697,0,0
5195,2024 8 29,15:35:48.454,-0.773696,-0.250346,0.580996,0.020385,-1.367215,0.295394,0.011415,-126.451424,-225.443573,295.036163,0,0
5196,2024 8 29,15:35:48.462,-0.765123,-0.225253,0.602284,0.0128,-1.42263,0.354177,0.008328,-151.716354,-239.692917,299.999603,0,0
5197,2024 8 29,15:35:48.471,-0.755001,-0.198049,0.624186,0.006372,-1.588402,0.439201,0.064433,-172.579071,-257.771149,301.792236,0,0
5198,2024 8 29,15:35:48.479,-0.745091,-0.173572,0.643295,0.001628,-1.785177,0.513865,0.159037,-185.61615,-271.846893,300.409546,0,0
5199,2024 8 29,15:35:48.487,-0.740067,-0.161716,0.65235,-0.00045,-1.874561,0.53799,0.198458,-190.795242,-276.90567,299.202911,0,0
5200,2024 8 29,15:35:48.496,-0.72657,-0.131961,0.674273,-0.004794,-2.075326,0.55071,0.271958,-199.281754,-282.614075,294.042267,0,0
5201,2024 8 29,15:35:48.504,-0.71172,-0.102224,0.694911,-0.008104,-2.238363,0.455891,0.335886,-205.598663,-287.18335,288.165253,0,0
5202,2024 8 29,15:35:48.512,-0.6955,-0.072217,0.714765,-0.010482,-2.491693,0.329859,0.444789,-214.422684,-293.914795,282.987152,0,0
5203,2024 8 29,15:35:48.521,-0.678296,-0.042035,0.733425,-0.011867,-2.720748,0.157419,0.78507,-222.610855,-291.808594,276.209106,0,0
5204,2024 8 29,15:35:48.529,-0.660836,-0.012392,0.750249,-0.012312,-2.929344,-0.067674,1.213653,-223.959396,-281.983398,263.179596,0,0
5205,2024 8 29,15:35:48.537,-0.659642,-0.010365,0.7514,-0.012342,-2.943608,-0.083066,1.24296,-224.05162,-281.311523,262.288605,0,0
5206,2024 8 29,15:35:48.546,-0.643854,0.015513,0.764815,-0.012226,-3.112179,-0.280804,1.836102,-213.817734,-262.314758,247.403381,0,0
5207,2024 8 29,15:35:48.554,-0.629071,0.041146,0.776064,-0.012768,-2.954875,-0.475154,2.409168,-185.605789,-217.04216,234.470917,0,0
5208,2024 8 29,15:35:48.562,-0.61679,0.063685,0.784317,-0.015469,-2.611028,-0.624728,2.934588,-134.955429,-179.21228,222.792511,0,0
5209,2024 8 29,15:35:48.571,-0.606589,0.081114,0.790506,-0.02182,-2.445396,-0.904247,3.44264,-56.605377,-152.822998,200.614319,0,0
5210,2024 8 29,15:35:48.579,-0.599566,0.090992,0.794443,-0.032241,-2.198784,-1.368876,3.715685,40.975899,-110.952805,158.587769,0,0
5211,2024 8 29,15:35:48.587,-0.598529,0.092451,0.795024,-0.033779,-2.16237,-1.437481,3.756002,55.384399,-104.770409,152.382278,0,0
5212,2024 8 29,15:35:48.596,-0.596384,0.092585,0.795963,-0.046489,-1.753012,-1.869733,3.552994,140.25708,-65.347092,108.768608,0,0
5213,2024 8 29,15:35:48.604,-0.595977,0.086724,0.795745,-0.063262,-1.503851,-2.399409,3.085639,211.246414,-41.635689,69.018105,0,0
5214,2024 8 29,15:35:48.612,-0.596737,0.076152,0.794625,-0.080976,-1.713564,-2.961237,2.572868,244.463501,-24.846092,31.63728,0,0
5215,2024 8 29,15:35:48.621,-0.599459,0.062913,0.79206,-0.095911,-1.729338,-3.178734,2.092975,230.603912,12.288937,-11.707275,0,0
5216,2024 8 29,15:35:48.629,-0.60446,0.049588,0.78794,-0.105839,-2.963529,-2.841717,0.2959,181.533997,45.663754,-45.250717,0,0
5217,2024 8 29,15:35:48.637,-0.605533,0.04673,0.787056,-0.107969,-3.22826,-2.769428,-0.089568,171.008621,52.822571,-52.445702,0,0
5218,2024 8 29,15:35:48.646,-0.60501,0.036878,0.789798,-0.093358,-3.47835,-0.975411,0.689836,-35.980133,30.231279,-208.100311,1,0
5219,2024 8 29,15:35:48.654,-0.629399,0.03283,0.772513,-0.074573,-0.880955,0.80824,-2.07969,-61.134834,384.127777,-177.982956,0,0
5220,2024 8 29,15:35:48.662,-0.640987,0.488834,0.456147,0.376965,-1.262722,1.094522,0.392716,-131.33374,95.570709,-190.999893,0,0
5221,2024 8 29,15:35:48.671,-0.653067,0.019131,0.755539,-0.045348,-1.241224,-0.108217,-0.397729,-16.692558,224.208298,-168.896576,0,0
5222,2024 8 29,15:35:48.679,-0.66571,0.008083,0.744946,-0.03992,-1.546778,-0.306613,0.424535,75.553543,186.131287,-129.413498,0,0
5223,2024 8 29,15:35:48.687,-0.669144,0.005083,0.742068,-0.038445,-1.629772,-0.360501,0.647877,100.609222,175.788895,-118.689194,0,0
5224,2024 8 29,15:35:48.696,-0.679784,-0.002953,0.732276,-0.039004,-1.042433,-0.177602,0.566735,88.973633,189.821442,-82.337204,0,0
5225,2024 8 29,15:35:48.704,-0.690269,-0.010973,0.722194,-0.041017,-0.972487,0.018648,0.397489,82.667534,164.850647,-59.202686,0,0
5226,2024 8 29,15:35:48.712,-0.698986,-0.017859,0.713494,-0.043417,-0.967562,-0.084684,0.397815,74.255104,135.663361,-43.722336,0,0
5227,2024 8 29,15:35:48.721,-0.706566,-0.023314,0.70571,-0.045587,-0.878995,-0.046847,0.21745,66.141273,119.372437,-31.24082,0,0
5228,2024 8 29,15:35:48.729,-0.71275,-0.028094,0.69916,-0.04779,-0.916876,-0.109852,0.048833,55.768059,98.358879,-25.764841,0,0
5229,2024 8 29,15:35:48.737,-0.714735,-0.029628,0.697057,-0.048497,-0.929036,-0.130076,-0.005292,52.438324,91.613663,-24.007088,0,0
5230,2024 8 29,15:35:48.746,-0.71662,-0.030972,0.695039,-0.049073,-0.937518,-0.138983,-0.034075,47.317802,86.311974,-22.143578,0,0
5231,2024 8 29,15:35:48.754,-0.72117,-0.033808,0.690106,-0.050172,-0.962386,-0.09392,-0.015133,30.14385,75.046555,-16.775587,0,0
5232,2024 8 29,15:35:48.762,-0.724913,-0.035697,0.686025,-0.0509,-1.017419,0.065726,0.08025,19.733826,60.846123,-12.048965,0,0
5233,2024 8 29,15:35:48.771,-0.72809,-0.037443,0.682519,-0.051446,-0.999513,0.01777,0.008222,19.741535,51.285847,-12.841124,0,0
5234,2024 8 29,15:35:48.779,-0.730575,-0.039009,0.679753,-0.051683,-1.041856,0.032466,0.062779,15.966887,40.88855,-12.952356,0,0
5235,2024 8 29,15:35:48.787,-0.732432,-0.040277,0.677674,-0.051748,-1.087674,0.058213,-0.050738,12.799559,37.591591,-15.234821,0,0
5236,2024 8 29,15:35:48.796,-0.732905,-0.040638,0.677147,-0.051668,-1.086912,0.05712,-0.043127,11.811645,36.182644,-16.119476,0,0
5237,2024 8 29,15:35:48.804,-0.734596,-0.042027,0.675265,-0.051161,-1.056026,0.044445,0.03685,8.268437,30.207031,-19.298391,0,0
5238,2024 8 29,15:35:48.812,-0.736126,-0.043492,0.67356,-0.050405,-1.009579,0.04297,0.068202,6.710787,24.395576,-20.215609,0,0
5239,2024 8 29,15:35:48.821,-0.7373,-0.045022,0.67224,-0.049539,-1.032029,0.020957,0.042426,7.019907,18.147636,-21.30496,0,0
5240,2024 8 29,15:35:48.829,-0.738193,-0.046561,0.671228,-0.048519,-1.045622,0.027367,0.010664,5.34897,13.498536,-22.273262,0,0
5241,2024 8 29,15:35:48.837,-0.738849,-0.048069,0.670479,-0.047416,-1.054017,0.047913,0.022616,3.279891,9.682764,-22.142395,0,0
5242,2024 8 29,15:35:48.846,-0.739265,-0.049385,0.669988,-0.046512,-1.049752,0.055132,0.062064,5.009346,7.429351,-22.203926,0,0
5243,2024 8 29,15:35:48.854,-0.739389,-0.049887,0.669834,-0.04623,-1.050122,0.04539,0.057307,6.026798,6.688291,-22.269291,0,0
5244,2024 8 29,15:35:48.862,-0.739671,-0.051498,0.669452,-0.045479,-1.053343,-0.002034,0.008329,9.477425,4.711199,-22.728729,0,0
5245,2024 8 29,15:35:48.871,-0.739876,-0.053446,0.669132,-0.04458,-1.052358,0.001211,0.004369,10.427457,3.165499,-24.028645,0,0
5246,2024 8 29,15:35:48.879,-0.740088,-0.05556,0.668787,-0.043634,-1.064931,0.00389,-0.011935,10.515616,3.665452,-25.498917,0,0
5247,2024 8 29,15:35:48.887,-0.740411,-0.057752,0.668301,-0.042751,-1.01391,-0.014238,0.011866,12.907788,6.008431,-25.213497,0,0
5248,2024 8 29,15:35:48.896,-0.740708,-0.059663,0.667849,-0.042045,-1.003693,-2.2e-05,0.068381,13.025082,5.848141,-24.882967,0,0
5249,2024 8 29,15:35:48.904,-0.740827,-0.06044,0.667663,-0.041802,-1.005843,-0.001503,0.070323,13.453156,5.869054,-24.647034,0,0
5250,2024 8 29,15:35:48.912,-0.741102,-0.062405,0.667208,-0.041294,-1.023157,-0.023265,0.027274,14.921362,5.788773,-24.023453,0,0
5251,2024 8 29,15:35:48.921,-0.741305,-0.06456,0.66682,-0.040572,-1.013435,-0.028578,0.040368,13.153277,3.675458,-24.546431,0,0
5252,2024 8 29,15:35:48.929,-0.741381,-0.066705,0.666577,-0.039692,-1.017835,-0.027949,0.025926,11.148981,0.390982,-25.073338,0,0
5253,2024 8 29,15:35:48.937,-0.741318,-0.068762,0.666503,-0.038598,-1.030743,-0.024697,0.056546,8.670008,-1.414836,-25.975357,0,0
5254,2024 8 29,15:35:48.946,-0.7413,-0.070496,0.666403,-0.03753,-1.052216,-0.033141,0.042438,6.204366,-0.715517,-26.901106,0,0
5255,2024 8 29,15:35:48.954,-0.741306,-0.071224,0.666349,-0.037018,-1.053935,-0.03858,0.036346,5.163731,-0.291618,-27.22942,0,0
5256,2024 8 29,15:35:48.962,-0.741374,-0.072665,0.666188,-0.035717,-1.032524,-0.052442,0.028719,2.829021,0.853735,-27.588825,0,0
5257,2024 8 29,15:35:48.971,-0.741507,-0.074144,0.665963,-0.034055,-1.01892,-0.051654,0.041225,-0.642595,1.249087,-27.607544,0,0
5258,2024 8 29,15:35:48.979,-0.741666,-0.075484,0.665728,-0.032187,-1.020022,-0.057956,0.037111,-3.564768,1.513851,-27.394104,0,0
5259,2024 8 29,15:35:48.987,-0.741907,-0.076632,0.665423,-0.030169,-1.036444,-0.065223,0.010316,-6.424722,2.900342,-26.804106,0,0
5260,2024 8 29,15:35:48.996,-0.742304,-0.077931,0.664955,-0.027325,-1.07211,-0.044058,0.039398,-10.233793,4.933114,-26.612341,0,0
5261,2024 8 29,15:35:49.004,-0.742306,-0.077937,0.664952,-0.02731,-1.072294,-0.043949,0.039549,-10.253469,4.943614,-26.611351,0,0
5262,2024 8 29,15:35:49.012,-0.742917,-0.078801,0.664254,-0.025118,-1.069479,-0.02891,0.060228,-9.960203,9.701557,-27.844812,0,0
5263,2024 8 29,15:35:49.021,-0.743645,-0.079858,0.663393,-0.022889,-1.112839,-0.042224,0.041112,-8.273252,10.918148,-29.451002,0,0
5264,2024 8 29,15:35:49.029,-0.744293,-0.081069,0.6626,-0.020397,-1.150145,-0.048836,0.035107,-9.095295,9.559575,-33.00486,0,0
5265,2024 8 29,15:35:49.037,-0.745137,-0.082426,0.661562,-0.01763,-1.154883,-0.033149,0.058451,-10.886374,13.948748,-37.10688,0,0
5266,2024 8 29,15:35:49.046,-0.746034,-0.083942,0.660437,-0.014425,-1.169385,-0.053052,0.032552,-13.072207,13.091993,-42.403091,0,0
5267,2024 8 29,15:35:49.054,-0.74612,-0.084086,0.66033,-0.01412,-1.170764,-0.054943,0.030091,-13.27996,13.010563,-42.906471,0,0
5268,2024 8 29,15:35:49.062,-0.746912,-0.085601,0.659301,-0.010732,-1.180759,-0.039737,0.060218,-15.282339,13.536823,-48.258492,0,0
5269,2024 8 29,15:35:49.071,-0.747883,-0.087449,0.658009,-0.006605,-1.18577,-0.034937,0.049114,-16.791082,15.024398,-54.286938,0,0
5270,2024 8 29,15:35:49.079,-0.748802,-0.089638,0.656697,-0.00201,-1.23758,-0.02681,0.068412,-16.577751,13.768877,-60.396385,0,0
5271,2024 8 29,15:35:49.087,-0.74973,-0.092276,0.655267,0.00297,-1.258693,-0.017012,0.106076,-15.060854,15.48049,-67.592361,0,0
5272,2024 8 29,15:35:49.096,-0.75076,-0.095587,0.653564,0.008155,-1.306489,-0.029604,0.079309,-11.23421,17.772104,-75.1978,0,0
5273,2024 8 29,15:35:49.104,-0.750935,-0.09615,0.653274,0.009036,-1.314616,-0.031745,0.074758,-10.583569,18.161745,-76.490944,0,0
5274,2024 8 29,15:35:49.112,-0.75185,-0.099705,0.651602,0.013653,-1.358544,-0.023092,0.044057,-5.650263,21.229692,-83.506195,0,0
5275,2024 8 29,15:35:49.121,-0.753087,-0.104462,0.649278,0.019179,-1.428656,0.001841,0.094386,-0.629456,26.085625,-92.99939,0,0
5276,2024 8 29,15:35:49.129,-0.754461,-0.110322,0.646489,0.025355,-1.456668,0.050146,0.110345,2.925142,30.132906,-107.028648,0,0
5277,2024 8 29,15:35:49.137,-0.755877,-0.117311,0.643285,0.032157,-1.525341,0.03742,0.117151,8.782299,33.498867,-122.155716,0,0
5278,2024 8 29,15:35:49.146,-0.757255,-0.125457,0.639669,0.039962,-1.639487,0.045385,0.088477,11.396893,35.882515,-141.055481,0,0
5279,2024 8 29,15:35:49.154,-0.757576,-0.12736,0.638824,0.041785,-1.666145,0.047245,0.08178,12.007501,36.439186,-145.469299,0,0
5280,2024 8 29,15:35:49.162,-0.758722,-0.135266,0.635261,0.049375,-1.811446,0.103298,0.081242,11.792607,41.162331,-165.030029,0,0
5281,2024 8 29,15:35:49.171,-0.760186,-0.145784,0.630248,0.059593,-2.038714,0.109202,-0.049526,12.81493,50.474796,-192.041504,0,0
5282,2024 8 29,15:35:49.179,-0.761829,-0.158199,0.623884,0.072095,-2.285724,0.184478,-0.082341,10.822872,61.153835,-226.051605,0,0
5283,2024 8 29,15:35:49.187,-0.763865,-0.172573,0.615577,0.086899,-2.526284,0.234272,-0.157407,9.233066,81.159103,-264.935486,0,0
5284,2024 8 29,15:35:49.196,-0.766238,-0.189037,0.604904,0.104305,-2.868563,0.260644,-0.326809,5.372376,102.059006,-309.620544,0,0
5285,2024 8 29,15:35:49.204,-0.766922,-0.193779,0.60183,0.109318,-2.967146,0.268239,-0.3756,4.260425,108.078575,-322.490692,0,0
5286,2024 8 29,15:35:49.212,-0.76875,-0.208783,0.590941,0.126101,-3.238277,0.251232,-0.314038,-3.882119,124.05262,-363.173767,0,0
5287,2024 8 29,15:35:49.221,-0.771582,-0.22846,0.574363,0.148116,-3.40132,0.090762,-0.390471,-9.033105,164.732819,-409.666321,0,0
5288,2024 8 29,15:35:49.229,-0.774039,-0.250745,0.554106,0.173238,-3.453254,-0.132701,-0.329507,-11.385345,181.157486,-449.571838,0,0
5289,2024 8 29,15:35:49.237,-0.7754,-0.274152,0.53131,0.200248,-3.351073,-0.224498,-0.388322,-18.503319,192.088303,-476.345062,0,0
5290,2024 8 29,15:35:49.246,-0.776025,-0.289598,0.515696,0.218363,-3.233063,-0.229505,-0.424437,-23.623587,198.156448,-489.849854,0,0
5291,2024 8 29,15:35:49.254,-0.775796,-0.308704,0.494286,0.241843,-2.901698,-0.032051,-0.459232,-31.50881,201.467361,-491.302002,0,1
5292,2024 8 29,15:35:49.262,-0.775582,-0.312519,0.489499,0.246832,-2.851185,0.020954,-0.498631,-33.677601,200.64476,-489.276367,0,0
5293,2024 8 29,15:35:49.271,-0.774066,-0.332514,0.463684,0.273663,-2.573931,0.345515,-0.733191,-46.436172,193.575241,-478.751831,0,0
5294,2024 8 29,15:35:49.279,-0.770816,-0.35095,0.437508,0.301464,-2.177192,0.788425,-1.001423,-61.369484,172.671936,-474.547791,0,0
5295,2024 8 29,15:35:49.287,-0.765337,-0.366848,0.412997,0.329743,-1.665959,0.964855,-1.227456,-66.995087,123.90435,-463.048462,0,0
5296,2024 8 29,15:35:49.296,-0.756912,-0.379231,0.392084,0.359372,-1.032802,1.085391,-1.334513,-86.370377,58.309265,-452.78064,0,0
5297,2024 8 29,15:35:49.304,-0.747523,-0.385947,0.374172,0.389763,0.710407,0.870977,-2.073741,-133.501938,-3.241669,-406.201569,0,0
5298,2024 8 29,15:35:49.312,-0.741622,-0.384966,0.361922,0.413119,2.415936,1.01676,-1.310373,-183.982559,-54.963783,-272.854126,0,0
5299,2024 8 29,15:35:49.321,-0.740891,-0.382735,0.360376,0.417911,2.244002,1.163633,-1.028418,-187.617538,-72.014755,-218.938507,0,0
5300,2024 8 29,15:35:49.329,-0.741765,-0.369377,0.36058,0.428043,0.290496,1.858971,-0.137829,-168.844604,-120.235138,3.575348,0,0
5301,2024 8 29,15:35:49.337,-0.748516,-0.35276,0.365944,0.425681,-0.243806,2.032931,-0.434089,-121.334679,-86.734077,177.008026,0,0
5302,2024 8 29,15:35:49.346,-0.757281,-0.336547,0.376656,0.413708,-0.730196,1.703558,-0.172629,-56.166168,-85.243095,271.594757,0,0
5303,2024 8 29,15:35:49.354,-0.765729,-0.322575,0.389378,0.397121,-0.462391,1.353656,-0.539831,-9.638302,-76.584358,294.222717,0,0
5304,2024 8 29,15:35:49.362,-0.771116,-0.311489,0.402383,0.382437,-0.330634,1.151386,-0.475107,17.302176,-110.9655,285.837158,0,0
5305,2024 8 29,15:35:49.371,-0.772469,-0.30782,0.407235,0.377577,-0.318931,1.089791,-0.476888,24.918854,-121.995621,281.716461,0,0
5306,2024 8 29,15:35:49.379,-0.774364,-0.297615,0.422906,0.364243,-0.408581,0.960441,-0.535189,40.006073,-151.935593,267.634705,0,0
5307,2024 8 29,15:35:49.387,-0.774468,0.274815,0.564481,0.077588,-0.575451,0.928801,-0.453639,48.822029,-187.516357,263.997925,0,0
5308,2024 8 29,15:35:49.396,-0.773072,-0.272234,0.46458,0.334574,-0.802233,0.896262,-0.321519,52.187859,-212.447418,273.18512,0,0
5309,2024 8 29,15:35:49.404,-0.77116,-0.25753,0.487042,0.318166,-0.99747,0.793041,-0.213028,49.863792,-214.384018,290.411316,0,0
5310,2024 8 29,15:35:49.412,-0.769691,-0.243664,0.506159,0.302641,-1.041194,0.652282,-0.194022,41.820255,-204.817871,306.269501,0,0
5311,2024 8 29,15:35:49.421,-0.769142,-0.237977,0.513412,0.296531,-1.039888,0.596145,-0.185904,36.759876,-202.542068,311.522461,0,0
5312,2024 8 29,15:35:49.429,-0.767795,-0.222601,0.530298,0.28152,-0.974507,0.46508,-0.157509,15.496735,-204.922867,319.520691,0,0
5313,2024 8 29,15:35:49.437,-0.765536,-0.20256,0.549437,0.265292,-0.975279,0.388748,-0.083782,-16.419477,-220.434647,321.726563,0,0
5314,2024 8 29,15:35:49.446,-0.76192,-0.179055,0.569185,0.250278,-1.132331,0.413922,0.061452,-51.714569,-242.041168,319.308044,0,0
5315,2024 8 29,15:35:49.454,-0.75709,-0.152818,0.588627,0.236783,-1.380211,0.495627,0.251531,-82.768051,-253.849228,316.559387,0,0
5316,2024 8 29,15:35:49.462,-0.752356,-0.128031,0.604932,0.225584,-1.575078,0.569321,0.420186,-104.442886,-249.874283,315.354675,0,0
5317,2024 8 29,15:35:49.471,-0.750331,-0.117263,0.611574,0.220887,-1.642602,0.594785,0.48374,-112.534569,-246.487289,314.797485,0,0
5318,2024 8 29,15:35:49.479,-0.746018,-0.093619,0.623993,0.211369,-1.706325,0.618352,0.573917,-123.938126,-232.547226,313.095612,0,0
5319,2024 8 29,15:35:49.487,-0.740874,-0.065853,0.636905,0.200658,-1.722278,0.625136,0.631937,-133.274567,-220.726563,309.299469,0,0
5320,2024 8 29,15:35:49.496,-0.733086,-0.026684,0.653638,0.186066,-1.738763,0.644481,0.660562,-143.21373,-214.074249,303.42691,0,0
5321,2024 8 29,15:35:49.504,-0.725747,0.003254,0.665226,0.175302,-1.835474,0.717757,0.761143,-144.863602,-220.151169,300.655029,0,0
5322,2024 8 29,15:35:49.512,-0.717149,0.032807,0.676367,0.164634,-1.968705,0.671668,0.773958,-142.484116,-226.860611,293.540314,0,0
5323,2024 8 29,15:35:49.521,-0.716843,0.033857,0.676762,0.164255,-1.973436,0.670031,0.774413,-142.399612,-227.098862,293.287659,0,0
5324,2024 8 29,15:35:49.529,-0.707159,0.061334,0.687219,0.154336,-2.13731,0.576052,0.846909,-140.914001,-236.739548,284.159027,0,0
5325,2024 8 29,15:35:49.537,-0.695812,0.08961,0.697803,0.14415,-2.319903,0.464448,0.898325,-140.592331,-242.531158,278.176605,0,0
5326,2024 8 29,15:35:49.546,-0.683654,0.117748,0.707619,0.133779,-2.370708,0.284987,1.109655,-139.462082,-240.508087,280.460571,0,0
5327,2024 8 29,15:35:49.554,-0.671838,0.146014,0.715671,0.122373,-2.67444,-0.30801,0.607233,-132.33905,-223.346878,300.148468,0,0
5328,2024 8 29,15:35:49.562,-0.661293,0.17484,0.721042,0.109753,-2.734424,-0.734677,1.094869,-128.521271,-185.978989,321.657043,0,0
5329,2024 8 29,15:35:49.571,-0.660025,0.178305,0.721688,0.108235,-2.741635,-0.785973,1.153494,-128.062271,-181.48645,324.242889,0,0
5330,2024 8 29,15:35:49.579,-0.652526,0.202609,0.72355,0.097457,-2.34165,-1.149602,0.800313,-123.42157,-158.459244,312.721039,0,0
5331,2024 8 29,15:35:49.587,-0.641408,0.227393,0.72753,0.086016,-2.408733,-1.576317,1.030566,-113.410591,-198.618469,278.573456,0,0
5332,2024 8 29,15:35:49.596,-0.62859,0.248638,0.732912,0.075535,-2.440728,-1.797592,1.442305,-93.424522,-206.551559,231.322037,0,0
5333,2024 8 29,15:35:49.604,-0.615564,0.264829,0.739207,0.066026,-2.211077,-1.860903,1.972377,-61.316532,-211.931885,177.798676,0,0
5334,2024 8 29,15:35:49.612,-0.603426,0.27546,0.746111,0.056484,-1.99334,-2.051022,2.419029,-15.282204,-201.142181,131.594925,0,0
5335,2024 8 29,15:35:49.621,-0.601105,0.277493,0.747431,0.05466,-1.951697,-2.087384,2.504455,-6.477777,-199.078568,122.758087,0,0
5336,2024 8 29,15:35:49.629,-0.593489,0.281374,0.752607,0.046126,-1.886958,-2.456066,2.553131,33.761047,-170.930023,97.695702,0,0
5337,2024 8 29,15:35:49.637,-0.58783,0.282521,0.757141,0.036333,-1.793034,-3.049066,2.437924,69.252808,-123.590088,73.416557,0,0
5338,2024 8 29,15:35:49.646,-0.585299,0.281042,0.760021,0.027696,-1.65977,-3.618559,2.024451,81.96035,-76.284744,48.835091,0,0
5339,2024 8 29,15:35:49.654,-0.57659,0.277651,0.767751,0.030837,-4.333564,-1.587912,9.067233,-107.573372,-170.486511,-133.663971,0,0
5340,2024 8 29,15:35:49.662,-0.592853,0.264416,0.758571,0.053063,-1.508655,-0.840214,2.169255,-179.501251,309.660217,-238.361816,0,0
5341,2024 8 29,15:35:49.671,-0.596946,0.261085,0.75626,0.058657,-0.797688,-0.652034,0.433187,-197.603897,430.502502,-264.711945,1,0
5342,2024 8 29,15:35:49.679,-0.612947,0.251326,0.744872,0.077167,0.231042,0.212982,-0.598923,-44.39917,307.605164,-209.080673,0,0
5343,2024 8 29,15:35:49.687,-0.619823,0.241634,0.740539,0.093641,-1.202235,0.524247,0.081421,-45.82621,180.790985,-199.764954,0,0
5344,2024 8 29,15:35:49.696,-0.62691,0.230693,0.736093,0.108123,-1.712077,0.208128,1.033719,-20.462303,133.074615,-180.067184,0,0
5345,2024 8 29,15:35:49.704,-0.635334,0.21928,0.730657,0.119103,-1.666134,0.204626,0.469994,1.325197,146.45314,-146.387405,0,0
5346,2024 8 29,15:35:49.712,-0.644969,0.208718,0.724034,0.126581,-1.360636,-0.113363,0.116672,28.228502,160.427719,-104.299774,0,0
5347,2024 8 29,15:35:49.721,-0.655445,0.198996,0.716645,0.130472,-1.082629,0.171218,-0.164156,66.363678,164.96431,-70.496597,0,0
5348,2024 8 29,15:35:49.729,-0.65871,0.195965,0.714342,0.131685,-0.995982,0.259914,-0.251683,78.249359,166.378235,-59.961079,0,0
5349,2024 8 29,15:35:49.737,-0.667358,0.187177,0.708846,0.130463,-1.042152,0.040556,-0.231936,112.557899,164.379227,-48.957253,0,0
5350,2024 8 29,15:35:49.746,-0.673228,0.181217,0.705062,0.129515,-1.061923,-0.090269,-0.212384,126.553185,161.882111,-42.830532,0,0
5351,2024 8 29,15:35:49.754,-0.683947,0.170478,0.697771,0.127402,-1.039987,-0.211714,-0.163229,107.034752,153.509048,-38.32246,0,0
5352,2024 8 29,15:35:49.762,-0.693852,0.161303,0.690308,0.126459,-0.997629,-0.159686,-0.147914,88.19738,151.684402,-33.421398,0,0
5353,2024 8 29,15:35:49.771,-0.702544,0.153902,0.683407,0.125202,-0.908181,-0.130027,0.201506,70.84552,128.205887,-18.863028,0,0
5354,2024 8 29,15:35:49.779,-0.708926,0.149205,0.678054,0.124083,-0.868998,0.019269,0.34261,52.671806,109.530853,-8.482685,0,0
5355,2024 8 29,15:35:49.787,-0.710137,0.148372,0.677009,0.123855,-0.875013,0.017082,0.345595,50.368542,105.202484,-7.146005,0,0
5356,2024 8 29,15:35:49.796,-0.715527,0.144783,0.672284,0.122798,-0.925307,-0.044313,0.272395,42.402939,84.980583,-3.034747,0,0
5357,2024 8 29,15:35:49.804,-0.720206,0.141589,0.668138,0.121806,-0.935368,-0.004987,0.060567,33.484375,70.31192,-1.83639,0,0
5358,2024 8 29,15:35:49.812,-0.723632,0.139244,0.665073,0.120993,-0.968637,-0.002111,0.114401,25.328957,50.245701,-1.51818,0,0
5359,2024 8 29,15:35:49.821,-0.726292,0.137409,0.662629,0.120566,-0.958615,0.053285,0.068261,19.29789,40.865395,-2.944053,0,0
5360,2024 8 29,15:35:49.829,-0.728017,0.135996,0.661091,0.120226,-1.007286,0.034901,0.072513,15.643144,28.598721,-4.02546,0,0
5361,2024 8 29,15:35:49.837,-0.728459,0.135623,0.660689,0.12018,-1.012808,0.027687,0.06437,14.603634,26.970366,-4.495699,0,0
5362,2024 8 29,15:35:49.846,-0.729811,0.134439,0.659425,0.120245,-1.009924,0.003194,0.010355,10.583019,26.521444,-6.615943,0,0
5363,2024 8 29,15:35:49.854,-0.730965,0.133421,0.658279,0.120655,-1.041477,0.020557,-0.002789,4.52135,20.021,-8.206182,0,0
5364,2024 8 29,15:35:49.862,-0.731878,0.13266,0.657285,0.121374,-1.045077,0.020832,0.004551,0.048896,18.130461,-9.471099,0,0
5365,2024 8 29,15:35:49.871,-0.732675,0.132087,0.656338,0.122307,-1.016479,0.030975,0.071858,-2.92779,16.264683,-9.706213,0,0
5366,2024 8 29,15:35:49.879,-0.7333,0.13163,0.655577,0.123136,-1.019284,0.02544,0.070263,-2.497933,14.612118,-9.465302,0,0
5367,2024 8 29,15:35:49.887,-0.733497,0.131479,0.655337,0.123408,-1.02152,0.026121,0.068653,-2.433318,14.063203,-9.387753,0,0
5368,2024 8 29,15:35:49.896,-0.733991,0.131066,0.654727,0.124142,-1.031975,0.037202,0.061525,-2.455688,12.7498,-9.151247,0,0
5369,2024 8 29,15:35:49.904,-0.73454,0.130589,0.654061,0.124905,-1.032552,0.035508,0.065068,-1.649678,12.562814,-8.656014,0,0
5370,2024 8 29,15:35:49.912,-0.735129,0.130081,0.653365,0.125606,-1.022372,0.020177,0.057479,-1.058025,12.702043,-7.932235,0,0
5371,2024 8 29,15:35:49.921,-0.73572,0.129601,0.652671,0.126253,-1.02744,-0.067031,0.022255,-0.825345,12.302878,-7.107666,0,0
5372,2024 8 29,15:35:49.929,-0.736192,0.129254,0.652097,0.126821,-1.039467,0.016583,0.041757,-1.911872,11.434175,-6.510549,0,0
5373,2024 8 29,15:35:49.937,-0.736386,0.129131,0.65186,0.127041,-1.040144,0.035902,0.007588,-2.277145,11.5447,-6.277133,0,0
5374,2024 8 29,15:35:49.946,-0.736919,0.128896,0.651198,0.127583,-1.023495,0.017294,0.055849,-2.856747,13.597172,-5.716342,0,0
5375,2024 8 29,15:35:49.954,-0.737545,0.128664,0.650411,0.128207,-1.013597,0.024746,0.075598,-3.037306,13.380239,-5.207314,0,0
5376,2024 8 29,15:35:49.962,-0.738158,0.128415,0.649654,0.128768,-1.016653,0.02524,0.080632,-2.026186,12.492198,-4.774845,0,0
5377,2024 8 29,15:35:49.971,-0.738766,0.128142,0.648906,0.129323,-1.017478,0.021571,0.089636,-1.69483,12.484968,-5.052249,0,0
5378,2024 8 29,15:35:49.979,-0.739299,0.127855,0.648248,0.129856,-1.046007,-0.005274,0.09044,-1.66308,12.09005,-5.888239,0,0
5379,2024 8 29,15:35:49.987,-0.739519,0.127727,0.647975,0.130094,-1.051605,-0.009048,0.090208,-1.786061,11.952945,-6.288102,0,0
5380,2024 8 29,15:35:49.996,-0.740099,0.127315,0.64724,0.130859,-1.021086,0.034585,0.085461,-3.11025,11.780117,-7.748661,0,0
5381,2024 8 29,15:35:50.004,-0.740501,0.126994,0.646668,0.131721,-1.016715,0.077801,0.096954,-5.628818,9.683064,-8.949542,0,0
5382,2024 8 29,15:35:50.012,-0.740935,0.126656,0.64603,0.132736,-1.050107,0.055959,0.041062,-6.49962,11.177042,-10.267798,0,0
5383,2024 8 29,15:35:50.021,-0.741348,0.126273,0.645406,0.133827,-1.097628,-0.022712,0.13008,-5.427571,11.633659,-11.356234,0,0
5384,2024 8 29,15:35:50.029,-0.741939,0.125727,0.64459,0.134993,-1.057512,0.011305,0.039052,-4.404691,14.281065,-12.208731,0,0
5385,2024 8 29,15:35:50.037,-0.741977,0.125692,0.644538,0.135067,-1.054942,0.013484,0.03322,-4.339166,14.450658,-12.263341,0,0
5386,2024 8 29,15:35:50.046,-0.742453,0.125081,0.643864,0.13622,-1.067574,0.013212,0.13233,-3.670268,13.634256,-14.480156,0,0
5387,2024 8 29,15:35:50.054,-0.743058,0.124199,0.643084,0.137413,-1.020798,0.060693,0.090924,-0.067442,14.866348,-15.011703,0,0
5388,2024 8 29,15:35:50.062,-0.743695,0.123105,0.64231,0.138564,-1.017994,0.047686,0.083536,-0.115476,14.51374,-16.570648,0,0
5389,2024 8 29,15:35:50.071,-0.74409,0.122002,0.64181,0.139733,-1.011315,0.048677,0.116502,-0.808638,10.505752,-17.655045,0,0
5390,2024 8 29,15:35:50.079,-0.744599,0.120806,0.641171,0.140984,-1.026279,0.043387,0.092908,-0.639325,13.730402,-18.423231,0,0
5391,2024 8 29,15:35:50.087,-0.744673,0.120634,0.641079,0.141164,-1.028435,0.042625,0.089509,-0.614938,14.194882,-18.53388,0,0
5392,2024 8 29,15:35:50.096,-0.744939,0.119555,0.640728,0.142266,-1.03566,0.038454,0.129907,0.604538,8.999466,-19.918777,0,0
5393,2024 8 29,15:35:50.104,-0.745178,0.11813,0.640455,0.143428,-1.036073,-0.016595,0.123896,3.606385,8.227853,-21.200069,0,0
5394,2024 8 29,15:35:50.112,-0.745215,0.116629,0.64039,0.144748,-1.070833,-0.012659,0.092075,3.45429,3.901763,-23.400337,0,0
5395,2024 8 29,15:35:50.121,-0.74501,0.115067,0.640567,0.146261,-1.141605,-0.011911,0.071246,1.675575,1.863913,-26.44346,0,0
5396,2024 8 29,15:35:50.129,-0.744866,0.113443,0.640585,0.148171,-1.138176,-0.03363,0.037517,-1.127759,5.530942,-29.884541,0,0
5397,2024 8 29,15:35:50.137,-0.744835,0.1131,0.640588,0.148575,-1.137452,-0.038222,0.030386,-1.72046,6.306253,-30.61208,0,0
5398,2024 8 29,15:35:50.146,-0.744624,0.111695,0.640604,0.150611,-1.177282,-0.029523,0.003765,-4.794987,4.18897,-35.304863,0,0
5399,2024 8 29,15:35:50.154,-0.744152,0.110189,0.640656,0.153793,-1.327821,0.015661,0.134855,-13.577937,4.205938,-43.724678,0,0
5400,2024 8 29,15:35:50.162,-0.744012,0.108314,0.640068,0.15817,-1.279625,-0.021161,0.108561,-17.473154,16.231876,-54.27179,0,0
5401,2024 8 29,15:35:50.171,-0.74349,0.106199,0.639655,0.163619,-1.325462,0.062066,0.096571,-25.779928,7.780156,-66.584953,0,0
5402,2024 8 29,15:35:50.179,-0.742494,0.10369,0.639572,0.169933,-1.40667,0.061673,0.187263,-28.339243,7.759277,-78.758102,0,0
5403,2024 8 29,15:35:50.187,-0.741695,0.100459,0.639046,0.177157,-1.504332,0.045771,0.061774,-27.316496,15.34414,-91.465668,0,0
5404,2024 8 29,15:35:50.196,-0.741474,0.099562,0.638901,0.179164,-1.531459,0.041354,0.026918,-27.032413,17.450939,-94.995369,0,0
5405,2024 8 29,15:35:50.204,-0.740624,0.096322,0.638438,0.185923,-1.615987,0.042145,0.010083,-30.506256,17.711531,-107.528297,0,0
5406,2024 8 29,15:35:50.212,-0.739689,0.091664,0.637526,0.194845,-1.745544,0.003094,-0.031792,-30.979748,25.788876,-123.243919,0,0
5407,2024 8 29,15:35:50.221,-0.738798,0.085778,0.636002,0.205509,-1.912987,0.030429,-0.087321,-33.466202,35.51561,-143.903275,0,0
5408,2024 8 29,15:35:50.229,-0.738212,0.078078,0.633639,0.217535,-2.074899,0.053156,-0.103922,-28.159267,55.373131,-167.573227,0,0
5409,2024 8 29,15:35:50.237,-0.738104,0.068106,0.63007,0.231058,-2.31886,0.148727,-0.100708,-20.416033,72.660606,-197.034607,0,0
5410,2024 8 29,15:35:50.246,-0.738051,0.063199,0.628314,0.237712,-2.43891,0.195756,-0.099126,-16.605679,81.167572,-211.532196,0,0
5411,2024 8 29,15:35:50.254,-0.737923,0.061499,0.627797,0.239802,-2.500363,0.215949,-0.110122,-16.848185,81.460503,-217.62915,0,0
5412,2024 8 29,15:35:50.262,-0.736837,0.04766,0.623574,0.256628,-2.968578,0.373898,-0.197918,-17.464214,86.241341,-266.295776,0,0
5413,2024 8 29,15:35:50.271,-0.735123,0.030143,0.618105,0.27655,-3.323331,0.55097,-0.24751,-9.553493,108.286201,-320.587585,0,0
5414,2024 8 29,15:35:50.279,-0.73251,0.008732,0.611019,0.299631,-3.559942,0.838975,-0.041533,-5.532272,130.325119,-381.254395,0,0
5415,2024 8 29,15:35:50.287,-0.72913,-0.016934,0.601535,0.32545,-3.198298,0.610725,-0.213645,2.018292,161.843613,-438.077972,0,0
5416,2024 8 29,15:35:50.296,-0.72455,-0.041741,0.591917,0.350358,-2.85955,0.235746,-0.20411,-1.860337,157.158005,-476.081177,0,0
5417,2024 8 29,15:35:50.304,-0.723308,-0.047145,0.589656,0.355944,-2.81702,0.189521,-0.18828,-4.445787,157.596527,-480.505554,0,0
5418,2024 8 29,15:35:50.312,-0.716597,-0.072702,0.577983,0.38304,-2.64654,0.116956,-0.098511,-22.478941,165.546738,-485.530792,0,1
5419,2024 8 29,15:35:50.321,-0.709442,-0.09882,0.562984,0.411695,-1.999226,0.204309,-0.231451,-38.244694,176.049118,-467.846954,0,0
5420,2024 8 29,15:35:50.329,-0.701239,-0.123048,0.547975,0.438598,-1.674528,0.119857,-0.427322,-38.438896,152.187454,-439.421692,0,0
5421,2024 8 29,15:35:50.337,-0.691069,-0.144034,0.534086,0.46473,-1.095748,0.29144,-0.770087,-61.684319,114.977837,-423.554749,0,0
5422,2024 8 29,15:35:50.346,-0.680157,-0.158995,0.5229,0.488259,-0.219819,0.205125,-1.148805,-81.471191,56.798012,-397.474579,0,0
5423,2024 8 29,15:35:50.354,-0.676988,-0.162379,0.52001,0.494726,0.109928,0.269891,-1.285346,-89.788757,42.056114,-387.196808,0,0
5424,2024 8 29,15:35:50.362,-0.665708,-0.1689,0.511295,0.516354,1.410448,0.832186,-1.886986,-134.770874,-6.588615,-327.248718,0,0
5425,2024 8 29,15:35:50.371,-0.655595,-0.165091,0.50322,0.537989,0.903235,0.860893,-2.21344,-202.270752,-89.388229,-190.662354,0,0
5426,2024 8 29,15:35:50.379,-0.648954,-0.148965,0.498548,0.55483,-0.437072,1.439593,-1.182154,-253.770111,-123.183594,-57.137711,0,0
5427,2024 8 29,15:35:50.387,-0.647277,-0.1277,0.494076,0.565988,-0.602316,2.015984,-0.560804,-237.267975,-127.121323,33.349197,0,0
5428,2024 8 29,15:35:50.396,-0.648641,-0.109363,0.490664,0.571292,-0.492549,1.897951,-0.398684,-191.811386,-97.635468,78.114319,0,0
5429,2024 8 29,15:35:50.404,-0.649048,-0.103622,0.489886,0.572655,-0.41448,1.83516,-0.370248,-176.120132,-92.757057,87.243652,0,0
5430,2024 8 29,15:35:50.412,-0.64956,-0.089796,0.490229,0.574087,0.008322,1.547804,-0.425906,-129.603561,-111.783745,78.720963,0,0
5431,2024 8 29,15:35:50.421,-0.647212,-0.074824,0.494629,0.575075,0.196405,1.393699,-0.398357,-81.389458,-165.195953,63.35075,0,0
5432,2024 8 29,15:35:50.429,-0.641787,-0.059168,0.503744,0.575009,-0.037079,1.318002,-0.301833,-43.560184,-216.954956,59.335651,0,0
5433,2024 8 29,15:35:50.437,-0.634709,-0.042629,0.516402,0.573023,-0.369929,1.242427,-0.232424,-15.387924,-252.135666,72.772507,0,0
5434,2024 8 29,15:35:50.446,-0.627911,-0.026414,0.529828,0.569227,-0.671271,1.119097,-0.059619,1.619785,-272.04483,96.918724,0,0
5435,2024 8 29,15:35:50.454,-0.625468,-0.020176,0.534923,0.567512,-0.765704,1.067326,-0.006392,6.626812,-276.832245,106.666794,0,0
5436,2024 8 29,15:35:50.462,-0.620602,-0.004576,0.547008,0.561525,-0.85388,0.908615,0.0365,7.912503,-271.152496,133.112671,0,0
5437,2024 8 29,15:35:50.471,-0.615811,0.014937,0.560224,0.553402,-0.868666,0.696269,0.035259,-3.935718,-268.292816,158.655502,0,0
5438,2024 8 29,15:35:50.479,-0.610867,0.037547,0.572797,0.544754,-0.909158,0.46872,0.014092,-31.341299,-276.069305,176.592819,0,0
5439,2024 8 29,15:35:50.487,-0.605045,0.06367,0.58398,0.536765,-1.072789,0.287681,0.012723,-74.32888,-291.691589,188.953857,0,0
5440,2024 8 29,15:35:50.496,-0.59547,0.104733,0.597024,0.527264,-1.488227,0.148964,0.124001,-146.467056,-310.664398,203.243637,0,0
5441,2024 8 29,15:35:50.504,-0.595468,0.104743,0.597027,0.527262,-1.488325,0.148931,0.124027,-146.484085,-310.668854,203.247009,0,0
5442,2024 8 29,15:35:50.512,-0.58761,0.138545,0.601576,0.523052,-1.831618,0.200873,0.351629,-201.317245,-297.742798,211.21524,0,0
5443,2024 8 29,15:35:50.521,-0.580318,0.174011,0.601344,0.520834,-1.858082,0.311274,0.517903,-250.192795,-258.937164,215.132263,0,0
5444,2024 8 29,15:35:50.529,-0.573531,0.209717,0.596614,0.520612,-1.59369,0.381474,0.502067,-289.676544,-228.107239,214.51918,0,0
5445,2024 8 29,15:35:50.537,-0.565474,0.246309,0.589312,0.52168,-1.50737,0.47184,0.538885,-321.798584,-228.933777,209.979858,0,0
5446,2024 8 29,15:35:50.546,-0.555475,0.283586,0.580367,0.523477,-1.500722,0.60112,0.567869,-344.603149,-233.540039,202.151611,0,0
5447,2024 8 29,15:35:50.554,-0.554565,0.286977,0.579554,0.523641,-1.500118,0.612881,0.570505,-346.677612,-233.959061,201.439499,0,0
5448,2024 8 29,15:35:50.562,-0.543692,0.320823,0.570348,0.525347,-1.556383,0.732786,0.60948,-356.407623,-240.344971,194.485489,0,0
5449,2024 8 29,15:35:50.571,-0.530556,0.35722,0.559667,0.526693,-1.63757,0.822732,0.723373,-355.80484,-242.20845,187.736008,0,0
5450,2024 8 29,15:35:50.579,-0.516522,0.392507,0.548463,0.527282,-1.680309,0.849495,0.727372,-345.444489,-239.267807,178.974792,0,0
5451,2024 8 29,15:35:50.587,-0.501812,0.42607,0.537459,0.52675,-1.72675,0.826153,0.754696,-328.787842,-240.339767,169.33757,0,0
5452,2024 8 29,15:35:50.596,-0.486621,0.457794,0.527014,0.524931,-1.730696,0.783986,0.749595,-308.353302,-242.534744,160.236389,0,0
5453,2024 8 29,15:35:50.604,-0.47103,0.487931,0.517498,0.521454,-1.731353,0.776961,0.748745,-304.948914,-242.900436,158.720123,0,0
5454,2024 8 29,15:35:50.612,-0.468255,0.493295,0.515804,0.520835,-1.771335,0.739398,0.855163,-284.855164,-251.007309,153.368607,0,0
5455,2024 8 29,15:35:50.621,-0.45517,0.517072,0.50873,0.516169,-1.778895,0.689854,1.021691,-258.375183,-255.314453,148.560394,0,0
5456,2024 8 29,15:35:50.629,-0.440557,0.542787,0.501518,0.509373,-1.768497,0.593891,1.227864,-229.983383,-259.392914,143.565414,0,0
5457,2024 8 29,15:35:50.637,-0.426101,0.567365,0.495092,0.501081,-1.826213,0.372376,1.436928,-203.868378,-258.592316,136.922272,0,0
5458,2024 8 29,15:35:50.646,-0.412156,0.58992,0.489089,0.492531,-1.863273,0.01626,1.523847,-187.862259,-245.224564,126.896355,0,0
5459,2024 8 29,15:35:50.654,-0.39827,0.610626,0.482894,0.484788,-1.987453,-0.388383,1.575663,-187.680542,-226.764435,116.73394,0,0
5460,2024 8 29,15:35:50.662,-0.394933,0.615602,0.481406,0.482927,-2.017298,-0.485636,1.588116,-187.636856,-222.327713,114.291496,0,0
5461,2024 8 29,15:35:50.671,-0.383798,0.630599,0.475037,0.478764,-2.079147,-0.751995,1.644539,-200.233032,-189.431442,109.899193,0,0
5462,2024 8 29,15:35:50.679,-0.37099,0.646518,0.465667,0.47676,-1.932938,-0.937339,1.70434,-219.416687,-144.043137,102.980141,0,0
5463,2024 8 29,15:35:50.687,-0.357588,0.661299,0.454634,0.47734,-1.738755,-0.944856,1.893983,-233.081879,-111.052597,90.186951,0,0
5464,2024 8 29,15:35:50.696,-0.3442,0.674175,0.443457,0.479677,-1.613807,-0.776456,2.247528,-228.35936,-85.685852,71.280861,0,0
5465,2024 8 29,15:35:50.704,-0.33225,0.684204,0.433393,0.48313,-1.469377,-0.519784,2.561176,-199.350815,-59.102959,49.715897,0,0
5466,2024 8 29,15:35:50.712,-0.328737,0.687151,0.430436,0.484144,-1.42693,-0.44435,2.653355,-190.825439,-51.290451,43.378124,0,0
5467,2024 8 29,15:35:50.721,-0.322262,0.69172,0.424606,0.48714,-1.388974,-0.305947,2.732809,-145.565964,-29.829359,29.190306,0,0
5468,2024 8 29,15:35:50.729,-0.318182,0.694093,0.419775,0.490645,-1.287761,-0.180542,2.659393,-84.409332,2.291292,15.763822,0,0
5469,2024 8 29,15:35:50.737,-0.318113,0.693271,0.417077,0.494165,-1.066282,0.00114,2.413672,-19.238564,32.56282,3.594187,0,0
5470,2024 8 29,15:35:50.746,-0.319584,0.692553,0.418608,0.492942,-3.414505,0.355953,9.868958,30.557648,-38.132362,-1.582428,0,0
5471,2024 8 29,15:35:50.754,-0.323336,0.688985,0.416738,0.496672,-3.745666,0.318614,10.851446,42.955498,8.912037,5.824211,0,0
5472,2024 8 29,15:35:50.762,-0.349107,0.661591,0.39426,0.533721,3.426258,-1.511006,-12.506666,-63.242302,711.567139,91.098473,0,0
5473,2024 8 29,15:35:50.771,-0.348927,0.662478,0.393412,0.533419,2.557474,-1.214596,-11.033978,-64.190781,631.779236,95.093826,0,0
5474,2024 8 29,15:35:50.779,-0.340592,0.676474,0.390336,0.523336,-6.229774,2.119567,7.249512,-60.589092,-187.821411,91.58046,0,0
5475,2024 8 29,15:35:50.787,-0.342882,0.666488,0.374014,0.546099,-1.070345,4.219433,1.528845,-184.941956,274.642731,-36.623611,0,0
5476,2024 8 29,15:35:50.796,-0.350941,0.654194,0.371901,0.557214,-1.221394,0.18193,0.923199,4.924072,208.409821,-43.693203,1,0
5477,2024 8 29,15:35:50.804,-0.356479,0.643344,0.367539,0.569112,-0.904637,-0.006227,0.803316,34.81348,171.88472,-22.095152,0,0
5478,2024 8 29,15:35:50.812,-0.36181,0.635234,0.365201,0.576344,-0.899198,0.332317,0.272688,41.300999,136.914871,-12.843484,0,0
5479,2024 8 29,15:35:50.821,-0.362968,0.633572,0.365004,0.57758,-0.897964,0.345951,0.207226,43.558582,130.599197,-12.694086,0,0
5480,2024 8 29,15:35:50.829,-0.368234,0.626468,0.365744,0.581505,-0.884164,0.104656,0.173482,56.65324,108.107208,-20.900324,0,0
5481,2024 8 29,15:35:50.837,-0.372904,0.619572,0.366786,0.58525,-0.823474,-0.063231,0.180271,53.925293,84.790451,-21.342228,0,0
5482,2024 8 29,15:35:50.846,-0.376632,0.614115,0.367569,0.588122,-0.95344,-0.158547,-0.062449,41.990234,66.035622,-13.693165,0,0
5483,2024 8 29,15:35:50.854,-0.379591,0.609955,0.367382,0.590664,-0.996073,-0.154187,-0.066551,21.121775,60.392899,-4.105235,0,0
5484,2024 8 29,15:35:50.862,-0.381765,0.607016,0.366196,0.593026,-0.982291,-0.063042,0.079308,8.924555,54.099396,3.066206,0,0
5485,2024 8 29,15:35:50.871,-0.382327,0.606284,0.365829,0.593642,-0.981802,-0.04037,0.105505,6.13562,52.169407,4.591015,0,0
5486,2024 8 29,15:35:50.879,-0.383938,0.604403,0.364334,0.595436,-0.996882,0.014542,0.099962,1.090036,44.433208,6.62433,0,0
5487,2024 8 29,15:35:50.887,-0.385538,0.602747,0.362729,0.597059,-0.964359,0.036302,0.111968,-0.383338,36.089893,8.618611,0,0
5488,2024 8 29,15:35:50.896,-0.386931,0.601571,0.361379,0.598162,-0.955588,0.069184,0.149768,1.65343,24.744469,9.2016,0,0
5489,2024 8 29,15:35:50.904,-0.388111,0.600856,0.360597,0.59859,-0.976464,0.105282,0.149519,5.159076,13.178809,8.128531,0,0
5490,2024 8 29,15:35:50.912,-0.389038,0.600488,0.360458,0.598442,-0.986415,0.087904,0.122434,9.37801,3.236557,5.976132,0,0
5491,2024 8 29,15:35:50.921,-0.389312,0.600395,0.360471,0.59835,-0.990736,0.081175,0.111723,10.508148,0.210577,5.22243,0,0
5492,2024 8 29,15:35:50.929,-0.389798,0.60037,0.36097,0.597757,-1.012969,0.055496,0.067496,11.374767,-5.8564,2.901649,0,0
5493,2024 8 29,15:35:50.937,-0.390111,0.600521,0.361717,0.596948,-1.055843,0.031636,0.011252,9.909144,-9.443789,1.119336,0,0
5494,2024 8 29,15:35:50.946,-0.390181,0.600777,0.362423,0.596217,-1.057128,0.018044,-0.001468,6.363933,-9.763751,-0.202312,0,0
5495,2024 8 29,15:35:50.954,-0.390042,0.60111,0.362949,0.595652,-1.037146,0.017484,0.013228,2.701425,-9.08666,-0.642334,0,0
5496,2024 8 29,15:35:50.962,-0.3898,0.601465,0.363329,0.595221,-1.023912,0.028067,0.023375,0.782167,-8.96471,-1.001759,0,0
5497,2024 8 29,15:35:50.971,-0.389702,0.601602,0.363468,0.595062,-1.019351,0.031322,0.027478,0.167623,-9.010808,-1.1023,0,0
5498,2024 8 29,15:35:50.979,-0.389413,0.601967,0.363764,0.5947,-1.013591,0.03234,0.037351,-0.383791,-9.890936,-0.988415,0,0
5499,2024 8 29,15:35:50.987,-0.389058,0.602471,0.364085,0.594226,-1.022042,0.02742,0.02682,-0.854332,-10.832382,-0.261164,0,0
5500,2024 8 29,15:35:50.996,-0.388682,0.603026,0.364342,0.593751,-1.027398,0.028461,0.010401,-1.738886,-10.261949,0.252198,0,0
5501,2024 8 29,15:35:51.004,-0.388184,0.603818,0.364572,0.593131,-1.042282,-0.037113,0.040281,-2.671115,-8.450888,1.326148,0,0
5502,2024 8 29,15:35:51.012,-0.387874,0.604314,0.364467,0.592893,-1.063316,0.021187,-0.030899,-4.69516,-4.817435,1.992567,0,0
5503,2024 8 29,15:35:51.021,-0.387865,0.604329,0.364464,0.592886,-1.063965,0.021471,-0.031234,-4.757659,-4.705241,2.013145,0,0
5504,2024 8 29,15:35:51.029,-0.387658,0.604635,0.36411,0.592927,-1.070407,0.030643,-0.033082,-5.962658,-0.177837,2.357556,0,0
5505,2024 8 29,15:35:51.037,-0.387512,0.604716,0.363555,0.59328,-1.04826,0.032106,-0.021925,-7.050633,4.945057,1.477036,0,0
5506,2024 8 29,15:35:51.046,-0.387406,0.604608,0.362884,0.59387,-1.031495,0.039762,-0.005102,-7.299328,8.217411,0.744683,0,0
5507,2024 8 29,15:35:51.054,-0.387332,0.604375,0.362216,0.594562,-1.029555,0.058371,0.028317,-6.993761,9.712735,-0.249846,0,0
5508,2024 8 29,15:35:51.062,-0.387303,0.603979,0.361656,0.595324,-1.056915,0.057708,0.020139,-4.70152,10.674428,-2.021087,0,0
5509,2024 8 29,15:35:51.071,-0.387374,0.60334,0.361189,0.596209,-1.051189,0.038113,0.016641,-3.427104,13.703268,-3.181839,0,0
5510,2024 8 29,15:35:51.079,-0.387384,0.603257,0.361128,0.596323,-1.050449,0.035582,0.01619,-3.262481,14.094518,-3.331779,0,0
5511,2024 8 29,15:35:51.087,-0.387502,0.602523,0.360676,0.597262,-1.04952,0.04965,0.016126,-3.548289,16.519846,-3.919733,0,0
5512,2024 8 29,15:35:51.096,-0.38769,0.601527,0.360165,0.598449,-1.034748,-0.058067,-0.013291,-2.423943,19.025991,-5.127582,0,0
5513,2024 8 29,15:35:51.104,-0.387993,0.600397,0.359648,0.599697,-1.013069,0.017634,0.049484,-1.737025,20.292154,-4.425817,0,0
5514,2024 8 29,15:35:51.112,-0.388329,0.599308,0.35902,0.600945,-1.033344,0.024703,0.037493,-2.50478,20.2691,-3.26422,0,0
5515,2024 8 29,15:35:51.121,-0.38865,0.59822,0.358315,0.60224,-1.048463,0.033831,0.032119,-3.233948,21.336952,-3.386986,0,0
5516,2024 8 29,15:35:51.129,-0.388714,0.598003,0.358175,0.602498,-1.051469,0.035645,0.03105,-3.378927,21.549271,-3.411396,0,0
5517,2024 8 29,15:35:51.137,-0.388961,0.597044,0.357565,0.603651,-1.049441,0.033747,0.039179,-3.883816,22.25807,-3.938494,0,0
5518,2024 8 29,15:35:51.146,-0.389161,0.595905,0.356841,0.605074,-1.045998,0.056937,0.063447,-4.509916,22.601095,-5.318869,0,0
5519,2024 8 29,15:35:51.154,-0.389317,0.594654,0.35623,0.606562,-1.046317,0.051905,0.063841,-3.77519,22.587393,-7.254145,0,0
5520,2024 8 29,15:35:51.162,-0.38944,0.593304,0.355802,0.608054,-1.021558,0.053622,0.101188,-1.864541,21.899338,-9.132627,0,0
5521,2024 8 29,15:35:51.171,-0.389559,0.591886,0.355624,0.609462,-1.022248,0.053689,0.113729,0.504414,20.330568,-10.682114,0,0
5522,2024 8 29,15:35:51.179,-0.38959,0.59152,0.355578,0.609826,-1.022426,-0.002889,0.062206,1.115991,19.92557,-11.082135,0,0
5523,2024 8 29,15:35:51.187,-0.3897,0.590351,0.355699,0.610817,-1.062586,0.058989,0.087924,3.126647,18.36595,-11.892734,0,0
5524,2024 8 29,15:35:51.196,-0.389931,0.588816,0.355974,0.611988,-1.081667,0.034027,0.03993,6.158426,20.368753,-13.115885,0,0
5525,2024 8 29,15:35:51.204,-0.390204,0.587076,0.356312,0.613288,-1.091564,0.033792,0.023176,7.493714,21.58288,-13.979276,0,0
5526,2024 8 29,15:35:51.212,-0.390565,0.585133,0.356734,0.614667,-1.091749,0.00487,-0.003119,8.56392,23.763182,-15.038474,0,0
5527,2024 8 29,15:35:51.221,-0.390849,0.583116,0.357077,0.616201,-1.08174,-0.0176,0.042304,7.041152,25.552362,-15.693088,0,0
5528,2024 8 29,15:35:51.229,-0.390937,0.582492,0.357184,0.616676,-1.078644,-0.02455,0.056354,6.570136,26.105785,-15.895571,0,0
5529,2024 8 29,15:35:51.237,-0.391046,0.580924,0.357383,0.617968,-1.02848,-0.020853,0.015563,4.61747,24.928852,-16.492577,0,0
5530,2024 8 29,15:35:51.246,-0.390976,0.579199,0.357612,0.619497,-1.054655,-0.001497,0.057426,3.25376,23.290327,-17.618538,0,0
5531,2024 8 29,15:35:51.254,-0.390921,0.578182,0.357746,0.620405,-1.067752,0.011489,0.083066,2.444627,22.562082,-18.309063,0,0
5532,2024 8 29,15:35:51.262,-0.390674,0.576296,0.358,0.622167,-1.068722,0.043658,0.130392,0.798297,23.436869,-19.866377,0,0
5533,2024 8 29,15:35:51.271,-0.390256,0.574409,0.358263,0.62402,-1.076401,-0.005537,0.073815,-1.86631,22.585678,-21.751749,0,0
5534,2024 8 29,15:35:51.279,-0.389578,0.572645,0.358503,0.625925,-1.118841,-0.01409,0.058613,-3.723734,24.072668,-25.625549,0,0
5535,2024 8 29,15:35:51.287,-0.389437,0.572383,0.358538,0.626232,-1.113921,-0.015738,0.052802,-4.045903,24.235542,-26.462036,0,0
5536,2024 8 29,15:35:51.296,-0.388147,0.570493,0.358858,0.628569,-1.047144,-0.021181,0.008397,-6.453257,23.99507,-34.10183,0,0
5537,2024 8 29,15:35:51.304,-0.38594,0.568668,0.359994,0.630925,-1.2671,0.063845,0.116871,-7.442345,11.194245,-45.935059,0,0
5538,2024 8 29,15:35:51.312,-0.382195,0.566923,0.362312,0.633439,-1.655562,0.10894,0.033054,-12.305704,1.050177,-68.806503,0,0
5539,2024 8 29,15:35:51.321,-0.376049,0.564892,0.365881,0.636864,-1.813207,0.134263,0.001013,-19.52874,-2.474514,-101.516068,0,0
5540,2024 8 29,15:35:51.329,-0.368642,0.562089,0.370323,0.641093,-1.982538,0.121725,-0.026217,-25.127439,-2.446142,-133.356812,0,0
5541,2024 8 29,15:35:51.337,-0.366878,0.5614,0.37136,0.64211,-2.001702,0.115474,-0.038602,-26.392073,-2.03599,-140.250885,0,0
5542,2024 8 29,15:35:51.346,-0.357421,0.557594,0.376791,0.647544,-1.957843,0.054496,-0.155064,-32.311455,1.158804,-171.49469,0,0
5543,2024 8 29,15:35:51.354,-0.344411,0.553056,0.38455,0.653858,-2.032631,-0.064846,-0.385194,-37.513027,-17.606068,-207.700684,0,0
5544,2024 8 29,15:35:51.362,-0.327627,0.548675,0.393878,0.660544,-1.975485,-0.244301,-0.725191,-56.36174,-37.814301,-244.78508,0,0
5545,2024 8 29,15:35:51.371,-0.306547,0.545057,0.403697,0.667635,-1.821948,-0.379187,-0.9036,-87.224243,-60.992859,-276.767944,0,0
5546,2024 8 29,15:35:51.379,-0.282749,0.542811,0.412207,0.674729,-1.46154,-0.369351,-1.225608,-129.660263,-87.875977,-297.671997,0,0
5547,2024 8 29,15:35:51.387,-0.275928,0.542416,0.41438,0.676618,-1.372965,-0.349918,-1.294607,-141.601395,-96.255951,-301.422852,0,1
5548,2024 8 29,15:35:51.396,-0.250415,0.543563,0.419751,0.68215,-1.182292,-0.149405,-1.329813,-183.478424,-134.653214,-293.447662,0,0
5549,2024 8 29,15:35:51.404,-0.218416,0.548633,0.4234,0.686678,-1.009552,-0.25582,-1.350327,-225.231094,-192.267395,-272.956879,0,0
5550,2024 8 29,15:35:51.412,-0.182877,0.55838,0.425876,0.687545,-1.323358,-0.557978,-1.549244,-246.060944,-265.089813,-253.600525,0,0
5551,2024 8 29,15:35:51.421,-0.145305,0.571462,0.42273,0.687607,-1.788531,0.019756,-0.971313,-315.089111,-273.854034,-203.968399,0,0
5552,2024 8 29,15:35:51.429,-0.113107,0.581981,0.412207,0.691303,-1.882699,0.090521,-1.156944,-376.552185,-181.059982,-133.495178,0,0
5553,2024 8 29,15:35:51.437,-0.102962,0.585105,0.408086,0.692959,-1.86644,0.147055,-1.164324,-396.652283,-150.605728,-111.096405,0,0
5554,2024 8 29,15:35:51.446,-0.079816,0.59001,0.389234,0.702447,-1.340782,0.633433,-0.664102,-448.184906,-69.612244,-57.994255,0,0
5555,2024 8 29,15:35:51.454,-0.056477,0.593312,0.362687,0.715813,-1.015734,-0.089688,0.203039,-469.034882,-15.278656,-9.341541,0,0
5556,2024 8 29,15:35:51.462,-0.032856,0.59603,0.333457,0.728999,-0.749881,1.068999,-0.451092,-470.857971,-14.092324,-0.442389,0,0
5557,2024 8 29,15:35:51.471,-0.008538,0.598658,0.304846,0.739946,-0.554739,1.30395,-0.220455,-453.004974,-34.759346,-14.232519,0,0
5558,2024 8 29,15:35:51.479,0.014891,0.601858,0.27971,0.747243,-0.462465,1.524486,0.003361,-418.57666,-69.787827,-29.488808,0,0
5559,2024 8 29,15:35:51.487,0.023454,0.603145,0.270663,0.749648,-0.438479,1.600421,0.091228,-404.695496,-82.595528,-34.452175,0,0
5560,2024 8 29,15:35:51.496,0.041672,0.607329,0.253088,0.751562,-0.496124,1.702256,0.342664,-359.12735,-109.087036,-37.600819,0,0
5561,2024 8 29,15:35:51.504,0.069105,0.615299,0.227562,0.751545,-0.504297,1.756146,0.616841,-272.496826,-134.416077,-36.935452,0,0
5562,2024 8 29,15:35:51.512,0.085697,0.622946,0.213286,0.74772,-0.472666,1.649328,0.637566,-209.456207,-159.152191,-34.9132,0,0
5563,2024 8 29,15:35:51.521,0.099585,0.632509,0.202079,0.741051,-0.523008,1.509631,0.725333,-158.611313,-185.977829,-30.542692,0,0
5564,2024 8 29,15:35:51.529,0.111098,0.643481,0.192891,0.732362,-0.608741,1.362105,0.69486,-120.330399,-204.091751,-22.205736,0,0
5565,2024 8 29,15:35:51.537,0.120457,0.655516,0.184524,0.722291,-0.773241,1.211977,0.743609,-96.373474,-214.710892,-7.429594,0,0
5566,2024 8 29,15:35:51.546,0.121151,0.656409,0.183904,0.721544,-0.785444,1.20084,0.747226,-94.596268,-215.498657,-6.333451,0,0
5567,2024 8 29,15:35:51.554,0.127797,0.667291,0.176073,0.712287,-0.900788,1.021232,0.717774,-86.23085,-205.061127,11.001358,0,0
5568,2024 8 29,15:35:51.562,0.133819,0.678189,0.166578,0.703104,-0.950488,0.849408,0.651378,-91.95536,-190.036285,30.340445,0,0
5569,2024 8 29,15:35:51.571,0.139389,0.688092,0.155048,0.694986,-0.987226,0.747202,0.620367,-111.150421,-173.329483,50.942924,0,0
5570,2024 8 29,15:35:51.579,0.144981,0.69663,0.140912,0.688306,-1.034219,0.712353,0.611794,-138.834641,-154.599976,71.950394,0,0
5571,2024 8 29,15:35:51.587,0.150873,0.703553,0.123997,0.683222,-1.083331,0.73883,0.646913,-169.29184,-132.777802,91.925468,0,0
5572,2024 8 29,15:35:51.596,0.151772,0.704609,0.121417,0.682447,-1.090821,0.742868,0.652269,-173.937027,-129.449585,94.97197,0,0
5573,2024 8 29,15:35:51.604,0.157159,0.708595,0.104389,0.679868,-1.051924,0.784863,0.62506,-197.622604,-106.431808,109.667336,0,0
5574,2024 8 29,15:35:51.612,0.163533,0.711708,0.083231,0.67799,-0.990074,0.845278,0.577929,-220.584381,-89.969086,124.568359,0,0
5575,2024 8 29,15:35:51.621,0.170156,0.713736,0.059867,0.67666,-0.988665,0.885071,0.527345,-237.906143,-79.669426,138.382614,0,0
5576,2024 8 29,15:35:51.629,0.176747,0.714805,0.035115,0.67555,-1.017277,0.914513,0.511563,-248.457962,-73.10643,148.385208,0,0
5577,2024 8 29,15:35:51.637,0.183091,0.715083,0.00975,0.674386,-1.052888,0.934711,0.536405,-250.941345,-68.935722,153.700134,0,0
5578,2024 8 29,15:35:51.646,0.184478,0.78335,-0.088176,0.586988,-1.060674,0.939127,0.541836,-251.484283,-68.023895,154.862122,0,0
5579,2024 8 29,15:35:51.654,0.189175,0.714829,-0.016532,0.672904,-1.110603,0.952359,0.571227,-245.173309,-67.306145,155.868546,0,0
5580,2024 8 29,15:35:51.662,0.193842,0.714212,-0.039998,0.671188,-1.21466,0.936133,0.619923,-231.052856,-65.900871,155.422867,0,0
5581,2024 8 29,15:35:51.671,0.197533,0.713264,-0.062895,0.669349,-1.317017,0.900332,0.673525,-209.406403,-61.128971,152.378448,0,0
5582,2024 8 29,15:35:51.679,0.199924,0.712158,-0.084021,0.667507,-1.406832,0.838695,0.719055,-182.083069,-56.78083,146.334885,0,0
5583,2024 8 29,15:35:51.687,0.200799,0.71095,-0.102866,0.665915,-1.462457,0.732093,0.704407,-150.366791,-49.369843,140.23378,0,0
5584,2024 8 29,15:35:51.696,0.20104,0.710618,-0.108052,0.665477,-1.477764,0.70276,0.700376,-141.639465,-47.330566,138.554947,0,0
5585,2024 8 29,15:35:51.704,0.200044,0.709607,-0.120665,0.664674,-1.453565,0.562035,0.650399,-114.918694,-41.077705,135.800247,0,0
5586,2024 8 29,15:35:51.712,0.197421,0.708548,-0.133989,0.664021,-1.307156,0.390069,0.498836,-86.847115,-38.570694,135.632401,0,0
5587,2024 8 29,15:35:51.721,0.192985,0.70841,-0.146806,0.662753,-1.254766,0.230912,0.355214,-61.786156,-54.737335,138.101059,0,0
5588,2024 8 29,15:35:51.729,0.186769,0.7097,-0.15895,0.66034,-1.353815,0.079544,0.303931,-39.611504,-74.375351,140.149277,0,0
5589,2024 8 29,15:35:51.737,0.179162,0.711794,-0.170156,0.657388,-1.442925,-0.067151,0.218445,-20.491806,-82.845314,140.551132,0,0
5590,2024 8 29,15:35:51.746,0.176697,0.712473,-0.173788,0.656431,-1.471804,-0.114692,0.19074,-14.295481,-85.590271,140.681366,0,0
5591,2024 8 29,15:35:51.754,0.174911,0.712969,-0.176204,0.65576,-1.488637,-0.148346,0.177739,-10.430951,-86.861458,140.727783,0,0
5592,2024 8 29,15:35:51.762,0.165909,0.715491,-0.185942,0.652653,-1.521722,-0.308477,0.186418,1.602073,-84.933075,140.43576,0,0
5593,2024 8 29,15:35:51.771,0.156622,0.717604,-0.195225,0.649909,-1.457737,-0.461854,0.140934,5.347945,-77.448593,140.102539,0,0
5594,2024 8 29,15:35:51.779,0.147648,0.719562,-0.204507,0.646982,-1.407062,-0.601319,0.178331,-0.076186,-79.222153,138.160019,0,0
5595,2024 8 29,15:35:51.787,0.139551,0.721493,-0.214038,0.643535,-1.414922,-0.735392,0.216223,-11.791306,-81.767586,132.872879,0,0
5596,2024 8 29,15:35:51.796,0.133068,0.723188,-0.223336,0.639842,-1.478243,-0.872402,0.324416,-26.35054,-81.118057,126.367149,0,0
5597,2024 8 29,15:35:51.804,0.132228,0.723389,-0.224695,0.639318,-1.486918,-0.895165,0.337459,-28.537554,-80.268448,125.431992,0,0
5598,2024 8 29,15:35:51.812,0.127713,0.724216,-0.233937,0.635964,-1.53166,-1.076081,0.394109,-43.953598,-66.460304,119.202423,0,0
5599,2024 8 29,15:35:51.821,0.124596,0.723891,-0.244073,0.633135,-1.443426,-1.259037,0.389186,-60.370605,-43.758301,111.580818,0,0
5600,2024 8 29,15:35:51.829,0.123347,0.722575,-0.254179,0.630902,-1.265835,-1.434538,0.388636,-74.878067,-28.0592,100.111633,0,0
5601,2024 8 29,15:35:51.837,0.123832,0.721169,-0.263901,0.628419,-1.154583,-1.512583,0.451786,-86.290474,-27.278969,83.335754,0,0
5602,2024 8 29,15:35:51.846,0.125473,0.720394,-0.272346,0.625377,-1.230932,-1.496426,0.646345,-89.559196,-33.492054,63.567059,0,0
5603,2024 8 29,15:35:51.854,0.125875,0.720243,-0.274047,0.624737,-1.250016,-1.489894,0.689973,-89.505669,-33.963448,59.20739,0,0
5604,2024 8 29,15:35:51.862,0.128283,0.719783,-0.279719,0.622255,-1.357991,-1.422186,0.894426,-78.711113,-24.061974,38.992599,0,0
5605,2024 8 29,15:35:51.871,0.131346,0.718928,-0.283657,0.620822,-1.322451,-1.357776,1.002978,-56.10405,-3.916838,16.227655,0,0
5606,2024 8 29,15:35:51.879,0.134479,0.718077,-0.284754,0.620634,-1.197318,-1.33853,1.098886,-29.935253,7.841562,-9.037054,0,0
5607,2024 8 29,15:35:51.887,0.14123,0.720827,-0.281555,0.617372,-1.208789,-1.487055,2.91839,-46.63208,-54.338417,-126.411499,0,0
5608,2024 8 29,15:35:51.896,0.154911,0.717047,-0.275661,0.621106,-0.688614,0.098934,-0.781409,-83.516571,130.711945,-138.9823,0,0
5609,2024 8 29,15:35:51.904,0.158452,0.716263,-0.274107,0.621848,-0.623432,0.479051,-1.526763,-91.551544,163.654663,-141.157608,1,0
5610,2024 8 29,15:35:51.912,0.166864,0.717391,-0.27001,0.620128,-1.525078,0.840065,-0.047676,-85.270889,18.457901,-129.091171,0,0
5611,2024 8 29,15:35:51.921,0.176954,0.716995,-0.265911,0.619541,-1.811861,0.250414,-0.156047,-54.138645,72.379822,-112.641113,0,0
5612,2024 8 29,15:35:51.929,0.188213,0.711432,-0.259498,0.625293,-1.272599,0.31337,-0.475555,-40.17028,147.838196,-106.793686,0,0
5613,2024 8 29,15:35:51.937,0.197196,0.706282,-0.252555,0.631178,-1.214252,-0.014484,0.059774,-16.054449,123.545502,-91.64048,0,0
5614,2024 8 29,15:35:51.946,0.203614,0.700809,-0.246398,0.637655,-1.004705,-0.075546,-0.035791,6.147484,135.29126,-61.063286,0,0
5615,2024 8 29,15:35:51.954,0.205498,0.699076,-0.24444,0.639746,-0.944453,-0.086293,-0.061786,13.408124,136.853867,-51.445087,0,0
5616,2024 8 29,15:35:51.962,0.207189,0.695216,-0.239904,0.645097,-0.920527,0.025925,-0.044176,33.010094,105.477249,-31.445875,0,0
5617,2024 8 29,15:35:51.971,0.207447,0.691839,-0.234985,0.650431,-1.070795,0.037037,0.054823,43.359924,89.210167,-21.103378,0,0
5618,2024 8 29,15:35:51.979,0.207487,0.687744,-0.229731,0.656601,-1.01192,-0.025992,0.058244,46.924919,96.878807,-16.926546,0,0
5619,2024 8 29,15:35:51.987,0.206867,0.684045,-0.224625,0.662402,-1.032179,0.00659,-0.063941,52.073421,83.105507,-10.920961,0,0
5620,2024 8 29,15:35:51.996,0.205514,0.680484,-0.219793,0.668087,-1.006786,-0.012257,0.009356,54.241199,81.809731,-3.720649,0,0
5621,2024 8 29,15:35:52.004,0.203523,0.67535,-0.213599,0.67591,-0.936911,-0.017515,-0.001335,43.586174,69.545624,0.377573,0,0
5622,2024 8 29,15:35:52.012,0.2035,0.675289,-0.213526,0.676002,-0.936088,-0.017577,-0.001461,43.460674,69.401169,0.425844,0,0
5623,2024 8 29,15:35:52.021,0.202643,0.672883,-0.210653,0.67955,-0.963141,0.017434,0.147924,31.961624,49.61544,-1.440116,0,0
5624,2024 8 29,15:35:52.029,0.201971,0.670903,-0.20827,0.682436,-0.942719,-0.003563,0.123144,24.573473,39.170017,-1.635653,0,0
5625,2024 8 29,15:35:52.037,0.201784,0.669564,-0.206718,0.684276,-0.966854,0.070281,0.124866,11.764393,24.091497,-3.512343,0,0
5626,2024 8 29,15:35:52.046,0.201851,0.668726,-0.205726,0.685375,-0.987309,0.037365,0.082695,5.712332,15.592558,-4.038467,0,0
5627,2024 8 29,15:35:52.054,0.202228,0.668261,-0.205241,0.685862,-1.000486,0.04196,0.059301,-0.513205,7.345881,-5.015876,0,0
5628,2024 8 29,15:35:52.062,0.202266,0.668214,-0.205193,0.685911,-1.001811,0.042421,0.056949,-1.138996,6.516924,-5.114125,0,0
5629,2024 8 29,15:35:52.071,0.202922,0.668131,-0.20512,0.68582,-1.033877,0.058644,0.012001,-5.571809,0.890808,-7.093347,0,0
5630,2024 8 29,15:35:52.079,0.203786,0.668284,-0.205168,0.685401,-1.06897,0.049796,-0.019273,-7.967885,-3.386189,-8.549639,0,0
5631,2024 8 29,15:35:52.087,0.204824,0.668478,-0.205302,0.684861,-1.054014,0.053111,0.035483,-10.833014,-2.948092,-9.320644,0,0
5632,2024 8 29,15:35:52.096,0.205967,0.668568,-0.205527,0.684363,-1.030152,0.052798,0.019726,-12.132513,-2.98367,-8.927949,0,0
5633,2024 8 29,15:35:52.104,0.207094,0.668786,-0.205884,0.683703,-1.072872,0.054354,0.023986,-12.746342,-5.249722,-8.562516,0,0
5634,2024 8 29,15:35:52.112,0.207291,0.668824,-0.205946,0.683587,-1.080333,0.054626,0.02473,-12.853539,-5.645458,-8.498698,0,0
5635,2024 8 29,15:35:52.121,0.208289,0.668837,-0.206227,0.683185,-1.069209,0.057413,0.004149,-12.775724,-1.467579,-8.291372,0,0
5636,2024 8 29,15:35:52.129,0.209427,0.668739,-0.20652,0.682845,-1.030763,0.065676,0.038672,-12.51935,-0.067222,-7.816668,0,0
5637,2024 8 29,15:35:52.137,0.210506,0.668691,-0.20682,0.68247,-1.044109,0.059395,0.013475,-11.895271,-1.251843,-7.432797,0,0
5638,2024 8 29,15:35:52.146,0.211589,0.668662,-0.207132,0.682069,-1.066173,0.066294,0.00987,-11.947295,-0.711343,-7.490136,0,0
5639,2024 8 29,15:35:52.154,0.212713,0.668495,-0.207353,0.681815,-1.074163,0.067493,-0.005043,-11.541945,2.239362,-8.013094,0,0
5640,2024 8 29,15:35:52.162,0.21298,0.668455,-0.207406,0.681755,-1.07606,0.067778,-0.008584,-11.445687,2.940064,-8.13728,0,0
5641,2024 8 29,15:35:52.171,0.213962,0.668194,-0.207475,0.681682,-1.077975,0.06821,-0.016329,-11.195943,4.694921,-8.981438,0,0
5642,2024 8 29,15:35:52.179,0.215174,0.667795,-0.207435,0.681704,-1.084893,0.068321,-0.004388,-10.328508,7.421103,-10.045878,0,0
5643,2024 8 29,15:35:52.187,0.216488,0.667213,-0.207173,0.681937,-1.074384,0.080343,0.018534,-8.68743,11.142737,-11.386539,0,0
5644,2024 8 29,15:35:52.196,0.217747,0.666536,-0.206625,0.682364,-1.06732,0.068656,0.006702,-5.667466,13.513824,-12.364069,0,0
5645,2024 8 29,15:35:52.204,0.218895,0.665797,-0.20584,0.682955,-1.043975,0.055709,0.03985,-2.575042,15.906204,-12.425487,0,0
5646,2024 8 29,15:35:52.212,0.219229,0.665582,-0.205611,0.683127,-1.037172,0.051936,0.049509,-1.673871,16.603374,-12.443384,0,0
5647,2024 8 29,15:35:52.221,0.22008,0.664925,-0.204859,0.683718,-1.022018,0.043407,0.018776,-1.235684,17.106529,-12.448748,0,0
5648,2024 8 29,15:35:52.229,0.221053,0.664241,-0.204016,0.684321,-1.031316,0.046434,0.02893,-1.183936,15.391646,-12.242651,0,0
5649,2024 8 29,15:35:52.237,0.222028,0.663515,-0.203071,0.684991,-1.04148,0.052975,0.036079,0.105759,16.534521,-12.341908,0,0
5650,2024 8 29,15:35:52.246,0.222936,0.66272,-0.20195,0.685796,-1.029495,0.056065,0.05756,2.187914,17.878771,-12.577068,0,0
5651,2024 8 29,15:35:52.254,0.223415,0.66229,-0.201335,0.686237,-1.023362,0.056227,0.068222,3.368416,18.617342,-12.674629,0,0
5652,2024 8 29,15:35:52.262,0.22407,0.66147,-0.19999,0.687208,-1.019192,0.023863,0.067883,6.800193,20.277878,-12.219856,0,0
5653,2024 8 29,15:35:52.271,0.224113,0.66142,-0.1999,0.687268,-1.020183,0.024296,0.065444,6.915798,20.163963,-12.209886,0,0
5654,2024 8 29,15:35:52.279,0.224735,0.660734,-0.198564,0.688111,-1.046887,0.055762,0.011223,7.409962,16.365616,-12.298314,0,0
5655,2024 8 29,15:35:52.287,0.225319,0.660139,-0.19713,0.688903,-1.052354,0.056823,0.105515,5.97754,16.643673,-13.112243,0,0
5656,2024 8 29,15:35:52.296,0.225965,0.65936,-0.195608,0.68987,-1.052442,-0.013046,0.018871,7.251842,19.420292,-13.029471,0,0
5657,2024 8 29,15:35:52.304,0.226722,0.658626,-0.194171,0.690728,-1.033688,0.020329,0.074736,4.411297,17.655169,-13.501222,0,0
5658,2024 8 29,15:35:52.312,0.227465,0.657917,-0.192827,0.691536,-1.01643,0.027403,0.112748,5.531014,17.478918,-13.652279,0,0
5659,2024 8 29,15:35:52.321,0.227576,0.657816,-0.192625,0.691652,-1.016396,0.02933,0.113877,5.604171,17.395546,-13.734784,0,0
5660,2024 8 29,15:35:52.329,0.228301,0.657262,-0.191279,0.692313,-1.066672,0.05781,0.035845,4.331099,15.649032,-15.50267,0,0
5661,2024 8 29,15:35:52.337,0.229172,0.656919,-0.189743,0.692773,-1.109191,0.049704,0.088317,6.217827,12.431076,-18.186256,0,0
5662,2024 8 29,15:35:52.346,0.230232,0.65654,-0.187941,0.693271,-1.106975,0.033408,-0.015437,5.590421,14.683194,-21.299383,0,0
5663,2024 8 29,15:35:52.354,0.231696,0.656279,-0.186186,0.693505,-1.087886,-0.024016,0.067267,0.837588,10.87062,-25.959412,0,0
5664,2024 8 29,15:35:52.362,0.233605,0.656034,-0.184533,0.693537,-1.12242,-0.016805,0.039602,-1.280267,11.162883,-29.017046,0,0
5665,2024 8 29,15:35:52.371,0.234031,0.655984,-0.18418,0.693535,-1.132167,-0.013835,0.036783,-1.859686,11.138095,-29.724245,0,0
5666,2024 8 29,15:35:52.379,0.236161,0.655838,-0.182796,0.693316,-1.225114,0.03108,0.098999,-7.215163,9.167766,-33.923275,0,0
5667,2024 8 29,15:35:52.387,0.239305,0.655492,-0.181124,0.693002,-1.250002,0.038889,0.113844,-13.039188,13.63311,-41.725094,0,0
5668,2024 8 29,15:35:52.396,0.243337,0.654927,-0.179086,0.692659,-1.291366,-0.010803,0.021321,-17.790752,15.975956,-51.124554,0,0
5669,2024 8 29,15:35:52.404,0.248307,0.654316,-0.176871,0.692039,-1.331375,-0.026565,0.063537,-22.583845,18.453789,-59.631031,0,0
5670,2024 8 29,15:35:52.412,0.254098,0.653184,-0.174119,0.6917,-1.324314,0.005201,0.069817,-26.022549,28.523567,-68.425377,0,0
5671,2024 8 29,15:35:52.421,0.260224,0.651862,-0.170869,0.691477,-1.315229,0.005689,0.137116,-24.378593,32.623795,-75.88324,0,0
5672,2024 8 29,15:35:52.429,0.261955,0.651486,-0.169933,0.691419,-1.313288,0.006338,0.154418,-23.80658,33.81123,-77.966225,0,0
5673,2024 8 29,15:35:52.437,0.267365,0.650218,-0.166502,0.691368,-1.324803,0.021783,0.16137,-19.062963,38.244251,-83.868416,0,0
5674,2024 8 29,15:35:52.446,0.273872,0.648739,-0.1617,0.691339,-1.355165,0.024914,0.161343,-13.110037,41.3563,-92.558792,0,0
5675,2024 8 29,15:35:52.454,0.28092,0.647328,-0.15586,0.691165,-1.506253,0.073826,0.122062,-8.377254,42.447239,-103.839043,0,0
5676,2024 8 29,15:35:52.462,0.288431,0.645881,-0.148826,0.690964,-1.688795,0.086288,0.060796,-4.088946,49.484272,-117.237617,0,0
5677,2024 8 29,15:35:52.471,0.29645,0.644142,-0.140533,0.690918,-1.867951,0.035577,-0.009697,1.798875,60.513939,-133.227142,0,0
5678,2024 8 29,15:35:52.479,0.299123,0.643555,-0.137755,0.690904,-1.928875,0.021976,-0.034258,3.618562,64.178375,-138.669022,0,0
5679,2024 8 29,15:35:52.487,0.306761,0.641655,-0.129416,0.690902,-2.138835,0.081211,-0.133048,4.614817,74.30455,-157.624359,0,0
5680,2024 8 29,15:35:52.496,0.31698,0.638974,-0.117852,0.690788,-2.408707,0.134088,-0.165935,8.202658,88.480995,-184.416229,0,0
5681,2024 8 29,15:35:52.504,0.335441,0.633238,-0.096672,0.690748,-2.800198,0.191303,-0.428908,7.816531,123.656189,-236.818619,0,0
5682,2024 8 29,15:35:52.512,0.352032,0.627134,-0.077972,0.690419,-2.946764,0.222778,-0.59318,0.921089,150.510361,-281.967804,0,0
5683,2024 8 29,15:35:52.521,0.37165,0.618596,-0.0563,0.68993,-3.106779,0.18339,-0.728409,-8.43576,187.041977,-327.979614,0,0
5684,2024 8 29,15:35:52.529,0.372469,0.61824,-0.055395,0.68991,-3.113456,0.181747,-0.734052,-8.826201,188.566376,-329.899597,0,0
5685,2024 8 29,15:35:52.537,0.393934,0.608026,-0.032148,0.688477,-3.269637,-0.031669,-0.6687,-18.189415,207.731293,-374.902222,0,0
5686,2024 8 29,15:35:52.546,0.419047,0.594672,-0.006056,0.685987,-3.295495,-0.160157,-0.718885,-35.244278,232.11821,-408.93573,0,1
5687,2024 8 29,15:35:52.554,0.445014,0.579066,0.019897,0.682682,-3.484774,-0.148304,-0.419297,-57.340462,239.252487,-408.112213,0,0
5688,2024 8 29,15:35:52.562,0.469933,0.559706,0.045087,0.680901,-2.924366,0.16517,-0.204886,-71.642952,293.161743,-386.56604,0,0
5689,2024 8 29,15:35:52.571,0.49257,0.536727,0.070682,0.681194,-2.248511,0.197448,-1.207386,-70.215462,314.353912,-361.822998,0,0
5690,2024 8 29,15:35:52.579,0.495409,0.533846,0.073892,0.681231,-2.163759,0.201496,-1.3331,-70.036453,317.011414,-358.720245,0,0
5691,2024 8 29,15:35:52.587,0.515758,0.515278,0.091841,0.678119,-1.533237,0.544792,-1.114085,-107.833832,244.579559,-358.809631,0,0
5692,2024 8 29,15:35:52.596,0.53938,0.497576,0.107162,0.670628,0.081527,0.64571,-1.509688,-128.199005,147.959656,-353.008087,0,0
5693,2024 8 29,15:35:52.604,0.56275,0.481564,0.115091,0.661752,1.342231,0.695456,-2.871077,-187.931412,79.144394,-284.770569,0,0
5694,2024 8 29,15:35:52.612,0.584061,0.470835,0.109258,0.651952,-0.410211,1.493039,-0.382077,-230.142365,-51.700317,-182.896545,0,0
5695,2024 8 29,15:35:52.621,0.599175,0.460743,0.099507,0.647032,-0.535449,2.046719,-0.748312,-206.720627,-31.439363,-99.095619,0,0
5696,2024 8 29,15:35:52.629,0.602132,0.458769,0.097599,0.64607,-0.559949,2.155037,-0.81996,-202.13855,-27.475639,-82.70134,0,0
5697,2024 8 29,15:35:52.637,0.608922,0.454305,0.089831,0.643978,-0.128606,1.954416,-0.396816,-136.117065,-41.426529,-37.539516,0,0
5698,2024 8 29,15:35:52.646,0.612382,0.453806,0.082821,0.641996,0.288326,1.710841,-0.570358,-57.35334,-72.189636,-5.094086,0,0
5699,2024 8 29,15:35:52.654,0.61245,0.459768,0.076433,0.638468,0.271812,1.481847,-0.685447,15.316193,-118.847198,13.492983,0,0
5700,2024 8 29,15:35:52.662,0.60958,0.47162,0.069933,0.633258,0.036944,1.274446,-0.748594,68.246201,-171.399063,30.169931,0,0
5701,2024 8 29,15:35:52.671,0.604195,0.487704,0.062388,0.626934,-0.236973,1.064849,-0.707298,100.321594,-206.956131,50.473259,0,0
5702,2024 8 29,15:35:52.679,0.602819,0.491813,0.060461,0.625318,-0.306938,1.011312,-0.69675,108.514481,-216.038315,55.659248,0,0
5703,2024 8 29,15:35:52.687,0.596476,0.506661,0.053203,0.620109,-0.440573,0.837173,-0.654761,113.462761,-227.887314,74.114151,0,0
5704,2024 8 29,15:35:52.696,0.588055,0.524086,0.043074,0.614349,-0.537468,0.646867,-0.564782,103.695595,-235.008331,95.731483,0,0
5705,2024 8 29,15:35:52.704,0.578984,0.541201,0.030195,0.608816,-0.576179,0.446334,-0.490794,76.983498,-242.360092,115.962631,0,0
5706,2024 8 29,15:35:52.712,0.570568,0.556994,0.013755,0.60304,-0.6685,0.285188,-0.417857,33.753155,-259.100952,130.229492,0,0
5707,2024 8 29,15:35:52.721,0.563757,0.571107,-0.00695,0.596263,-0.928392,0.258912,-0.199782,-19.733868,-281.989075,138.491074,0,0
5708,2024 8 29,15:35:52.729,0.561666,0.575439,-0.013305,0.594183,-1.008165,0.250847,-0.132845,-36.151367,-289.014435,141.026917,0,0
