frame,date,time,quaternion_x_left,quaternion_y_left,quaternion_z_left,quaternion_w_left,accel_x_left,accel_y_left,accel_z_left,gyro_x_left,gyro_y_left,gyro_z_left,HS_left,TO_left,filtered_quaternion_x_left,filtered_quaternion_y_left,filtered_quaternion_z_left,filtered_quaternion_w_left,filtered_accel_x_left,filtered_accel_y_left,filtered_accel_z_left,filtered_gyro_x_left,filtered_gyro_y_left,filtered_gyro_z_left,quaternion_x_right,quaternion_y_right,quaternion_z_right,quaternion_w_right,accel_x_right,accel_y_right,accel_z_right,gyro_x_right,gyro_y_right,gyro_z_right,HS_right,TO_right,filtered_quaternion_x_right,filtered_quaternion_y_right,filtered_quaternion_z_right,filtered_quaternion_w_right,filtered_accel_x_right,filtered_accel_y_right,filtered_accel_z_right,filtered_gyro_x_right,filtered_gyro_y_right,filtered_gyro_z_right
3246,2024 10 19,05:24:37.040,-0.337504,0.660745,0.369362,0.559535,-0.936552,0.032716,-0.087893,0.915527,-0.976563,1.89209,0,0,-0.337504,0.660745,0.369362,0.559535,-0.936552,0.032716,-0.087893,0.915527,-0.976563,1.89209,0.581662,0.626103,-0.151935,0.496569,-0.366222,1.485397,-0.776879,11.901855,-21.362305,-13.061523,0,0,0.581662,0.626103,-0.151935,0.496569,-0.366222,1.485397,-0.776879,11.901855,-21.362305,-13.061523
3247,2024 10 19,05:24:37.048,-0.337513,0.660538,0.369483,0.559693,-0.936552,0.029298,-0.085452,0.976563,-0.854492,2.197266,0,0,-0.33750445,0.66073465,0.36936805,0.5595429000000001,-0.936552,0.0325451,-0.08777095,0.9185788,-0.97045945,1.9073488,0.579678,0.628985,-0.153157,0.494868,-0.258797,1.507859,-1.014679,24.536133,-44.433594,0.061035,0,0,0.5815627999999999,0.6262471,-0.1519960999999999,0.49648395,-0.3608507499999999,1.4865201,-0.7887689999999999,12.5335689,-22.51586945,-12.4053951
3248,2024 10 19,05:24:37.057,-0.337518,0.660311,0.36962,0.559868,-0.93997,0.033204,-0.089358,1.037598,-1.037598,2.441406,0,0,-0.3375051275,0.6607134674999999,0.3693806475,0.5595591550000001,-0.9367229,0.032578045,-0.0878503024999999,0.92452976,-0.9738163774999998,1.93405166,0.575825,0.633734,-0.157159,0.492044,-0.41554,1.566942,-0.78225,31.12793,-85.083008,21.972656,0,0,0.58127591,0.6266214449999998,-0.1522542449999999,0.4962619525,-0.3635852124999999,1.4905411949999998,-0.7884430499999999,13.463286954999996,-25.6442263775,-10.686492544999998
3249,2024 10 19,05:24:37.065,-0.337526,0.660063,0.369766,0.560058,-0.9429,0.032228,-0.086428,1.098633,-1.342773,2.624512,0,0,-0.337506171125,0.6606809441249999,0.369399915125,0.5595840972500001,-0.937031755,0.03256054275,-0.0877791873749999,0.9332349219999998,-0.9922642086249998,1.968574677,0.570352,0.639234,-0.163554,0.489212,-0.5674,1.531297,-0.751488,34.057617,-104.492188,46.630859,0,0,0.5807297145,0.6272520727499998,-0.1528192327499999,0.495909454875,-0.3737759518749999,1.4925789852499998,-0.7865952974999999,14.493003457249996,-29.586624458625,-7.820624967749997
3250,2024 10 19,05:24:37.073,-0.33754,0.659799,0.369898,0.560275,-0.943876,0.032716,-0.08594,0.915527,-1.708984,2.624512,0,0,-0.3375078625687499,0.6606368469187499,0.3694248193687499,0.5596186423875,-0.93737396725,0.0325683156124999,-0.0876872280062499,0.9323495258999998,-1.0281001981937496,2.00137154315,0.570352,0.639234,-0.163554,0.489212,-0.5674,1.531297,-0.751488,34.057617,-104.492188,46.630859,0,0,0.580210828775,0.6278511691124998,-0.1533559711124999,0.4955745821312499,-0.3834571542812499,1.4945148859874997,-0.7848399326249998,15.471234134387496,-33.331902635693744,-5.098050769362497
3251,2024 10 19,05:24:37.082,-0.337557,0.659515,0.370032,0.560511,-0.937529,0.032716,-0.08301,1.037598,-2.01416,2.746582,0,0,-0.3375103194403124,0.6605807545728124,0.3694551784003124,0.559663260268125,-0.9373817188874998,0.032575699831875,-0.0874533666059374,0.9376119496049996,-1.077403188284062,2.0386320659925,0.563522,0.645075,-0.172231,0.486475,-0.713889,1.436079,-0.63039,32.592773,-122.924805,70.373535,0,0,0.57937638733625,0.6287123606568747,-0.1542997225568749,0.4951196030246874,-0.3999787465671873,1.4915930916881248,-0.7771174359937498,16.32731107766812,-37.81154775390905,-1.3244714808943718
3252,2024 10 19,05:24:37.090,-0.337557,0.659515,0.370032,0.560511,-0.937529,0.032716,-0.08301,1.037598,-2.01416,2.746582,0,0,-0.3375126534682967,0.6605274668441717,0.3694840194802968,0.5597056472547186,-0.9373890829431248,0.0325827148402812,-0.0872311982756405,0.9426112521247496,-1.1242410288698588,2.0740295626928744,0.55581,0.650606,-0.182875,0.48409,-0.806177,1.332072,-0.560076,25.512695,-131.286621,92.163086,0,0,0.5781980679694375,0.629807042624031,-0.1557284864290312,0.494568122873453,-0.4202886592388279,1.4836170371037185,-0.7662653641940623,16.786580273784715,-42.4853014162136,3.349906393150348
3253,2024 10 19,05:24:37.098,-0.337596,0.659221,0.370176,0.560737,-0.94583,0.042482,-0.087893,1.403809,-1.831055,2.624512,0,0,-0.3375168207948819,0.6604621435019632,0.3695186185062819,0.5597572148919826,-0.9378111287959684,0.0330776790982671,-0.0872642883618585,0.9656711395185122,-1.1595817274263658,2.1015536845582306,0.547512,0.655608,-0.195569,0.481832,-0.910672,1.259316,-0.457533,14.343262,-143.005371,112.304688,0,0,0.5766637645709656,0.6310970904928295,-0.1577205121075796,0.4939313167297803,-0.4448078262768865,1.4724019852485324,-0.7508287459843592,16.664414360095478,-47.51130489540292,8.79764547349283
3254,2024 10 19,05:24:37.107,-0.337627,0.658953,0.370265,0.560975,-0.946806,0.038575,-0.094729,0.671387,-2.075195,2.075195,0,0,-0.3375223297551378,0.660386686326865,0.3695559375809678,0.5598181041473834,-0.93826087235617,0.0333525451433538,-0.0876375239437656,0.9509569325425866,-1.2053623910550475,2.100235750330319,0.538821,0.659786,-0.210275,0.479728,-1.017609,1.22074,-0.363292,1.342773,-150.024414,132.568359,0,0,0.5747716263424173,0.632531535968188,-0.1603482365022006,0.4932211508932913,-0.4734478849630422,1.4598188859861057,-0.7314519086851412,15.898332292090704,-52.636960350632776,14.986181149818188
3255,2024 10 19,05:24:37.115,-0.337653,0.658724,0.370319,0.561192,-0.93997,0.039552,-0.0918,0.366211,-1.464844,1.647949,0,0,-0.3375288632673809,0.6603035520105217,0.3695940907019194,0.5598867989400141,-0.9383463287383615,0.0336625178861861,-0.0878456477465773,0.9217196359154572,-1.218336471502295,2.077621412813803,0.529716,0.663096,-0.226893,0.477729,-1.156285,1.199744,-0.209967,-10.192871,-158.203125,151.611328,0,0,0.5725188450252964,0.6340597591697786,-0.1636754746770906,0.4924465433486267,-0.50758974071489,1.4468151416868005,-0.7053776632508841,14.593772127486169,-57.91526858310114,21.81743849232728
3256,2024 10 19,05:24:37.123,-0.337687,0.658532,0.370353,0.561375,-0.942412,0.0459,-0.0918,0.305176,-1.342773,1.159668,0,0,-0.3375367701040118,0.6602149744099957,0.3696320361668234,0.5599612089930134,-0.9385496123014434,0.0342743919918768,-0.0880433653592484,0.8908924541196843,-1.2245582979271803,2.0317237421731127,0.529716,0.663096,-0.226893,0.477729,-1.156285,1.199744,-0.209967,-10.192871,-158.203125,151.611328,0,0,0.5703787027740316,0.6355115712112898,-0.1668363509432361,0.4917106661811954,-0.5400245036791455,1.43446158460246,-0.6806071300883398,13.35443997111186,-62.92966140394608,28.30713296771091
3257,2024 10 19,05:24:37.132,-0.337693,0.658413,0.370331,0.561525,-0.940947,0.039552,-0.100101,-0.366211,-0.610352,0.366211,0,0,-0.3375445815988112,0.6601248756894958,0.3696669843584822,0.5600393985433627,-0.9386694816863712,0.0345382723922829,-0.088646247091286,0.8280372814137,-1.1938479830308213,1.948448105064457,0.520091,0.665474,-0.245125,0.475986,-1.315958,1.155309,-0.066408,-19.165039,-161.682129,170.532227,0,0,0.56786431763533,0.6370096926507252,-0.1707507833960742,0.4909244328721356,-0.5788211784951881,1.4205039553723369,-0.6498971735839228,11.728466022556267,-67.86728478374877,35.41838766932536
3258,2024 10 19,05:24:37.140,-0.337693,0.658413,0.370331,0.561525,-0.940947,0.039552,-0.100101,-0.366211,-0.610352,0.366211,0,0,-0.3375520025188706,0.660039281905021,0.3697001851405581,0.5601136786161945,-0.9387833576020528,0.0347889587726688,-0.0892189847367217,0.768324867343015,-1.1646731838792803,1.8693362498112345,0.509807,0.666778,-0.264565,0.474879,-1.458541,1.094272,0.079592,-23.498535,-159.973145,189.880371,0,0,0.5649614517535634,0.6384981080181888,-0.1754414942262705,0.4901221612285288,-0.6228071695704287,1.40419235760372,-0.6134227149047267,9.967115971428452,-72.47257779456132,43.14148683585909
3259,2024 10 19,05:24:37.148,-0.337697,0.658342,0.370267,0.561648,-0.939482,0.041017,-0.101077,-0.854492,-0.12207,-0.061035,0,0,-0.3375592523929271,0.6599544178097699,0.3697285258835302,0.5601903946853848,-0.93881828972195,0.0351003608340353,-0.0898118854998856,0.6871840239758642,-1.1125430246853163,1.7728176873206725,0.498776,0.666979,-0.284732,0.474646,-1.603565,1.016144,0.221198,-24.291992,-152.893066,207.702637,0,0,0.5616521791658853,0.6399221526172795,-0.180906019514957,0.4893483531671024,-0.6718450610919072,1.3847899397235337,-0.5716916791594903,8.25416057285703,-76.49360220483325,51.369544344066135
3260,2024 10 19,05:24:37.157,-0.337681,0.658329,0.370189,0.561725,-0.935087,0.039552,-0.093753,-0.976563,0.549316,-0.671387,0,0,-0.3375653397732807,0.6598731469192813,0.3697515495893537,0.5602671249511155,-0.9386317252358524,0.0353229427923336,-0.0900089412248913,0.603996672777071,-1.0294500734510503,1.6506074529546386,0.486978,0.666123,-0.305034,0.475487,-1.699271,0.883328,0.317392,-21.179199,-142.822266,221.984863,0,0,0.557918470207591,0.6412321949864155,-0.1871124185392091,0.4886552855087472,-0.7232163580373119,1.359716842737357,-0.5272374952015156,6.782492594214178,-79.81003539459158,59.900310276862825
3261,2024 10 19,05:24:37.165,-0.337637,0.658346,0.370102,0.561789,-0.934599,0.035157,-0.090335,-1.159668,0.854492,-0.488281,0,0,-0.3375689227846166,0.6597967895733173,0.3697690721098859,0.5603432187035596,-0.93843008897406,0.0353146456527169,-0.0900252441636467,0.5158134391382174,-0.9352529697784978,1.5436630303069063,0.474447,0.664355,-0.325095,0.477331,-1.765191,0.727073,0.350597,-15.258789,-131.896973,232.849121,0,0,0.5537448966972114,0.6423883352370947,-0.1940115476122487,0.4880890712333098,-0.7753150901354462,1.3280846506004889,-0.4833457704414398,5.680428514503468,-82.414382274862,68.54775081301969
3262,2024 10 19,05:24:37.173,-0.33759,0.658364,0.370033,0.561841,-0.939482,0.034669,-0.090823,-1.098633,0.976563,-0.366211,0,0,-0.3375699766453858,0.6597251500946515,0.3697822685043916,0.5604181077683816,-0.9384826845253568,0.035282363370081,-0.0900651319554644,0.4350911171813065,-0.8396621712895729,1.4481693287915611,0.474447,0.664355,-0.325095,0.477331,-1.765191,0.727073,0.350597,-15.258789,-131.896973,232.849121,0,0,0.5497800018623508,0.6434866684752399,-0.2005657202316363,0.4875511676716443,-0.8248088856286738,1.2980340680704645,-0.4416486319193678,4.633467638778295,-84.8885118111189,76.7628193223687
3263,2024 10 19,05:24:37.182,-0.337538,0.658373,0.369969,0.561904,-0.938505,0.031739,-0.087405,-1.159668,0.854492,-0.183105,0,0,-0.3375683778131164,0.6596575425899189,0.369791605079172,0.5604924023799626,-0.9384838002990892,0.035105195201577,-0.0899321253576912,0.3553531613222412,-0.7549544627250941,1.366605612351983,0.46115,0.661876,-0.34466,0.480074,-1.79693,0.5674,0.369152,-6.469727,-122.253418,241.455078,0,0,0.5453485017692331,0.6444061350514778,-0.2077704342200544,0.4871773092880621,-0.8734149413472401,1.261502364666941,-0.4011086003233994,4.078307906839379,-86.75675712056295,84.99743225625025
3264,2024 10 19,05:24:37.190,-0.337538,0.658373,0.369969,0.561904,-0.938505,0.031739,-0.087405,-1.159668,0.854492,-0.183105,0,0,-0.3375668589224606,0.659593315460423,0.3698004748252134,0.5605629822609643,-0.9384848602841346,0.0349368854414981,-0.0898057690898066,0.2796021032561291,-0.6744821395888394,1.2891200817343835,0.44695,0.658895,-0.363588,0.483628,-1.840876,0.387707,0.396008,4.760742,-113.769531,248.596191,0,0,0.5404285766807714,0.6451305782989039,-0.2155613125090517,0.4869998438236589,-0.921787994279878,1.217812596433594,-0.3612527703072294,4.11242961149741,-88.10739581453481,93.17737019343774
3265,2024 10 19,05:24:37.198,-0.337481,0.658356,0.369933,0.561982,-0.935575,0.031251,-0.090823,-0.915527,0.671387,0.366211,0,0,-0.3375625659763375,0.6595314496874018,0.3698071010839527,0.5606339331479161,-0.9383393672699278,0.0347525911694232,-0.0898566306353163,0.2198456480933226,-0.6071886826093975,1.2429746276476643,0.431886,0.655492,-0.38165,0.488004,-1.857967,0.209967,0.397961,18.066406,-104.858398,253.479004,0,0,0.5350014478467328,0.6456486493839586,-0.2238657468835991,0.487050051632476,-0.968596944565884,1.167420316611914,-0.3232920817918679,4.810128430922539,-88.94494592380808,101.19245188376584
3266,2024 10 19,05:24:37.207,-0.337418,0.658309,0.36992,0.562083,-0.936064,0.030274,-0.089846,-0.854492,0.305176,0.671387,0,0,-0.3375553376775206,0.6594703272030317,0.369812746029755,0.5607063864905203,-0.9382255989064314,0.0345286616109521,-0.0898560991035505,0.1661287656886565,-0.5615704484789276,1.2143952462652814,0.415935,0.651912,-0.398619,0.493063,-1.876034,0.016602,0.405286,33.447266,-97.65625,254.638672,0,0,0.5290481254543962,0.6459618169147607,-0.2326034095394192,0.4873506990508522,-1.01396879733759,1.1098794007813184,-0.2868631777022745,6.241985309376412,-89.38051112761767,108.86476288957756
3267,2024 10 19,05:24:37.215,-0.337354,0.658231,0.369935,0.562203,-0.93704,0.033204,-0.086917,-0.549316,0.183105,1.220703,0,0,-0.3375452707936446,0.65940836084288,0.3698188587282673,0.5607812171659943,-0.9381663189611098,0.0344624285304045,-0.0897091441483729,0.1303565274042236,-0.5243366760549812,1.2147106339520173,0.399277,0.648326,-0.414141,0.498737,-1.877499,-0.190924,0.376965,49.987793,-89.172363,251.159668,0,0,0.5225595691816763,0.6460800260690226,-0.2416802890624482,0.4879200140983096,-1.0571453074707104,1.0448392307422525,-0.2536717688171607,8.429275693907591,-89.37010372123679,115.97950814509866
3268,2024 10 19,05:24:37.223,-0.337283,0.658116,0.369966,0.56236,-0.934111,0.028809,-0.08301,-0.610352,-0.244141,1.647949,0,0,-0.3375321572539624,0.6593437428007359,0.3698262157918539,0.5608601563076945,-0.9379635530130542,0.0341797571038842,-0.0893741869409543,0.0933211010340124,-0.5103268922522322,1.2363725522544164,0.3821,0.644909,-0.428027,0.504862,-1.850154,-0.412122,0.325205,65.979004,-82.519531,243.95752,0,0,0.5155365907225925,0.6460214747655715,-0.2509976246093258,0.4887671133933941,-1.096795742097175,0.9719911692051398,-0.2247279303763027,11.306762109212212,-89.02757508517495,122.37840873784371
3269,2024 10 19,05:24:37.232,-0.337197,0.65797,0.370033,0.562538,-0.934111,0.028809,-0.086428,-0.244141,-0.488281,2.197266,0,0,-0.3375153993912643,0.6592750556606991,0.3698365550022612,0.5609440484923097,-0.9377709253624016,0.03391121924869,-0.0892268775939066,0.0764479959823118,-0.5092245976396205,1.2844172246416956,0.3821,0.644909,-0.428027,0.504862,-1.850154,-0.412122,0.325205,65.979004,-82.519531,243.95752,0,0,0.5088647611864628,0.6459658510272929,-0.2598490933788595,0.4895718577237244,-1.1344636549923164,0.9027855107448828,-0.1972312838574875,14.0403742037516,-88.7021728809162,128.45736430095153
3270,2024 10 19,05:24:37.240,-0.337197,0.65797,0.370033,0.562538,-0.934111,0.028809,-0.086428,-0.244141,-0.488281,2.197266,0,0,-0.337499479421701,0.6592098028776642,0.3698463772521481,0.5610237460676941,-0.9375879290942812,0.0336561082862555,-0.0890869337142112,0.0604185461831962,-0.5081774177576394,1.330059663409611,0.364636,0.641781,-0.440211,0.511245,-1.803766,-0.688498,0.241707,79.956055,-75.683594,233.581543,0,0,0.5016533231271396,0.6457566084759282,-0.2688671887099165,0.4906555148375381,-1.1679287722427003,0.8232213352076387,-0.1752843696646131,17.33615824356402,-88.05124393687038,133.71357323590394
3271,2024 10 19,05:24:37.248,-0.337129,0.65776,0.370144,0.562751,-0.932646,0.030763,-0.095218,0.244141,-1.159668,2.929688,0,0,-0.337480955450616,0.659137312733781,0.3698612583895406,0.5611101087643093,-0.9373408326395672,0.0335114528719427,-0.0893934870285007,0.0696046688740364,-0.5407519468697574,1.41004108023913,0.34726,0.638956,-0.450674,0.517725,-1.735404,-1.038118,0.145512,90.759277,-68.908691,220.64209,0,0,0.4939336569707826,0.6454165780521317,-0.2779575292744206,0.4920089890956612,-1.196302533630565,0.7301543684472567,-0.1592445511813825,21.00731418138582,-87.09411629002686,138.05999907410873
3272,2024 10 19,05:24:37.257,-0.337064,0.657498,0.370315,0.562984,-0.936064,0.029298,-0.091311,0.671387,-1.342773,3.723145,0,0,-0.3374601076780852,0.6590553470970919,0.3698839454700636,0.5612038033260939,-0.9372769910075888,0.0333007802283456,-0.0894893626770756,0.0996937854303346,-0.5808529995262695,1.5256962762271735,0.330464,0.636486,-0.459481,0.523982,-1.603565,-1.514695,0.077639,95.275879,-62.561035,203.735352,0,0,0.4857601741222435,0.6449700491495252,-0.2870337028106996,0.4936076396408781,-1.2166656569490368,0.6179119000248938,-0.1474003736223133,24.72074242231653,-85.86746222552551,141.3437667204033
3273,2024 10 19,05:24:37.265,-0.33702,0.657174,0.370535,0.563244,-0.936064,0.030274,-0.081545,1.220703,-1.89209,4.272461,0,0,-0.3374381022941809,0.6589612797422373,0.3699164981965603,0.5613058131597892,-0.9372163414572094,0.0331494412169283,-0.0890921445432218,0.1557442461588178,-0.646414849549956,1.6630345124158148,0.314978,0.634269,-0.466848,0.529665,-1.476119,-2.044496,0.018067,90.576172,-54.931641,184.082031,0,0,0.4772210654161313,0.644434996692049,-0.2960244176701646,0.4954105076588342,-1.229638324101585,0.4847915050236491,-0.1391270049411977,28.0135139012007,-84.32067116424923,143.48067993438312
3274,2024 10 19,05:24:37.273,-0.33701,0.656799,0.370787,0.563522,-0.943876,0.032716,-0.077639,2.01416,-2.502441,4.455566,0,0,-0.3374166971794718,0.6588531657551253,0.3699600232867323,0.5614166225017998,-0.9375493243843488,0.0331277691560819,-0.0885194873160607,0.2486650338508769,-0.7392161570724581,1.802661086795024,0.300926,0.63297,-0.473235,0.533705,-1.3726,-2.517167,0.007324,80.383301,-69.091797,158.38623,0,0,0.4684063121453247,0.6438617468574465,-0.3048849467866563,0.4973252322758925,-1.2367864078965056,0.3346935797724666,-0.1318044546941378,30.632003256140663,-83.55922745603678,144.22595743766394
3275,2024 10 19,05:24:37.282,-0.337074,0.656347,0.371052,0.563835,-0.938017,0.041505,-0.090335,2.807617,-3.601074,4.394531,0,0,-0.3373995623204983,0.658727857467369,0.3700146221223956,0.5615375413767097,-0.9375727081651314,0.0335466306982778,-0.0886102629502577,0.376612632158333,-0.8823090492188351,1.9322545824552728,0.300926,0.63297,-0.473235,0.533705,-1.3726,-2.517167,0.007324,80.383301,-69.091797,158.38623,0,0,0.4600322965380585,0.643317159514574,-0.3133024494473235,0.4991442206620978,-1.2435770875016805,0.1921005507838432,-0.1248480319594309,33.11956814333363,-82.83585593323494,144.93397106578072
3276,2024 10 19,05:24:37.290,-0.337074,0.656347,0.371052,0.563835,-0.938017,0.041505,-0.090335,2.807617,-3.601074,4.394531,0,0,-0.3373832842044734,0.6586088145940004,0.3700664910162758,0.5616524143078742,-0.9375949227568748,0.0339445491633639,-0.0886964998027448,0.4981628505504164,-1.0182472967578933,2.0553684033325093,0.288905,0.633038,-0.478414,0.535646,-1.366253,-2.841395,0.31251,65.856934,-67.871094,122.436523,0,0,0.4514759317111556,0.6428032015388453,-0.3215580269749573,0.500969309628993,-1.2497108831265962,0.040425773244651,-0.1029801303614593,34.75643643616695,-82.08761783657319,143.8090986624917
3277,2024 10 19,05:24:37.298,-0.337147,0.655932,0.371287,0.56412,-0.942412,0.049806,-0.095218,2.01416,-2.868652,3.723145,0,0,-0.3373714699942497,0.6584749738643003,0.370127516465462,0.5617757935924804,-0.937835776619031,0.0347376217051957,-0.0890225748126076,0.5739627080228956,-1.1107675319199986,2.138757233165884,0.280284,0.633734,-0.481739,0.536423,-1.182165,-2.998138,0.316904,48.217773,-61.462402,81.726074,0,0,0.4429163351255977,0.6423497414619029,-0.3295670756262094,0.5027419941475433,-1.2463335889702662,-0.1115024154175814,-0.0819859238433863,35.4295032643586,-81.05635704474452,140.7049474293671
3278,2024 10 19,05:24:37.307,-0.337205,0.655572,0.371464,0.564387,-0.946318,0.054201,-0.086917,2.01416,-2.563477,3.051758,0,0,-0.3373631464945372,0.6583298251710853,0.3701943406421889,0.5619063539128564,-0.9382598877880792,0.0357107906199359,-0.0889172960719772,0.6459725726217508,-1.1834030053239986,2.184407271507589,0.27423,0.635579,-0.483876,0.535445,-1.193396,-3.061129,0.584979,30.822754,-59.814453,48.339844,0,0,0.4344820183693178,0.6420112043888078,-0.337282521844899,0.5043771444401661,-1.243686709521753,-0.2589837446467024,-0.048637677651217,35.19916580114067,-79.99426184250729,136.08669225789876
3279,2024 10 19,05:24:37.315,-0.337248,0.655275,0.37156,0.564643,-0.949736,0.045412,-0.095218,0.671387,-2.502441,2.13623,0,0,-0.3373573891698104,0.6581770839125309,0.3702626236100794,0.5620431862172135,-0.9388336933986754,0.0361958510889391,-0.0892323312683783,0.6472432939906632,-1.2493549050577988,2.18199840793221,0.271538,0.637294,-0.485048,0.533716,-4.881985,-3.079684,-1.171911,3.173828,-45.10498,18.310547,0,0,0.4263348174508519,0.6417753441693673,-0.344670795752654,0.5058440872181578,-1.4256016240456657,-0.4000187574143673,-0.1048013437686561,33.59789891108364,-78.24979775038193,130.19788499500382
3280,2024 10 19,05:24:37.323,-0.337311,0.65502,0.371595,0.564878,-0.944365,0.050783,-0.101566,0.671387,-2.075195,1.342773,0,0,-0.3373550697113198,0.6580192297169043,0.3703292424295755,0.5621849269063528,-0.9391102587287417,0.0369252085344922,-0.0898490147049594,0.6484504792911299,-1.290646909804909,2.1400371375355998,0.276334,0.647633,-0.481261,0.52211,-2.597247,-3.147069,3.108493,-54.443359,-71.777344,-153.320313,0,0,0.4188347765783093,0.6420682269608989,-0.3515003059650213,0.5066573828572498,-1.484183892843382,-0.537371269543649,0.0558633734197766,29.19583601552945,-77.92617506286282,116.0219750952536
3281,2024 10 19,05:24:37.332,-0.337347,0.654833,0.371569,0.565091,-0.936552,0.047365,-0.092776,-0.12207,-1.586914,0.793457,0,0,-0.3373546662257538,0.657859918231059,0.3703912303080967,0.5623302305610351,-0.9389823457923046,0.0374471981077675,-0.0899953639697114,0.6099244553265734,-1.305460264314663,2.0727081306588198,0.276334,0.647633,-0.481261,0.52211,-2.597247,-3.147069,3.108493,-54.443359,-71.777344,-153.320313,0,0,0.4117097377493939,0.642346465612854,-0.3579883406667703,0.5074300137143872,-1.539837048201213,-0.6678561560664665,0.2084948547487878,25.01387626475298,-77.61873350971968,102.55486069049093
3282,2024 10 19,05:24:37.340,-0.337347,0.654833,0.371569,0.565091,-0.936552,0.047365,-0.092776,-0.12207,-1.586914,0.793457,0,0,-0.3373542829144661,0.657708572319506,0.3704501187926919,0.5624682690329833,-0.9388608285026891,0.0379430882023792,-0.0901343957712258,0.5733247325602446,-1.31953295109893,2.008745574125878,0.296314,0.651882,-0.4679,0.517993,-1.202185,-3.969848,1.883847,-62.744141,114.990234,-258.300781,0,0,0.4059399508619242,0.6428232423322112,-0.3634839236334318,0.5079581630286679,-1.522954445791152,-0.8329557482631432,0.2922624620113484,20.62597540151533,-67.98828513423369,84.51207860596635
3283,2024 10 19,05:24:37.348,-0.337357,0.654713,0.371542,0.565241,-0.938505,0.047365,-0.105472,-0.305176,-0.488281,0.427246,0,0,-0.3373544187687428,0.6575587937035307,0.3705047128530573,0.5626069055813342,-0.9388430370775548,0.0384141837922602,-0.0909012759826645,0.5293996959322324,-1.2779703535439837,1.9296705954195843,0.323489,0.652649,-0.451268,0.515521,-0.510758,0.391125,-0.443373,-140.441895,179.748535,-285.827637,1,0,0.401817403318828,0.6433145302156007,-0.3678731274517602,0.5083363048772345,-1.4723446235015945,-0.771751710849986,0.2554806889107809,12.57258188143956,-55.601444127522,65.99509282566802
3284,2024 10 19,05:24:37.357,-0.337355,0.654625,0.37151,0.565366,-0.937529,0.042482,-0.087405,-0.427246,-0.183105,0.305176,0,0,-0.3373544478303057,0.657412104018354,0.3705549772104044,0.5627448603022674,-0.938777335223677,0.0386175746026472,-0.0907264621835313,0.4815674111356207,-1.2232270858667842,1.848445865648605,0.340631,0.65876,-0.437775,0.50829,-1.497116,1.529832,0.180181,-50.354004,-1.342773,-258.483887,0,0,0.3987580831528866,0.6440868037048206,-0.3713682210791721,0.5083339896333727,-1.4735831923265146,-0.6566725253074867,0.2517157044652419,9.426252587367582,-52.88851057114589,49.77114383438462
3285,2024 10 19,05:24:37.365,-0.337354,0.654565,0.371479,0.565455,-0.946318,0.039064,-0.092288,-0.305176,0.061035,-0.0,0,0,-0.3373544254387904,0.6572697488174363,0.3706011783498842,0.562880367287154,-0.9391543684624932,0.0386398958725148,-0.0908045390743548,0.4422302405788396,-1.1590139815734448,1.7560235723661746,0.350859,0.668422,-0.425859,0.498752,-2.199286,-0.428724,0.518571,-15.319824,-18.310547,-236.694336,0,0,0.3963631289952422,0.6453035635195795,-0.3740927600252135,0.507854890151704,-1.5098683327101887,-0.6452750990421123,0.2650584692419798,8.188948757999203,-51.15961239258859,35.44786984266538
3286,2024 10 19,05:24:37.373,-0.337374,0.654484,0.371445,0.56556,-0.939482,0.041505,-0.094729,-0.305176,-0.244141,0.183105,0,0,-0.3373554041668509,0.6571304613765644,0.37064336943239,0.5630143489227962,-0.9391707500393685,0.0387831510788891,-0.091000762120637,0.4048599285498975,-1.1132703324947726,1.6773776437478658,0.364765,0.671536,-0.410469,0.497494,-1.673879,-0.594256,0.490738,-11.962891,135.925293,-203.491211,0,0,0.3947832225454801,0.6466151853436005,-0.3759115720239528,0.5073368456441189,-1.5180688660746793,-0.6427241440900067,0.2763424457798807,7.181356770099242,-41.805367122959154,23.500915800532116
3287,2024 10 19,05:24:37.382,-0.3374,0.654422,0.371418,0.565634,-0.943876,0.051271,-0.090823,0.061035,0.12207,-0.12207,0,0,-0.3373576339585083,0.6569950383077361,0.3706821009607705,0.5631453314766564,-0.9394060125374,0.0394075435249446,-0.0909918740146052,0.3876686821224027,-1.0515033158700338,1.5874052615604723,0.364765,0.671536,-0.410469,0.497494,-1.673879,-0.594256,0.490738,-11.962891,135.925293,-203.491211,0,0,0.3932823114182061,0.6478612260764204,-0.3776394434227551,0.5068447033619129,-1.5258593727709453,-0.6403007368855063,0.2870622234908867,6.22414438159428,-32.9188341168112,12.151309460505509
3288,2024 10 19,05:24:37.390,-0.337432,0.654369,0.371351,0.56572,-0.932646,0.04004,-0.101566,0.061035,0.12207,-0.12207,0,0,-0.3373613522605829,0.6568637363923492,0.3707155459127319,0.5632740649028235,-0.93906801191053,0.0394391663486974,-0.0915205803138749,0.3713369980162825,-0.992824650076532,1.5019314984824486,0.378411,0.670037,-0.396573,0.500585,-1.124058,-0.297861,-0.568377,-16.723633,135.864258,-148.376465,0,0,0.3925387458472957,0.6489700147725994,-0.3785861212516173,0.5065317181938171,-1.5057693041323978,-0.6231787500412309,0.2442902623163423,5.076755512514565,-24.47967951097064,4.124920737480232
3289,2024 10 19,05:24:37.398,-0.337432,0.654369,0.371351,0.56572,-0.932646,0.04004,-0.101566,-0.427246,-0.244141,-0.488281,0,0,-0.3373648846475537,0.6567389995727316,0.3707473186170953,0.5633963616576824,-0.9387469113150032,0.0394692080312625,-0.0920228512981811,0.3314078481154684,-0.9553904675727052,1.402420873558326,0.386172,0.670144,-0.387385,0.501707,-1.466842,0.031251,-0.052736,6.713867,82.702637,-101.135254,0,0,0.3922204085549309,0.6500287140339693,-0.3790260651890365,0.5062904822841262,-1.503822938925778,-0.5904572625391693,0.2294389492005252,5.158611086888836,-19.120563685422105,-1.1380879993937802
3290,2024 10 19,05:24:37.407,-0.337478,0.654348,0.371295,0.565754,-0.936064,0.051759,-0.098636,-0.183105,0.915527,-0.976563,0,0,-0.337370540415176,0.656619449594095,0.3707747026862406,0.5635142435747983,-0.9386127657492532,0.0400836976296994,-0.0923535087332721,0.3056822057096949,-0.86184459419407,1.2834716798804096,0.391477,0.668189,-0.375925,0.508871,-1.297891,-0.126957,-0.195807,62.011719,159.179688,-71.655273,0,0,0.3921832381271844,0.6509367283322708,-0.3788710119295846,0.5064195081699199,-1.493526341979489,-0.5672822494122108,0.2081766517404989,8.001266482544395,-10.205551101151,-4.6639472494240914
3291,2024 10 19,05:24:37.415,-0.337466,0.654413,0.371215,0.565738,-0.944365,0.046388,-0.101077,-1.098633,1.77002,-1.342773,0,0,-0.3373753133944172,0.6565091271143902,0.3707967175519285,0.5636254313960584,-0.9389003774617904,0.0403989127482144,-0.0927896832966085,0.2354664454242102,-0.7302513644843664,1.152159445886389,0.394726,0.665127,-0.364104,0.51887,-0.881863,-0.442885,-0.076174,69.763184,152.34375,-45.715332,0,0,0.3923103762208251,0.6516462419156572,-0.3781326613331054,0.5070420327614238,-1.4629431748805144,-0.5610623869416003,0.193959119153474,11.089362358417176,-2.07808604609345,-6.716516486952887
3292,2024 10 19,05:24:37.423,-0.337459,0.654518,0.371107,0.565692,-0.934599,0.049318,-0.091311,-0.854492,2.075195,-1.831055,0,0,-0.3373794977246963,0.6564095707586707,0.3708122316743321,0.5637287598262554,-0.9386853085887008,0.0408448671108037,-0.092715749131778,0.1809685231529996,-0.5899790462601481,1.0029987235920697,0.397272,0.662567,-0.355703,0.52598,-1.012238,-0.164068,0.212409,44.433594,109.25293,-31.738281,0,0,0.3925584574097838,0.6521922798198744,-0.3770111782664501,0.5079889311233525,-1.4404079161364889,-0.5412126675945202,0.1948816131958003,12.756573940496317,3.488464756211224,-7.967604712605242
3293,2024 10 19,05:24:37.432,-0.337417,0.654681,0.370984,0.56561,-0.935087,0.041017,-0.092776,-1.220703,2.807617,-2.075195,0,0,-0.3373813728384614,0.6563231422207371,0.3708208200906155,0.5638228218349426,-0.9385053931592656,0.0408534737552635,-0.0927187616751891,0.1108849469953496,-0.4200992439471406,0.8490890374124661,0.397272,0.662567,-0.355703,0.52598,-1.012238,-0.164068,0.212409,44.433594,109.25293,-31.738281,0,0,0.3927941345392946,0.6527110158288807,-0.3759457693531276,0.5088884845671848,-1.4189994203296643,-0.5223554342147941,0.1957579825360103,14.3404249434715,8.776688018400662,-9.15613852697498
3294,2024 10 19,05:24:37.440,-0.337389,0.65489,0.370847,0.565474,-0.943876,0.045412,-0.093265,-1.647949,3.417969,-2.685547,0,0,-0.3373817541965383,0.6562514851097001,0.3708221290860847,0.5639053807431954,-0.9387739235013024,0.0410814000675003,-0.0927460735914297,0.0229432496455821,-0.2281958317497835,0.6723572355418428,0.398976,0.659735,-0.348462,0.53305,-1.16654,-0.031251,-0.204596,49.377441,111.328125,-18.737793,0,0,0.3931032278123298,0.6530622150374366,-0.3745715808854712,0.5100965603388256,-1.406376449313181,-0.4978002125040544,0.1757402834092097,16.092275746297926,13.90425986748063,-9.63522125062623
3295,2024 10 19,05:24:37.448,-0.337389,0.65489,0.370847,0.565474,-0.943876,0.045412,-0.093265,-1.647949,3.417969,-2.685547,0,0,-0.3373821164867114,0.656183410854215,0.3708233726317804,0.5639838117060356,-0.9390290273262372,0.0412979300641253,-0.0927720199118582,-0.0606013628366969,-0.0458875901622943,0.5044620237647506,0.399275,0.656877,-0.340768,0.541266,-1.11478,-0.094241,0.035646,70.007324,118.041992,-10.009766,0,0,0.3934118164217133,0.6532529542855647,-0.3728814018411977,0.5116550323218843,-1.391796626847522,-0.4776222518788516,0.1687355692387492,18.78802815898303,19.1111464741066,-9.65394848809492
3296,2024 10 19,05:24:37.457,-0.337375,0.65511,0.37067,0.565343,-0.937529,0.039552,-0.0918,-1.464844,2.929688,-3.112793,0,0,-0.3373817606623758,0.6561297403115043,0.3708157040001913,0.5640517711207338,-0.9389540259599252,0.041210633560919,-0.0927234189162652,-0.1308134946948621,0.1028911893458203,0.323599272576513,0.399196,0.653671,-0.332818,0.550082,-0.895535,-0.256355,0.198737,66.711426,120.422363,-5.493164,0,0,0.3937010256006277,0.6532738565712864,-0.3708782317491378,0.51357638070579,-1.3669835455051458,-0.4665588892849091,0.1702356407768118,21.18419805103388,24.176707300401265,-9.445909263690172
3297,2024 10 19,05:24:37.465,-0.33737,0.655333,0.370497,0.565202,-0.933134,0.039552,-0.096194,-1.403809,3.173828,-2.990723,0,0,-0.337381172629257,0.6560899032959291,0.3707997688001818,0.5641092825646971,-0.938663024661929,0.0411277018828731,-0.092896947970452,-0.194463269960119,0.2564380298785293,0.1578831589476873,0.39954,0.651076,-0.326302,0.556772,-0.836451,-0.031739,0.047365,46.264648,85.693359,-12.023926,0,0,0.3939929743205963,0.653163963742722,-0.3686494201616809,0.5157361616705005,-1.3404569182298884,-0.4448178948206636,0.1640921087379712,22.43822054848218,27.2525398853812,-9.574810100505664
3298,2024 10 19,05:24:37.473,-0.337357,0.655556,0.370348,0.565048,-0.934111,0.033692,-0.090823,-1.403809,3.417969,-2.746582,0,0,-0.3373799639977941,0.6560632081311326,0.3707771803601727,0.5641562184364621,-0.9384354234288323,0.0407559167887294,-0.0927932505719294,-0.254930556462113,0.4145145783846029,0.0126599010003029,0.399024,0.650042,-0.321075,0.56137,-1.053255,-0.161626,0.120609,52.307129,58.532715,-10.314941,0,0,0.3942445256045664,0.6530078655555859,-0.3662706991535968,0.5180178535869755,-1.326096822318394,-0.4306583000796304,0.1619179533010726,23.93166597105807,28.81654864111214,-9.61181664548038
3299,2024 10 19,05:24:37.482,-0.33737,0.655758,0.370227,0.564885,-0.931669,0.032228,-0.088382,-0.610352,2.990723,-2.685547,0,0,-0.3373794657979044,0.656047947724576,0.370749671342164,0.564192657514639,-0.9380971022573908,0.0403295209492929,-0.0925726880433329,-0.2727016286390074,0.5433249994653727,-0.1222504440497122,0.399024,0.650042,-0.321075,0.56137,-1.053255,-0.161626,0.120609,52.307129,58.532715,-10.314941,0,0,0.3944834993243381,0.6528595722778066,-0.3640109141959169,0.5201854609076267,-1.3124547312024744,-0.4172066850756489,0.1598525056360189,25.350439122505165,30.302356959056528,-9.64697286320636
3300,2024 10 19,05:24:37.490,-0.337429,0.655894,0.37016,0.564736,-0.92581,0.027345,-0.090823,0.305176,2.746582,-2.075195,0,0,-0.3373819425080092,0.6560402503383471,0.3707201877750558,0.564219824638907,-0.9374827471445212,0.0396802949018283,-0.0924852036411662,-0.243807747207057,0.653487849492104,-0.2198976718472266,0.398792,0.648696,-0.316111,0.565891,-0.891629,-0.182134,0.146489,40.100098,64.025879,-9.94873,0,0,0.3946989243581212,0.6526513936639162,-0.3616159184861211,0.5224707378622454,-1.2914134446423504,-0.4054530508218664,0.159184330354218,26.087922066379903,31.988533061103706,-9.66206072004604
3301,2024 10 19,05:24:37.498,-0.337429,0.655894,0.37016,0.564736,-0.92581,0.027345,-0.090823,0.305176,2.746582,-2.075195,0,0,-0.3373842953826087,0.6560329378214297,0.370692178386303,0.5642456334069615,-0.9368991097872952,0.0390635301567369,-0.0924020934591079,-0.2163585598467041,0.7581425570174988,-0.3126625382548653,0.399146,0.647712,-0.31243,0.568805,-0.864284,-0.125004,0.047853,22.460938,36.437988,-14.038086,0,0,0.3949212781402151,0.6524044239807204,-0.3591566225618151,0.524787450969133,-1.2700569724102329,-0.3914305982807731,0.1536177638365071,25.906572863060905,32.21100580804852,-9.880861984043738
3302,2024 10 19,05:24:37.507,-0.337539,0.655975,0.370178,0.564564,-0.927274,0.026856,-0.084964,1.525879,2.624512,-1.77002,0,0,-0.3373920306134783,0.6560300409303581,0.3706664694669878,0.5642615517366135,-0.9364178542979302,0.0384531536489,-0.0920301887861525,-0.1292466818543689,0.8514610291666238,-0.385530411342122,0.399564,0.647745,-0.310145,0.569724,-1.003449,-0.143559,0.171392,14.282227,14.953613,-16.113281,0,0,0.3951534142332044,0.6521714527816843,-0.3567060414337243,0.5270342784206764,-1.256726573789721,-0.3790370183667344,0.1545064756446817,25.32535556990786,31.34813616764609,-10.192482934841552
3303,2024 10 19,05:24:37.515,-0.337731,0.65597,0.370253,0.564405,-0.936552,0.032716,-0.088382,2.929688,1.525879,-1.403809,0,0,-0.3374089790828043,0.6560270388838402,0.3706457959936384,0.5642687241497828,-0.9364245615830336,0.038166295966455,-0.0918477793468448,0.0237000522383495,0.8851819277082926,-0.4364443407750159,0.400473,0.647559,-0.308128,0.570391,-0.931181,-0.118656,0.097659,5.79834,17.883301,-17.944336,0,0,0.3954193935215441,0.6519408301426001,-0.3542771393620381,0.5292021144996425,-1.2404492951002348,-0.3660179674483977,0.1516641018624476,24.349004791412465,30.674894409263786,-10.580075588099474
3304,2024 10 19,05:24:37.523,-0.337995,0.655903,0.370388,0.564237,-0.931181,0.04004,-0.098148,3.845215,1.525879,-1.220703,0,0,-0.3374382801286641,0.6560208369396481,0.3706329061939565,0.5642671379422937,-0.936162383503882,0.0382599811681322,-0.0921627903795026,0.214775799626432,0.917216781322878,-0.4756572737362651,0.401549,0.647739,-0.306707,0.570196,-0.961455,-0.109867,0.083499,0.488281,2.685547,-19.897461,0,0,0.3957258738454669,0.65173073863547,-0.3518986323939362,0.5312518087746604,-1.226499580345223,-0.3532104190759778,0.1482558467693253,23.15596860184184,29.2754270388006,-11.0459448586945
3305,2024 10 19,05:24:37.532,-0.338243,0.655847,0.370519,0.564068,-0.920927,0.043947,-0.10303,3.295898,1.708984,-1.342773,0,0,-0.3374785161222309,0.6560121450926657,0.3706272108842587,0.564257181045179,-0.935400614328688,0.0385443321097256,-0.0927061508605275,0.3688319096451105,0.956805142256734,-0.5190130600494518,0.401549,0.647739,-0.306707,0.570196,-0.961455,-0.109867,0.083499,0.488281,2.685547,-19.897461,0,0,0.3960170301531935,0.6515311517036966,-0.3496390507742394,0.5331990183359274,-1.2132473513279618,-0.3410432481221789,0.145018004430859,22.02258422174975,27.945933036860566,-11.488520665759776
3306,2024 10 19,05:24:37.540,-0.338381,0.655873,0.370654,0.563865,-0.92288,0.044923,-0.101077,2.441406,3.356934,-0.976563,0,0,-0.3375236403161193,0.6560051878380324,0.3706285503400457,0.5642375719929199,-0.9347745836122534,0.0388632655042393,-0.0931246933175011,0.4724606141628549,1.0768115851438973,-0.5418905570469792,0.40271,0.648241,-0.30571,0.569341,-0.976104,-0.093265,0.177252,-3.112793,-1.831055,-21.179199,0,0,0.3963516786455339,0.6513666441185118,-0.3474425982355274,0.5350061174191311,-1.2013901837615637,-0.32865433571607,0.146629704209316,20.76581536066226,26.457083635017536,-11.973054582471786
3307,2024 10 19,05:24:37.548,-0.338381,0.655873,0.370654,0.563865,-0.92288,0.044923,-0.101077,2.441406,3.356934,-0.976563,0,0,-0.3375665083003133,0.6559985784461307,0.3706298228230434,0.5642189433932738,-0.9341798544316406,0.0391662522290274,-0.093522308651626,0.5709078834547122,1.1908177058867024,-0.5636241791946301,0.403875,0.648705,-0.304784,0.568483,-0.972686,-0.099124,0.079104,-4.272461,-3.234863,-20.507813,0,0,0.3967278447132571,0.6512335619125862,-0.345309668323751,0.5366799615481744,-1.1899549745734854,-0.3171778189302665,0.1432534189988502,19.513901542629142,24.97248630326666,-12.399792503348197
3308,2024 10 19,05:24:37.557,-0.33839,0.656018,0.370784,0.563606,-0.93997,0.041993,-0.095218,1.159668,5.004883,-0.976563,0,0,-0.3376076828852976,0.6559995495238242,0.3706375316818912,0.5641882962236101,-0.9344693617100586,0.039307589617576,-0.0936070932190447,0.6003458892819766,1.3815209705923674,-0.5842711202348986,0.404972,0.64944,-0.304201,0.567174,-1.030793,-0.112796,0.094729,-6.04248,-9.765625,-20.568848,0,0,0.3971400524775943,0.6511438838169568,-0.3432542349075634,0.5382046634707657,-1.1819968758448112,-0.3069587279837532,0.1408271980489077,18.236082465497688,23.235580738103327,-12.808245278180786
3309,2024 10 19,05:24:37.565,-0.338354,0.656222,0.370894,0.563319,-0.953154,0.034181,-0.076662,0.610352,5.249023,-1.342773,0,0,-0.3376449987410327,0.656010672047633,0.3706503550977967,0.5641448314124295,-0.9354035936245556,0.0390512601366972,-0.0927598385580925,0.6008461948178778,1.574896072062749,-0.6221962142231536,0.406154,0.650104,-0.303653,0.565861,-1.036653,-0.10596,0.097171,-6.469727,-7.324219,-20.629883,0,0,0.3975907498537145,0.6510918896261089,-0.3412741731621853,0.5395874802972274,-1.1747296820525706,-0.2969087915845655,0.1386443881464623,17.000791992222805,21.70759075119816,-13.199327164271748
3310,2024 10 19,05:24:37.573,-0.338382,0.656391,0.370993,0.563038,-0.952666,0.032716,-0.079592,1.464844,4.211426,-1.525879,0,0,-0.337681848803981,0.6560296884452513,0.3706674873429069,0.5640894898418081,-0.9362667139433276,0.0387344971298623,-0.0921014466301878,0.6440460850769839,1.7067225684596117,-0.667380353511996,0.407344,0.650632,-0.30299,0.564753,-1.034211,-0.122562,0.057619,-5.859375,-4.882813,-20.019531,0,0,0.3980784123610288,0.6510688951448034,-0.3393599645040759,0.540845756282366,-1.167703747949942,-0.2881914520053373,0.1345931187391392,15.857783642611665,20.378070563638254,-13.54033735605816
3311,2024 10 19,05:24:37.582,-0.338523,0.65648,0.371111,0.562772,-0.944853,0.029786,-0.074709,2.868652,3.479004,-1.77002,0,0,-0.337723906363782,0.6560522040229887,0.3706896629757615,0.5640236153497177,-0.9366960282461614,0.0382870722733692,-0.0912318242986784,0.7552763808231348,1.7953366400366308,-0.7225123358363961,0.407344,0.650632,-0.30299,0.564753,-1.034211,-0.122562,0.057619,-5.859375,-4.882813,-20.019531,0,0,0.3985416917429774,0.6510470503875632,-0.3375414662788721,0.5420411184682477,-1.1610291105524446,-0.2799099794050704,0.1307444128021822,14.77192571048108,19.115026385456343,-13.864297038255252
3312,2024 10 19,05:24:37.590,-0.338778,0.656501,0.371275,0.562486,-0.930204,0.034181,-0.090335,4.394531,2.807617,-1.831055,0,0,-0.3377766110455928,0.6560746438218392,0.3707189298269734,0.5639467345822318,-0.9363714268338532,0.0380817686597007,-0.0911869830837445,0.937239111781978,1.8459506580347995,-0.7779394690445762,0.408555,0.651071,-0.302352,0.563713,-1.011261,-0.114261,0.0918,-6.347656,-3.662109,-19.104004,0,0,0.3990423571558285,0.651048247868185,-0.3357819929649285,0.5431247125448352,-1.1535407050248223,-0.2716275304348169,0.1287971921620731,13.715946624957024,17.976169616183526,-14.126282386342488
3313,2024 10 19,05:24:37.598,-0.338778,0.656501,0.371275,0.562486,-0.930204,0.034181,-0.090335,4.394531,2.807617,-1.831055,0,0,-0.3378266804933132,0.6560959616307472,0.3707467333356247,0.5638736978531201,-0.9360630554921604,0.0378867302267157,-0.0911443839295573,1.1101037061928791,1.894033975133059,-0.8305952455923473,0.409666,0.651411,-0.301677,0.562874,-1.00589,-0.114261,0.106937,-4.699707,-1.708984,-17.272949,0,0,0.3995735392980371,0.6510663854747757,-0.3340767433166821,0.5441121769175934,-1.146158169773581,-0.263759203913076,0.1277041825539694,12.795163943709174,16.99191193537435,-14.283615717025365
3314,2024 10 19,05:24:37.607,-0.339053,0.656514,0.371477,0.562172,-0.92581,0.036622,-0.095218,4.516602,3.540039,-1.708984,0,0,-0.3378879964686475,0.6561168635492098,0.3707832466688434,0.5637886129604641,-0.9355504027175524,0.0378234937153799,-0.0913480647330794,1.2804286208832352,1.9763342263764057,-0.87451468331273,0.410633,0.651668,-0.300949,0.562263,-1.001984,-0.116214,0.097171,-2.990723,0.183105,-15.563965,0,0,0.4001265123331352,0.6510964662010369,-0.332420356150848,0.5450197180717137,-1.1389494612849018,-0.2563819437174222,0.126177523426271,12.005869596523716,16.15147158860563,-14.347633181174093
3315,2024 10 19,05:24:37.615,-0.339273,0.656576,0.371727,0.561802,-0.933134,0.041505,-0.098148,4.150391,4.760742,-1.464844,0,0,-0.3379572466452151,0.6561398203717493,0.3708304343354012,0.5636892823124409,-0.9354295825816747,0.0380075690296109,-0.0916880614964254,1.4239267398390734,2.1155546150575857,-0.9040311491470936,0.411467,0.651888,-0.30017,0.561814,-0.989776,-0.119144,0.110355,-1.037598,0.976563,-14.282227,0,0,0.4006935367164784,0.651136042890985,-0.3308078383433055,0.545859432168128,-1.1314907882206566,-0.2495200465315511,0.1253863972549574,11.353696216697529,15.392726159175348,-14.344362872115386
3316,2024 10 19,05:24:37.623,-0.339408,0.656685,0.371966,0.561434,-0.9429,0.041017,-0.073733,3.662109,5.249023,-1.342773,0,0,-0.3380297843129544,0.6561670793531618,0.3708872126186311,0.5635765181968189,-0.935803103452591,0.0381580405781304,-0.0907903084216042,1.5358358528471197,2.2722280343047063,-0.9259682416897388,0.412202,0.652132,-0.299353,0.561428,-0.990265,-0.113285,0.112308,0.061035,1.159668,-13.916016,0,0,0.4012689598806545,0.6511858407464358,-0.3292350964261402,0.5466378605597216,-1.1244294988096235,-0.2427082942049735,0.1247324773922095,10.789063155862651,14.68107325121658,-14.322945528509615
3317,2024 10 19,05:24:37.632,-0.339514,0.656822,0.372189,0.561063,-0.955596,0.044435,-0.078127,2.990723,5.187988,-1.464844,0,0,-0.3381039950973066,0.6561998253855036,0.3709523019876996,0.5634508422869778,-0.9367927482799614,0.0384718885492239,-0.0901571430005239,1.6085802102047635,2.418016032589471,-0.9529120296052518,0.41287,0.652432,-0.298512,0.561036,-0.983917,-0.107913,0.123051,0.854492,0.305176,-13.977051,0,0,0.4018490118866217,0.6512481487091141,-0.3276989416048332,0.5473577675317355,-1.1174038738691423,-0.2359685294947248,0.1246484035225991,10.292334598069518,13.962278388655749,-14.305650802084136
3318,2024 10 19,05:24:37.640,-0.339639,0.656955,0.372333,0.560734,-0.977081,0.052736,-0.064943,2.502441,4.272461,-2.01416,0,0,-0.3381807453424413,0.6562375841162283,0.3710213368883145,0.5633150001726289,-0.9388071608659632,0.0391850941217627,-0.0888964358504978,1.6532732496945255,2.510738280959997,-1.0059744281249892,0.41287,0.652432,-0.298512,0.561036,-0.983917,-0.107913,0.123051,0.854492,0.305176,-13.977051,0,0,0.4024000612922906,0.6513073412736584,-0.3262395945245915,0.5480416791551487,-1.1107295301756854,-0.2295657530199886,0.1245685333464691,9.82044246816604,13.27942326922296,-14.289220811979929
3319,2024 10 19,05:24:37.648,-0.339639,0.656955,0.372333,0.560734,-0.977081,0.052736,-0.064943,2.502441,4.272461,-2.01416,0,0,-0.3382536580753192,0.6562734549104169,0.3710869200438988,0.5631859501639975,-0.940720852822665,0.0398626394156745,-0.0876987640579729,1.6957316372097992,2.598824416911997,-1.0563837067187396,0.413399,0.652856,-0.297598,0.560639,-1.014191,-0.112796,0.106449,3.356934,-0.427246,-14.160156,0,0,0.402950008227676,0.6513847742099754,-0.3248075147983619,0.5486715451973913,-1.1059026036669013,-0.2237272653689891,0.1236625566791456,9.497267044757738,12.594089805761811,-14.282767571380932
3320,2024 10 19,05:24:37.657,-0.339773,0.657097,0.372348,0.560477,-0.975127,0.050783,-0.070803,1.037598,3.173828,-2.868652,0,0,-0.3383296251715533,0.656314632164896,0.3711499740417038,0.5630505026557976,-0.9424411601815318,0.0404086574448908,-0.0868539758550742,1.6628249553493093,2.6275745960663968,-1.1469971213828023,0.413895,0.653325,-0.296555,0.560279,-1.003449,-0.100589,0.114261,4.455566,0.183105,-15.136719,0,0,0.4034972578162922,0.6514817854994767,-0.3233948890584438,0.5492519179375216,-1.1007799234835562,-0.2175703521005397,0.1231924788451884,9.24518199251985,11.97354056547372,-14.325465142811884
3321,2024 10 19,05:24:37.665,-0.339896,0.657256,0.372202,0.560314,-0.956572,0.058596,-0.089358,-0.488281,2.197266,-3.90625,0,0,-0.3384079439129756,0.6563617005566512,0.3712025753396186,0.5629136775230077,-0.9431477021724552,0.0413180245726462,-0.0869791770623205,1.5552696575818437,2.606059166263077,-1.2849597653136624,0.414279,0.653942,-0.29537,0.559901,-1.006867,-0.115726,0.111332,7.080078,-0.915527,-16.052246,0,0,0.4040363449254776,0.6516047962245028,-0.3219936446055216,0.5497843720406456,-1.0960842773093782,-0.2124781344955127,0.1225994549029289,9.136926792893858,11.329087187200033,-14.41180418567129
3322,2024 10 19,05:24:37.673,-0.339923,0.657523,0.371919,0.560172,-0.947295,0.057619,-0.076662,-2.685547,3.234863,-4.577637,0,0,-0.3384836967173267,0.6564197655288186,0.3712383965726377,0.5627765936468573,-0.9433550670638324,0.0421330733440139,-0.0864633182092045,1.3432288247027513,2.637499357949923,-1.4495936270479792,0.414606,0.65465,-0.294076,0.559512,-1.001007,-0.100589,0.152837,8.972168,-1.098633,-16.967773,0,0,0.4045648276792037,0.6517570564132777,-0.3205977623752455,0.5502707534386132,-1.0913304134439092,-0.206883677770737,0.1241113321577825,9.128688853249164,10.70770117784003,-14.539602626387726
3323,2024 10 19,05:24:37.682,-0.339809,0.657974,0.371511,0.559982,-0.976104,0.058596,-0.092288,-5.249023,4.516602,-5.67627,0,0,-0.3385499618814604,0.6564974772523776,0.3712520267440057,0.5626368639645143,-0.9449925137106406,0.0429562196768132,-0.0867545522987442,1.0136162334676138,2.731454490052427,-1.66092744569558,0.414848,0.65546,-0.292564,0.559178,-1.020539,-0.139164,0.075198,10.437012,-0.366211,-18.310547,0,0,0.4050789862952435,0.6519422035926139,-0.3191960742564833,0.5507161157666826,-1.0877908427717138,-0.2034976938822001,0.1216656655498933,9.194105010586703,10.154005568948028,-14.72814984506834
3324,2024 10 19,05:24:37.690,-0.339643,0.658515,0.370891,0.559858,-0.964873,0.052736,-0.063967,-7.446289,4.150391,-7.141113,0,0,-0.3386046137873874,0.6565983533897587,0.3712339754068054,0.5624979207662886,-0.9459865380251086,0.0434452086929726,-0.085615174683807,0.590620971794233,2.802401315549805,-1.9349367234108008,0.414848,0.65546,-0.292564,0.559178,-1.020539,-0.139164,0.075198,10.437012,-0.366211,-18.310547,0,0,0.4055674369804813,0.6521180934129832,-0.3178644705436591,0.5511392099783484,-1.084428250633128,-0.2002810091880901,0.1193422822723987,9.25625036005737,9.627994740500624,-14.90726970281492
3325,2024 10 19,05:24:37.698,-0.339643,0.658515,0.370891,0.559858,-0.964873,0.052736,-0.063967,-7.446289,4.150391,-7.141113,0,0,-0.3386565330980179,0.6566941857202707,0.3712168266364651,0.5623659247279741,-0.946930861123853,0.0439097482583239,-0.0845327659496167,0.1887754732045213,2.8698007997723147,-2.1952455372402606,0.415253,0.656246,-0.291024,0.558758,-1.011261,-0.138676,0.099612,8.972168,-0.427246,-19.592285,0,0,0.4060517151314572,0.6523244887423341,-0.3165224470164761,0.551520149479431,-1.0807698881014716,-0.1972007587286856,0.1183557681587787,9.2420462420545,9.125232703475596,-15.141520467674171
3326,2024 10 19,05:24:37.707,-0.339436,0.659277,0.37014,0.559583,-0.969268,0.057131,-0.102054,-8.666992,6.591797,-9.82666,0,0,-0.338695506443117,0.6568233264342571,0.3711629853046418,0.5622267784915753,-0.9480477180676604,0.0445708108454077,-0.0854088276521359,-0.2540129004557048,3.055900609783699,-2.5768162603782474,0.415752,0.657081,-0.28947,0.558212,-1.041536,-0.15479,0.066408,7.995605,-1.098633,-21.118164,0,0,0.4065367293748843,0.6525623143052173,-0.3151698246656522,0.5518547420054594,-1.078808193696398,-0.1950802207922513,0.1157583797508398,9.179724179951776,8.614039418301815,-15.440352644290464
3327,2024 10 19,05:24:37.715,-0.339264,0.660219,0.369193,0.559203,-0.98001,0.065432,-0.067385,-9.094238,8.178711,-13.061523,0,0,-0.3387239311209611,0.6569931101125442,0.3710644860394098,0.5620755895669964,-0.9496458321642772,0.0456138703031373,-0.0845076362695291,-0.6960241554329196,3.3120411292945136,-3.101051597359335,0.416507,0.657796,-0.287939,0.5576,-1.019562,-0.147954,0.097171,5.493164,0.427246,-22.338867,0,0,0.4070352429061401,0.6528239985899563,-0.3138082834323696,0.5521420049051864,-1.075845884011578,-0.1927239097526388,0.1148290107632978,8.995396170954187,8.204699747386723,-15.78527836207594
3328,2024 10 19,05:24:37.723,-0.339195,0.661417,0.368068,0.55857,-0.993194,0.046388,-0.06299,-9.70459,9.70459,-17.089844,0,0,-0.3387474845649131,0.657214304606917,0.3709146617374393,0.5619003100886466,-0.9518232405560634,0.0456525767879805,-0.0834317544560526,-1.1464524476612736,3.631668572829788,-3.800491217491368,0.417337,0.658494,-0.28632,0.556989,-1.042512,-0.145512,0.116214,5.432129,0.671387,-23.803711,0,0,0.4075503307608331,0.6531074986604585,-0.3124338692607512,0.552384354659927,-1.0741791898109994,-0.1903633142650068,0.1148982602251329,8.817232812406477,7.828034110017386,-16.186199993972142
3329,2024 10 19,05:24:37.732,-0.339426,0.662737,0.366809,0.557693,-1.018098,0.060549,-0.074709,-7.263184,10.803223,-21.789551,0,0,-0.3387814103366675,0.6574904393765711,0.3707093786505673,0.5616899445842142,-0.9551369785282602,0.0463973979485814,-0.08299561673325,-1.45228902527821,3.9902462941882977,-4.6999442066168,0.418351,0.659038,-0.284506,0.556514,-1.041536,-0.19483,0.101566,4.089355,5.371094,-25.146484,0,0,0.4080903642227914,0.6534040237274356,-0.3110374757977136,0.5525908369269306,-1.0725470303204494,-0.1905866485517565,0.1142316472138763,8.580838921786151,7.705187104516517,-16.634214194273536
3330,2024 10 19,05:24:37.740,-0.339909,0.664209,0.365286,0.556645,-0.995148,0.038575,-0.073733,-7.568359,10.925293,-26.733398,0,0,-0.3388377898198341,0.6578263674077426,0.370438209718039,0.5614376973550035,-0.9571375296018472,0.0460062780511524,-0.0825324858965875,-1.7580925240142995,4.336998629478883,-5.80161689628596,0.418351,0.659038,-0.284506,0.556514,-1.041536,-0.19483,0.101566,4.089355,5.371094,-25.146484,0,0,0.4086033960116518,0.6536857225410638,-0.3097109020078279,0.5527869950805839,-1.0709964788044268,-0.1907988161241686,0.1135983648531824,8.356264725696843,7.588482449290691,-17.05982768455986
3331,2024 10 19,05:24:37.748,-0.339909,0.664209,0.365286,0.556645,-0.995148,0.038575,-0.073733,-7.568359,10.925293,-26.733398,0,0,-0.3388913503288424,0.6581454990373554,0.370180599232137,0.5611980624872532,-0.9590380531217548,0.0456347141485947,-0.0820925116017581,-2.0486058478135845,4.666413348004939,-6.8482059514716624,0.419839,0.659445,-0.282727,0.555817,-1.046907,-0.162603,0.122562,-1.342773,3.845215,-28.991699,0,0,0.4091651762110692,0.6539736864140107,-0.3083617069074365,0.5529384953265547,-1.0697920048642051,-0.1893890253179602,0.1140465466105233,7.871312839412,7.401319076826156,-17.656421250331867
3332,2024 10 19,05:24:37.757,-0.340632,0.665836,0.363585,0.555372,-0.981475,0.023927,-0.054201,-6.103516,11.657715,-30.456543,0,0,-0.3389783828124002,0.6585300240854876,0.3698508192705301,0.5609067593628906,-0.9601599004656672,0.044549328441165,-0.0806979360216702,-2.251351355422905,5.015978430604692,-8.02862280389808,0.421675,0.659786,-0.280866,0.554966,-1.056673,-0.170904,0.109378,-4.150391,6.530762,-32.348633,0,0,0.4097906674005158,0.6542643020933101,-0.3069869215620647,0.5530398705602269,-1.069136054620995,-0.1884647740520622,0.1138131192799971,7.2702276474414,7.357791222984847,-18.391031837815277
3333,2024 10 19,05:24:37.765,-0.341435,0.667516,0.361735,0.554069,-0.98587,0.020997,-0.078616,-7.080078,11.779785,-32.104492,0,0,-0.3391012136717802,0.6589793228812131,0.3694450283070036,0.560564871394746,-0.9614454054423838,0.0433717120191067,-0.0805938392205867,-2.4927876876517594,5.354168759074457,-9.232416263703175,0.423908,0.659995,-0.278876,0.554019,-1.043977,-0.166997,0.093265,-6.408691,6.896973,-35.888672,0,0,0.41049653403049,0.6545508369886446,-0.3055813754839614,0.5530888270322154,-1.067878101889945,-0.1873913853494591,0.1127857133159973,6.5862817150693305,7.334750311835605,-19.26591384592451
3334,2024 10 19,05:24:37.773,-0.342258,0.669307,0.35971,0.552717,-0.989288,0.006836,-0.0459,-8.483887,11.474609,-34.362793,0,0,-0.3392590529881911,0.6594957067371523,0.3689582768916534,0.5601724778250087,-0.9628375351702644,0.0415449264181514,-0.0788591472595573,-2.7923426532691717,5.660190771120734,-10.488935100518017,0.426372,0.660331,-0.276859,0.552738,-1.058626,-0.183599,0.117679,-8.666992,5.187988,-39.855957,0,0,0.4112903073289655,0.6548398451392123,-0.3041452567097634,0.5530712856806046,-1.0674154967954477,-0.1872017660819861,0.1130303776501974,5.823618029315864,7.227412196243825,-20.29541600362828
3335,2024 10 19,05:24:37.782,-0.343096,0.671167,0.35753,0.551355,-1.032258,0.017579,-0.074221,-9.277344,11.230469,-35.827637,0,0,-0.3394509003387816,0.6600792714002947,0.3683868630470707,0.5597316039337582,-0.9663085584117512,0.0403466300972438,-0.0786272398965794,-3.1165927206057127,5.938704682564698,-11.755870195492117,0.429198,0.660582,-0.274674,0.551338,-1.081576,-0.159185,0.110355,-11.169434,6.652832,-43.701172,0,0,0.4121856919625172,0.6551269528822518,-0.3026716938742752,0.5529846213965743,-1.0681235219556753,-0.1858009277778868,0.1128966087676875,4.973965427850071,7.198683186431633,-21.465703803446864
3336,2024 10 19,05:24:37.790,-0.344099,0.672993,0.355103,0.55007,-1.029817,0.02002,-0.043947,-9.643555,8.972168,-38.818359,0,0,-0.3396833053218425,0.6607249578302798,0.3677226698947172,0.5592485237370702,-0.9694839804911636,0.0393302985923816,-0.0768932279017505,-3.4429408345754267,6.090377848436463,-13.108994635717512,0.429198,0.660582,-0.274674,0.551338,-1.081576,-0.159185,0.110355,-11.169434,6.652832,-43.701172,0,0,0.4130363073643913,0.6553997052381392,-0.3012718091805614,0.5529022903267455,-1.0687961458578916,-0.1844701313889924,0.1127695283293031,4.166795456457566,7.171390627110051,-22.57747721327452
3337,2024 10 19,05:24:37.798,-0.345184,0.674827,0.352457,0.548844,-1.033723,-0.003418,-0.056642,-11.169434,6.04248,-40.222168,0,0,-0.3399583400557503,0.6614300599387658,0.3669593863999813,0.5587282975502167,-0.9726959314666054,0.0371928836627626,-0.0758806665066629,-3.829265492846656,6.087982956014639,-14.464653303931636,0.432274,0.660888,-0.272261,0.549764,-1.09769,-0.167974,0.119144,-11.474609,7.324219,-48.461914,0,0,0.4139981919961717,0.6556741199762322,-0.2998212687215333,0.5527453758104082,-1.070240838564997,-0.1836453248195428,0.113088251912838,3.384725233634688,7.179032045754548,-23.871699052610797
3338,2024 10 19,05:24:37.807,-0.345184,0.674827,0.352457,0.548844,-1.033723,-0.003418,-0.056642,-11.169434,6.04248,-40.222168,0,0,-0.3402196230529627,0.6620999069418275,0.3662342670799822,0.5582340826727058,-0.975747284893275,0.0351623394796244,-0.0749187331813298,-4.196273918204322,6.085707808213907,-15.752529038735055,0.435598,0.661262,-0.269493,0.548051,-1.133824,-0.163091,0.132817,-10.253906,7.873535,-53.771973,0,0,0.4150781823963632,0.6559535139774205,-0.2983048552854566,0.5525106570198878,-1.073419996636747,-0.1826176085785657,0.1140746893171961,2.702793671952953,7.213757193466819,-25.36671274998025
3339,2024 10 19,05:24:37.815,-0.346471,0.676496,0.349563,0.547829,-1.041047,-0.014649,-0.035157,-10.986328,2.258301,-42.175293,0,0,-0.3405321919003146,0.6628197115947361,0.3654007037259831,0.5577138285390705,-0.9790122706486112,0.0326717725056432,-0.0729306465222633,-4.535776622294106,5.8943374678032106,-17.0736672367983,0.439265,0.661683,-0.266263,0.546192,-1.168004,-0.164556,0.106937,-10.986328,10.864258,-60.60791,0,0,0.416287523276545,0.6562399882785495,-0.2967027625211837,0.5521947241688934,-1.0781491968049095,-0.1817145281496374,0.1137178048513362,2.0183375883553056,7.39628223379348,-27.12877261248124
3340,2024 10 19,05:24:37.823,-0.347946,0.677955,0.346451,0.547067,-0.983917,-0.030763,-0.036622,-11.108398,-3.845215,-42.480469,0,0,-0.3409028823052989,0.6635764760149991,0.364453218539684,0.557181487112117,-0.9792575071161806,0.029500033880361,-0.0711152141961501,-4.8644076911794,5.40735984441305,-18.344007324958383,0.443282,0.662204,-0.262564,0.544102,-1.216346,-0.176275,0.106449,-10.986328,10.559082,-68.481445,0,0,0.4176372471127177,0.6565381888646219,-0.2949958243951245,0.5517900879604487,-1.085059036964664,-0.1814425517421555,0.1133543646087694,1.3681043089375402,7.554422222103805,-29.19640623185717
3341,2024 10 19,05:24:37.832,-0.34948,0.67924,0.343224,0.546529,-0.956084,-0.039064,-0.052248,-11.230469,-5.493164,-42.114258,0,0,-0.3413317381900339,0.6643596522142492,0.3633917576126997,0.5566488627565112,-0.9780988317603716,0.026071832186343,-0.0701718534863426,-5.18271075662043,4.862333652192397,-19.532519858710465,0.447741,0.662864,-0.258394,0.541638,-1.290567,-0.203131,0.052248,-11.962891,11.779785,-77.514648,0,0,0.4191424347570819,0.6568544794213909,-0.2931657331753683,0.5512824835624263,-1.0953344351164307,-0.1825269741550477,0.110299046378331,0.701554543490663,7.765690360998614,-31.612318320264315
3342,2024 10 19,05:24:37.840,-0.350959,0.680456,0.339989,0.546091,-0.960967,-0.06006,-0.059572,-12.573242,-6.652832,-40.771484,0,0,-0.3418131012805322,0.6651644696035367,0.3622216197320648,0.5561209696186855,-0.9772422401723528,0.0217652405770258,-0.0696418608120255,-5.552237318789407,4.286575369582778,-20.59446806577494,0.447741,0.662864,-0.258394,0.541638,-1.290567,-0.203131,0.052248,-11.962891,11.779785,-77.514648,0,0,0.4205723630192278,0.6571549554503213,-0.2914271465165998,0.5508002593843049,-1.105096063360609,-0.1835571754472953,0.1073964940594144,0.0683322663161297,7.966395092948683,-33.907434804251096
3343,2024 10 19,05:24:37.848,-0.352462,0.681463,0.336763,0.545865,-0.946318,-0.062014,-0.025391,-11.291504,-10.681152,-39.245605,0,0,-0.3423455462165056,0.6659793961233599,0.3609486887454615,0.5556081711377513,-0.9756960281637352,0.0175762785481745,-0.0674293177714242,-5.839200652849937,3.5381890011036385,-21.52702491248619,0.452937,0.663484,-0.253599,0.538818,-1.348674,-0.19776,0.058107,-15.319824,15.014648,-89.416504,0,0,0.4221905948682664,0.6574714076778053,-0.2895357391907698,0.5502011464150897,-1.1172749601925789,-0.1842673166749306,0.1049320193564437,-0.7010755469996768,8.318807738301249,-36.68288826403854
3344,2024 10 19,05:24:37.857,-0.352462,0.681463,0.336763,0.545865,-0.946318,-0.062014,-0.025391,-11.291504,-10.681152,-39.245605,0,0,-0.3428513689056803,0.6667535763171919,0.3597394043081884,0.5551210125808638,-0.9742271267555483,0.0135967646207658,-0.065327401882853,-6.11181582020744,2.827221951048456,-22.41295391686188,0.458794,0.663994,-0.247907,0.535875,-1.354045,-0.226569,0.028809,-14.587402,22.949219,-100.219727,0,0,0.424020765124853,0.6577975372939151,-0.2874543022312313,0.5494848390943351,-1.1291134621829495,-0.186382400841184,0.1011258683886215,-1.3953918696496932,9.050328301386186,-39.859730200836616
3345,2024 10 19,05:24:37.865,-0.353936,0.682336,0.333585,0.545772,-0.961943,-0.066408,-0.059084,-11.474609,-10.681152,-37.780762,0,0,-0.3434056004603962,0.6675326975013323,0.358431684092779,0.5546535619518206,-0.9736129204177708,0.0095965263897275,-0.0650152317887103,-6.379955479197068,2.151803253496033,-23.181344321018788,0.465171,0.664379,-0.24116,0.532971,-1.452193,-0.140629,0.135746,-11.657715,30.212402,-110.595703,0,0,0.4260782768686104,0.6581266104292193,-0.2851395871196698,0.5486591471396183,-1.1452674390738022,-0.1840947307991248,0.1028568749691904,-1.9085080261672085,10.108431986316877,-43.39652884079479
3346,2024 10 19,05:24:37.873,-0.355575,0.682973,0.330388,0.545856,-0.955107,-0.095706,-0.030763,-9.887695,-16.235352,-37.414551,0,0,-0.3440140704373764,0.6683047126262657,0.35702949988814,0.5542136838542295,-0.9726876243968824,0.0043314000702411,-0.0633026201992748,-6.555342455237214,1.2324454908212314,-23.89300465496785,0.472032,0.664962,-0.233075,0.5298,-1.538133,-0.084475,0.204108,-8.178711,35.400391,-129.272461,0,0,0.4283759630251798,0.6584683799077583,-0.2825363577636863,0.5477161897826374,-1.164910717120112,-0.1791137442591686,0.1079194312207309,-2.222018174858848,11.373029937001032,-47.69032544875505
3347,2024 10 19,05:24:37.882,-0.357396,0.683425,0.327196,0.546023,-0.96292,-0.068361,-0.064455,-8.361816,-17.333984,-37.536621,0,0,-0.3446831669155076,0.6690607269949523,0.355537824893733,0.553804149661518,-0.972199243177038,0.0006967800667291,-0.0633602391893111,-6.645666132475353,0.3041240162801696,-24.575185472219456,0.479514,0.665679,-0.223286,0.526385,-1.506882,-0.072268,0.219245,0.061035,43.212891,-147.949219,0,0,0.4309328648739208,0.6588289109123703,-0.279573839875502,0.5466496302935054,-1.1820092812641063,-0.1737714570462101,0.1134857096596943,-2.107865516115905,12.96502299015098,-52.70327012631729
3348,2024 10 19,05:24:37.890,-0.359393,0.68372,0.323941,0.546284,-0.947783,-0.06592,-0.030274,-6.774902,-20.874023,-38.757324,0,0,-0.3454186585697322,0.6697936906452048,0.3539579836490463,0.553428142178442,-0.970978431018186,-0.0026340589366073,-0.0617059272298455,-6.652127925851585,-0.7547833345338391,-25.28429239860848,0.479514,0.665679,-0.223286,0.526385,-1.506882,-0.072268,0.219245,0.061035,43.212891,-147.949219,0,0,0.4333619216302247,0.6591714153667517,-0.2767594478817269,0.5456363987788302,-1.1982529172009009,-0.1686962841938996,0.1187736741767096,-1.99942049031011,14.477416390643432,-57.46556757000143
3349,2024 10 19,05:24:37.898,-0.36147,0.684119,0.320655,0.546352,-0.990753,-0.064455,-0.051271,-5.615234,-17.700195,-40.95459,0,0,-0.3462212256412456,0.6705099561129445,0.3522928344665939,0.55307433506952,-0.9719671594672769,-0.0057251059897769,-0.0611841808683532,-6.600283229559006,-1.6020539178071471,-26.067807278678057,0.487359,0.666921,-0.211852,0.522319,-1.568896,-0.038575,0.278329,7.93457,42.663574,-168.640137,0,0,0.4360617755487135,0.6595588945984141,-0.2735140754876405,0.5444705288398887,-1.2167850713408557,-0.1621902199842046,0.1267514404678741,-1.5027209657946043,15.88672427111126,-63.02429604150135
3350,2024 10 19,05:24:37.907,-0.36147,0.684119,0.320655,0.546352,-0.990753,-0.064455,-0.051271,-5.615234,-17.700195,-40.95459,0,0,-0.3469836643591833,0.6711904083072973,0.3507109427432642,0.5527382183160439,-0.9729064514939127,-0.0086616006902881,-0.0606885218249355,-6.551030768081056,-2.406960971916789,-26.812146414744152,0.495708,0.668685,-0.198601,0.51739,-1.695364,-0.018555,0.259285,15.563965,47.485352,-192.382813,0,0,0.4390440867712778,0.6600151998684933,-0.2697684217132585,0.5431165023978942,-1.240714017773813,-0.1550084589849944,0.1333781184444804,-0.6493866675048741,17.466655657555698,-69.49222188942629
3351,2024 10 19,05:24:37.915,-0.363716,0.684569,0.317253,0.546285,-1.025422,-0.078127,-0.078616,-5.126953,-18.310547,-43.823242,0,0,-0.3478202811412241,0.6718593378919323,0.3490380456061009,0.5524155574002416,-0.9755322289192172,-0.0121348706557737,-0.0615848957336888,-6.479826879677002,-3.20214027332095,-27.662701194006942,0.504998,0.670242,-0.183164,0.512059,-1.850642,-0.106937,0.049318,16.418457,60.180664,-218.688965,0,0,0.4423417824327139,0.6605265398750687,-0.2654382006275956,0.5415636272779994,-1.2712104168851224,-0.1526048860357446,0.1291751125222564,0.2040055158703697,19.602356074677918,-76.95205904495498
3352,2024 10 19,05:24:37.923,-0.36628,0.684909,0.313606,0.546251,-1.006867,-0.063967,-0.102542,-3.845215,-20.935059,-47.485352,0,0,-0.3487432670841628,0.6725118209973356,0.3472664433257958,0.5521073295302295,-0.9770989674732564,-0.014726477122985,-0.0636327509470043,-6.348096285693152,-4.088786209654902,-28.653833734306595,0.515841,0.6717,-0.165855,0.505192,-2.01178,-0.071291,-0.013184,11.962891,63.293457,-252.624512,0,0,0.4460167433110781,0.6610852128813152,-0.2604590405962158,0.5397450459140996,-1.3082388960408662,-0.1485391917339574,0.1220571568961435,0.7919497900768513,21.786911120944016,-85.73568169270723
3353,2024 10 19,05:24:37.932,-0.369057,0.685269,0.309668,0.546177,-1.008332,-0.056642,-0.098148,-4.516602,-22.521973,-51.635742,0,0,-0.3497589537299547,0.6731496799474688,0.345386521159506,0.551810813053718,-0.9786606190995936,-0.0168222532668357,-0.0653585133996541,-6.256521571408493,-5.010445549172157,-29.802929147591264,0.528238,0.672421,-0.145911,0.497517,-2.240791,-0.082034,-0.153325,7.93457,84.899902,-286.682129,0,0,0.4501278061455242,0.6616520022372494,-0.254731638566405,0.5376336436183946,-1.3548665012388228,-0.1452139321472595,0.1082880490513364,1.1490808005730089,24.942560664896813,-95.78300405807188
3354,2024 10 19,05:24:37.940,-0.371961,0.685855,0.305438,0.545853,-1.054231,-0.063967,-0.092776,-5.126953,-19.897461,-56.884766,0,0,-0.350869056043457,0.6737849459500953,0.3433890951015307,0.5515129224010321,-0.9824391381446138,-0.0191794906034939,-0.0667293877296714,-6.2000431428380685,-5.754796321713549,-31.157020990211706,0.528238,0.672421,-0.145911,0.497517,-2.240791,-0.082034,-0.153325,7.93457,84.899902,-286.682129,0,0,0.4540333158382479,0.662190452125387,-0.2492906066380847,0.5356278114374748,-1.3991627261768815,-0.1420549355398966,0.0952073965987695,1.4883552605443584,27.94042773165197,-105.32796030516826
3355,2024 10 19,05:24:37.948,-0.375166,0.686598,0.300833,0.545282,-1.099643,-0.084475,-0.072268,-4.882813,-21.057129,-63.842773,0,0,-0.3520839032412841,0.6744255986525906,0.3412612903464542,0.5512013762809805,-0.988299331237383,-0.0224442660733192,-0.0670063183431878,-6.134181635696165,-6.519912955627872,-32.79130859070112,0.542448,0.672015,-0.123041,0.488884,-2.535722,-0.005371,-0.122074,2.746582,104.125977,-325.927734,0,0,0.4584540500463355,0.6626816795191175,-0.2429781263061805,0.5332906208656011,-1.4559906898680373,-0.1352207387629017,0.084343326768831,1.5512665975171405,31.74970519506937,-116.35794898990984
3356,2024 10 19,05:24:37.957,-0.375166,0.686598,0.300833,0.545282,-1.099643,-0.084475,-0.072268,-4.882813,-21.057129,-63.842773,0,0,-0.3532380080792199,0.675034218719961,0.3392398758291315,0.5509054074669315,-0.9938665146755138,-0.0255458027696533,-0.0672694024260284,-6.071613203911356,-7.246773757846478,-34.343881811166064,0.558394,0.670144,-0.096604,0.479343,-2.870205,0.02295,-0.012207,-0.244141,133.666992,-369.689941,0,0,0.4634510475440187,0.6630547955431616,-0.2356594199908714,0.5305932398223211,-1.5267014053746355,-0.1273122018247567,0.0795158104303895,1.4614962176412831,36.8455695353159,-129.02454859041433
3357,2024 10 19,05:24:37.965,-0.378865,0.687386,0.295792,0.544489,-1.078646,-0.090823,-0.066897,-2.746582,-22.277832,-71.533203,0,0,-0.3545193576752589,0.675651807783963,0.3370674820376749,0.5505845870935848,-0.998105488941738,-0.0288096626311706,-0.067250782304727,-5.905361643715788,-7.998326669954155,-36.20334787060776,0.576026,0.666252,-0.065811,0.469011,-3.05771,-0.121586,-0.032228,-4.211426,168.884277,-418.09082,0,0,0.4690797951668177,0.6632146557660035,-0.2271669989913279,0.527514127831205,-1.6032518351059035,-0.1270258917335188,0.07392861990887,1.177850106759219,43.4475049085501,-143.4778621608936
3358,2024 10 19,05:24:37.973,-0.383022,0.688262,0.29038,0.543386,-1.072787,-0.122562,-0.072756,-0.793457,-22.216797,-78.491211,0,0,-0.3559444897914959,0.6762823173947649,0.3347331079357912,0.5502246577389055,-1.0018395644946512,-0.0334972794996121,-0.0675260431894906,-5.649766411529998,-8.709250186456448,-38.317741027077375,0.594948,0.660496,-0.030956,0.456972,-3.32725,-0.265145,0.103519,-3.662109,191.040039,-466.186523,0,0,0.4753732054084768,0.6630787229777032,-0.2173564490417614,0.5239870214396447,-1.6894517433506084,-0.1339318471468429,0.0754081389134265,0.935852151421258,50.82713161312259,-159.61329520284892
3359,2024 10 19,05:24:37.982,-0.387693,0.689199,0.284608,0.541938,-1.085482,-0.121097,-0.088382,0.854492,-22.583008,-86.364746,0,0,-0.3575319153019211,0.6769281515250266,0.3322268525390016,0.5498103248519601,-1.0060216862699185,-0.0378772655246315,-0.0685688410300161,-5.324553490953498,-9.402938077133625,-40.72009127572351,0.613777,0.653448,0.00707,0.442982,-3.377544,-0.618671,0.029298,8.605957,196.777344,-499.938965,0,0,0.4822933951380529,0.6625971868288181,-0.2061351265896733,0.5199367703676625,-1.773856356183078,-0.1581688047895007,0.0731026319677552,1.3193573938501952,58.12464223246646,-176.62957869270647
3360,2024 10 19,05:24:37.990,-0.392893,0.690223,0.278371,0.540127,-1.098178,-0.0918,-0.147954,3.051758,-22.155762,-95.825195,0,0,-0.359299969536825,0.6775928939487753,0.3295340599120515,0.5493261586093621,-1.0106295019564224,-0.0405734022483999,-0.0725380989785153,-4.905737916405823,-10.040579273276943,-43.47534646193733,0.613777,0.653448,0.00707,0.442982,-3.377544,-0.618671,0.029298,8.605957,196.777344,-499.938965,0,0,0.4888675753811503,0.6621397274873771,-0.1954748702601896,0.5160890318492793,-1.854040738373924,-0.1811939145500257,0.0709124003693674,1.6836873741576854,65.05727732084313,-192.79504800807115
3361,2024 10 19,05:24:37.998,-0.398577,0.691396,0.271489,0.53796,-1.128941,-0.10596,-0.158696,2.380371,-23.681641,-106.567383,0,0,-0.3612638210599838,0.6782830492513365,0.3266318069164489,0.5487578506788939,-1.0165450768586013,-0.0438427321359799,-0.0768459940295895,-4.541432470585532,-10.722632359613096,-46.62994828884046,0.632013,0.64532,0.046555,0.426562,-3.391705,-0.624531,-0.113773,4.577637,201.782227,-523.498535,0,0,0.4960248466120927,0.6612987411130082,-0.1833733767471801,0.5116126802568154,-1.930923951455228,-0.2033607688225244,0.061678130350899,1.8283848554498008,71.89352480480096,-209.3302223576676
3362,2024 10 19,05:24:38.007,-0.398577,0.691396,0.271489,0.53796,-1.128941,-0.10596,-0.158696,2.380371,-23.681641,-106.567383,0,0,-0.3631294800069846,0.6789386967887696,0.3238746665706264,0.5482179581449492,-1.0221648730156712,-0.0469485955291809,-0.08093849432811,-4.195342297056255,-11.37058279163244,-49.626820024398434,0.649853,0.635563,0.086502,0.40776,-3.082125,-0.324717,-0.302744,0.183105,187.62207,-541.564941,0,0,0.503716254281488,0.6600119540573578,-0.1698796079098211,0.5064200462439746,-1.9884840038824665,-0.2094285803813982,0.0434570238333541,1.746120862677311,77.67995206456091,-225.94195828978417
3363,2024 10 19,05:24:38.015,-0.404743,0.692784,0.263863,0.535359,-1.17777,-0.090823,-0.132328,1.708984,-23.254395,-118.530273,0,0,-0.3652101560066353,0.679630961949331,0.3208740832420951,0.5475750102377017,-1.0299451293648876,-0.0491423157527219,-0.0835079696117045,-3.900125982203442,-11.964773402050817,-53.071992673178514,0.667156,0.62454,0.124809,0.386361,-2.803797,0.047365,-0.473159,-15.136719,160.705566,-544.494629,0,1,0.5118882415674136,0.6582383563544899,-0.1551451775143301,0.5004170939317759,-2.029249653688343,-0.1965889013623283,0.0176262226416864,0.9019788695434452,81.83123276133286,-241.86959182529492
3364,2024 10 19,05:24:38.023,-0.411338,0.694295,0.255389,0.532477,-1.258339,-0.072756,-0.104984,1.831055,-26.794434,-130.432129,0,0,-0.3675165482063035,0.6803641638518645,0.3175998290799903,0.5468201097258166,-1.0413648228966432,-0.0503229999650857,-0.0845817711311193,-3.61356693309327,-12.706256431948276,-56.93999948951959,0.683968,0.612524,0.16034,0.362343,-2.369701,0.663106,-0.797876,-33.935547,127.441406,-543.945313,0,0,0.520492229489043,0.6559526385367654,-0.1393709186386136,0.4935133892351871,-2.046272221003926,-0.1536041562942118,-0.0231488884903979,-0.8398974239337271,84.11174142326621,-256.9733778840302
3365,2024 10 19,05:24:38.032,-0.418617,0.696029,0.246036,0.528933,-1.327677,-0.031739,-0.097659,3.662109,-26.306152,-146.484375,0,0,-0.3700715707959883,0.6811474056592712,0.3140216376259908,0.5459257542395258,-1.055680431751811,-0.0493937999668315,-0.0852356325745633,-3.249783136438606,-13.386251210350862,-61.4172182650436,0.699263,0.600556,0.191487,0.337188,-2.099185,0.572771,-0.875027,-22.644043,75.683594,-502.624512,0,0,0.5294307680145908,0.6531828066099272,-0.1228280227066829,0.4856971197734278,-2.048917859953729,-0.1172853984795012,-0.065742794065878,-1.9301047027370408,83.6903340521029,-269.25593458982866
3366,2024 10 19,05:24:38.040,-0.426522,0.697583,0.235233,0.525473,-1.369671,-0.093265,-0.026368,-0.305176,-37.963867,-161.254883,0,0,-0.3728940922561889,0.6819691853763076,0.3100822057446912,0.5449031165275495,-1.0713799601642204,-0.0515873599684899,-0.0822922509458351,-3.1025527796166754,-14.615131999833318,-66.40910150179141,0.699263,0.600556,0.191487,0.337188,-2.099185,0.572771,-0.875027,-22.644043,75.683594,-502.624512,0,0,0.5379223796138612,0.6505514662794308,-0.1071122715713487,0.4782716637847564,-2.051431216956043,-0.0827825785555262,-0.1062070043625841,-2.9658016176001887,83.28999704949774,-280.9243634603372
3367,2024 10 19,05:24:38.048,-0.435383,0.699245,0.223276,0.521196,-1.476608,-0.057619,-0.095706,1.464844,-39.428711,-181.762695,0,0,-0.3760185376433794,0.6828329761074922,0.3057418954574566,0.543717760701172,-1.0916413621560097,-0.0518889419700654,-0.0829629383985434,-2.874182940635841,-15.855810949841652,-72.17678117670184,0.713665,0.588389,0.217329,0.311847,-1.368694,1.041047,-0.908231,-52.55127,46.264648,-462.463379,0,0,0.5467095106331681,0.6474433429654592,-0.0908902079927813,0.4699504305955185,-2.017294356108241,-0.0265910996277498,-0.1463082041444549,-5.44507503672018,81.43872959702286,-290.0013142373203
3368,2024 10 19,05:24:38.057,-0.435383,0.699245,0.223276,0.521196,-1.476608,-0.057619,-0.095706,1.464844,-39.428711,-181.762695,0,0,-0.3789867607612104,0.6836535773021175,0.3016186006845838,0.5425916726661133,-1.1108896940482091,-0.0521754448715621,-0.0836000914786162,-2.657231593604049,-17.034455952349568,-77.65607686786673,0.726667,0.576676,0.236717,0.28873,-1.157262,0.711447,-1.06888,-69.458008,-3.601074,-382.202148,0,0,0.5557073851015097,0.6439049758171863,-0.0745098475931422,0.4608894090657425,-1.9742927383028288,0.0103108053536376,-0.1924367939372321,-8.64572168488417,77.18673941717171,-294.6113559254543
3369,2024 10 19,05:24:38.065,-0.445103,0.700472,0.209266,0.517137,-1.66509,-0.045412,-0.00586,-3.112793,-56.640625,-201.843262,0,0,-0.3822925727231499,0.6844944984370116,0.2970009706503546,0.5413189390328077,-1.138599709345799,-0.051837272627984,-0.0797130869046854,-2.680009663923846,-19.014764404732087,-83.8654361244734,0.738015,0.565598,0.247748,0.272126,1.471236,1.311075,0.087893,-88.745117,2.685547,-228.027344,0,0,0.5648227658464343,0.639989627026327,-0.0583969552134851,0.4514512386124554,-1.8020163013876875,0.0753490150859557,-0.1784203042403705,-12.65069145063996,73.46167979631312,-291.28215532918153
3370,2024 10 19,05:24:38.073,-0.455853,0.701496,0.193114,0.512649,-1.952208,-0.070803,-0.021973,-5.249023,-71.105957,-229.003906,0,0,-0.3859705940869924,0.685344573515161,0.2918066221178368,0.5398854420811673,-1.179280123878509,-0.0527855589965848,-0.0768260825594511,-2.808460330727654,-21.619324034495484,-91.12235961824972,0.742122,0.559987,0.248084,0.272256,0.690939,2.327219,-0.728538,-47.424316,-10.437012,46.875,0,0,0.5736877275541126,0.6359894956750106,-0.0430729074528108,0.4424914766818326,-1.6773685363183028,0.1879425143316579,-0.205926189028352,-14.389372678107962,69.26674520649746,-274.37429756272246
3371,2024 10 19,05:24:38.082,-0.467978,0.701765,0.174156,0.508126,-2.12653,-0.133305,-0.008789,-5.67627,-92.224121,-260.864258,0,0,-0.3900709643826427,0.686165594839403,0.285924091011945,0.5382974699771089,-1.2266426176845833,-0.0568115310467555,-0.0734242284314785,-2.951850814191271,-25.14956388277071,-99.60945453733724,0.738168,0.565239,0.236,0.282695,-0.379406,1.343791,0.338389,10.131836,-33.813477,237.792969,0,0,0.5819117411764069,0.63245197089126,-0.0291192620801703,0.4345016528477409,-1.6124704095023878,0.245734938615075,-0.1787104295769344,-13.163312244202563,64.11273409617259,-248.7659342345863
3372,2024 10 19,05:24:38.090,-0.481774,0.700842,0.152128,0.503559,-2.349193,-0.14893,0.177252,-2.197266,-120.239258,-293.029785,0,0,-0.3946561161635106,0.6868994150974328,0.2792342864613477,0.5365605464782535,-1.282770136800354,-0.0614174544944178,-0.0608904170099046,-2.914121573481707,-29.904048588632172,-109.28047106047038,0.727924,0.573752,0.221224,0.303306,-0.865261,1.11771,-0.422864,51.696777,11.71875,343.62793,0,0,0.5892123541175865,0.629516972346697,-0.0166020989761618,0.4279418702053538,-1.5751099390272685,0.2893336916843213,-0.1909181080980876,-9.920307781992436,61.49303489136396,-219.14624102285697
3373,2024 10 19,05:24:38.098,-0.496645,0.69894,0.127375,0.498601,-2.514237,-0.295907,-0.097659,-3.234863,-139.343262,-321.960449,0,0,-0.3997555603553351,0.6875014443425611,0.2716413221382803,0.5346625691543408,-1.3443434799603364,-0.0731419317696969,-0.0627288461594094,-2.9301586448076216,-35.376009259200565,-119.91446995744684,0.727924,0.573752,0.221224,0.303306,-0.865261,1.11771,-0.422864,51.696777,11.71875,343.62793,0,0,0.5961479364117072,0.6267287237293622,-0.0047107940273537,0.4217100766950861,-1.5396174920759047,0.3307525071001053,-0.2025154026931833,-6.839453542892812,59.00432064679576,-191.0075324717141
3374,2024 10 19,05:24:38.107,-0.496645,0.69894,0.127375,0.498601,-2.514237,-0.295907,-0.097659,-3.234863,-139.343262,-321.960449,0,0,-0.4046000323375683,0.688073372125433,0.2644280060313662,0.5328594906966239,-1.4028381559623195,-0.084280185181212,-0.0644753538514389,-2.9453938625672405,-40.574371896240535,-130.0167689095745,0.714602,0.586209,0.203363,0.323027,-1.149449,0.68215,-0.337413,82.336426,-37.04834,352.600098,0,0,0.6020706395911217,0.6247027375428941,0.0056928956740139,0.4167759228603318,-1.5201090674721094,0.3483223817451,-0.2092602825585241,-2.3806595657481706,54.20168761445596,-163.8271509481284
3375,2024 10 19,05:24:38.115,-0.512044,0.695779,0.099678,0.493727,-2.564043,-0.606464,0.000977,-12.145996,-162.719727,-344.543457,0,0,-0.4099722307206899,0.6884586535191614,0.2561905057297979,0.5309028661617926,-1.4608983981642034,-0.1103893759221514,-0.0612027361588669,-3.4054239694388784,-46.68163965142851,-140.74310331409575,0.700836,0.598482,0.185735,0.340808,-0.857936,0.419446,-0.787622,84.04541,-38.024902,331.665039,0,0,0.6070089076115657,0.6233917006657493,0.0146950008903132,0.4129775267173152,-1.4870004140985038,0.351878562657845,-0.2381783684305979,1.940643912539238,49.59035813373317,-139.05254145072198
3376,2024 10 19,05:24:38.123,-0.527803,0.692106,0.070961,0.487215,-2.726646,-0.528825,0.044435,-4.150391,-153.808594,-362.304688,0,0,-0.4158637691846554,0.6886410208432032,0.246929030443308,0.528718472853703,-1.524185778255993,-0.1313111571260438,-0.0559208493509236,-3.442672320966934,-52.03798736885709,-151.82118254839094,0.687843,0.61032,0.167624,0.355365,-0.691427,0.182134,-0.690451,75.744629,-71.044922,306.82373,0,0,0.6110506122309873,0.6227381156324618,0.0223414508457976,0.4100969003814494,-1.4472217433935786,0.3433913345249527,-0.260792000009068,5.6308431669122765,43.55859412704651,-116.75872787818588
3377,2024 10 19,05:24:38.132,-0.543954,0.687312,0.041703,0.47956,-2.662191,-0.264168,0.046876,2.563477,-158.813477,-376.037598,0,0,-0.4222682807254226,0.688574569801043,0.2366677289211426,0.5262605492110177,-1.5810860393431936,-0.1379539992697416,-0.0507810068833774,-3.142364854918587,-57.37676185041423,-163.03200332097137,0.676096,0.620861,0.14878,0.367818,-0.625996,0.096683,-0.708029,55.664063,-82.15332,291.320801,0,0,0.6143028816194379,0.6226442598508387,0.0286633783035077,0.4079829553623769,-1.4061604562238996,0.3310559177987051,-0.2831538500086146,8.132504158566663,37.27299842069418,-96.35475143427657
3378,2024 10 19,05:24:38.140,-0.560146,0.681316,0.011962,0.471065,-2.516678,-0.218757,0.065432,3.356934,-159.301758,-384.94873,0,0,-0.4291621666891514,0.6882116413109909,0.2254324424750854,0.5235007717504668,-1.6278656373760338,-0.1419941493062545,-0.0449703565392085,-2.8173999121726574,-62.47301165789352,-174.12783965492278,0.665443,0.629947,0.1287,0.379194,-0.570818,0.121097,-0.63332,32.775879,-97.65625,288.208008,0,0,0.6168598875384661,0.6230093968582967,0.0336652093883323,0.4065435075942581,-1.3643933334127047,0.3205579719087698,-0.3006621575081838,9.364672900638327,30.526535999659465,-77.12661346256273
3379,2024 10 19,05:24:38.148,-0.576313,0.674573,-0.017815,0.460975,-2.356517,-0.031739,0.205573,15.197754,-151.000977,-395.812988,0,0,-0.4365197083546939,0.6875297092454413,0.2132700703513311,0.5203744831629434,-1.6642982055072322,-0.1364813918409418,-0.0324431887122481,-1.9166422165640244,-66.89940992499885,-185.21209707217665,0.665443,0.629947,0.1287,0.379194,-0.570818,0.121097,-0.63332,32.775879,-97.65625,288.208008,0,0,0.6192890431615428,0.6233562770153819,0.0384169489189157,0.4051760322145452,-1.3247145667420694,0.3105849233133313,-0.3172950496327746,10.535233205606412,24.11739669967649,-58.85988238943459
3380,2024 10 19,05:24:38.157,-0.576313,0.674573,-0.017815,0.460975,-2.356517,-0.031739,0.205573,15.197754,-151.000977,-395.812988,0,0,-0.4435093729369591,0.6868818737831692,0.2017158168337646,0.5174045090047962,-1.6989091452318703,-0.1312442722488947,-0.0205423792766357,-1.0609224057358233,-71.1044882787489,-195.7421416185678,0.65564,0.637708,0.106496,0.39003,-0.587909,0.203131,-0.585467,8.422852,-111.51123,296.75293,0,0,0.6211065910034655,0.6240738631646127,0.0418209014729699,0.4044187306038179,-1.287874288404966,0.3052122271476647,-0.3307036471511358,10.42961414532609,17.335965364692665,-41.079241769962856
3381,2024 10 19,05:24:38.165,-0.592564,0.666997,-0.046775,0.449216,-1.804254,0.288095,0.427259,23.071289,-132.385254,-399.414063,0,0,-0.4509621042901111,0.6858876300940108,0.1892912759920763,0.5139950835545564,-1.704176387970277,-0.11027730863645,0.001847689687196,0.1456881645509677,-74.16852656481146,-205.9257376876394,0.646213,0.644007,0.081959,0.401181,-0.614277,0.237312,-0.54445,-15.74707,-120.239258,314.27002,0,0,0.6223619114532922,0.625070520006382,0.0438278063993214,0.404256844073627,-1.2541944239847174,0.3018172157902814,-0.341390964793579,9.120779938059783,10.45720419645803,-23.31177868146471
3382,2024 10 19,05:24:38.173,-0.609263,0.659858,-0.073402,0.433587,-1.610889,0.602557,0.450697,37.963867,-75.98877,-413.513184,0,0,-0.4588771490756055,0.6845861485893102,0.1761566121924725,0.5099746793768285,-1.6995120185717632,-0.0746355932046275,0.0242901552028362,2.0365971063234194,-74.25953873657087,-216.30511000325745,0.63685,0.648964,0.054864,0.412623,-0.713889,0.232429,-0.444838,-37.231445,-131.103516,333.557129,0,0,0.6230863158806276,0.6262651940060628,0.0443796160793553,0.4046751518699457,-1.2271791527854814,0.2983478050007673,-0.3465633165539,6.803168691156795,3.379168186635127,-5.468333297391471
3383,2024 10 19,05:24:38.182,-0.627221,0.652989,-0.097538,0.41314,-1.473678,0.668477,0.820338,50.964355,-21.66748,-432.800293,0,0,-0.4672943416218252,0.6830062911598447,0.1624718815828489,0.505132945407987,-1.688220317643175,-0.0374799635443961,0.0640925474426944,4.482985001007249,-71.62993579974233,-227.12986915309455,0.627462,0.6526,0.025377,0.423981,-0.780786,0.230476,-0.367199,-56.82373,-144.165039,348.327637,0,0,0.6233051000865962,0.6275819343057597,0.0434294852753876,0.4056404442764483,-1.2048594951462073,0.2949542147507289,-0.347595100726205,3.621823756598955,-3.998042172696631,12.221465217478103
3384,2024 10 19,05:24:38.190,-0.645762,0.646147,-0.118585,0.38913,-1.71392,1.30961,0.699728,68.664551,20.141602,-436.157227,0,0,-0.4762177245407339,0.6811633266018524,0.1484190375037064,0.4993327981375876,-1.6895053017610162,0.0298745346328236,0.0958743200705597,7.692063300956887,-67.04135890975522,-237.58123704543985,0.617979,0.655135,-0.006384,0.43458,-0.85696,0.212409,-0.296884,-73.974609,-161.437988,358.764648,0,0,0.6230387950822663,0.6289595875904717,0.0409388110116182,0.4070874220626259,-1.187464520388897,0.2908269540131925,-0.3450595456898947,-0.2579978812309931,-11.8700394640618,29.5486243566042
3385,2024 10 19,05:24:38.198,-0.660816,0.639234,-0.142765,0.366498,-0.59621,0.066897,-0.144047,7.568359,-38.94043,-419.494629,0,0,-0.4854476383136972,0.6790668602717598,0.1338598356285211,0.4926910582307082,-1.6348405366729652,0.0317256579011824,0.0838782540670317,7.685878085909042,-65.63631246426746,-246.67690664316785,0.617979,0.655135,-0.006384,0.43458,-0.85696,0.212409,-0.296884,-73.974609,-161.437988,358.764648,0,0,0.622785805328153,0.6302683582109481,0.0385726704610373,0.4084620509594946,-1.170939294369452,0.2869060563125328,-0.3426507684053999,-3.943828437169444,-19.348436890858707,46.00942553877399
3386,2024 10 19,05:24:38.207,-0.660816,0.639234,-0.142765,0.366498,-0.59621,0.066897,-0.144047,7.568359,-38.94043,-419.494629,0,0,-0.4942160563980123,0.6770752172581718,0.120028593847095,0.4863814053191727,-1.5829090098393168,0.0334842250061233,0.0724819913636801,7.68000213161359,-64.30151834105409,-255.31779276100943,0.608311,0.656714,-0.04023,0.443921,-0.970244,0.229499,-0.248543,-88.439941,-182.250977,365.478516,0,0,0.6220620650617452,0.6315906403004007,0.0346325369379854,0.4102349984115199,-1.1609045296509797,0.2840357034969061,-0.3379453799851299,-8.168634065310972,-27.49356389631577,61.98288006183529
3387,2024 10 19,05:24:38.215,-0.671922,0.633467,-0.158907,0.349268,0.285165,0.954619,0.484878,25.817871,14.648438,-262.512207,0,0,-0.5031013535781117,0.6748948063952632,0.1060818141547402,0.4795257350532141,-1.489505309347351,0.0795409637558172,0.0931017917954961,8.58689557503291,-60.354020524001385,-255.6775134729589,0.598263,0.657555,-0.07595,0.45159,-1.153844,0.286142,-0.132817,-99.853516,-203.857422,368.713379,0,0,0.620872111808658,0.6328888582853807,0.0291034100910861,0.4123027484909438,-1.1605515031684304,0.2841410183220608,-0.3276889609858733,-12.752878162045423,-36.31175680149998,77.31940500874353
3388,2024 10 19,05:24:38.223,-0.675449,0.633553,-0.16205,0.340763,0.478042,1.388226,0.85403,-4.699707,50.90332,-45.593262,0,0,-0.511718735899206,0.6728277160755001,0.0926752234470032,0.4725875983005533,-1.3911279438799833,0.1449752155680263,0.1311482022057213,7.922565446281264,-54.79115349780131,-245.17330089931096,0.587655,0.657709,-0.112824,0.457549,-1.344279,0.353038,-0.005371,-106.201172,-221.008301,367.370605,0,0,0.619211256218225,0.6341298653711116,0.0220070395865318,0.4145650610663966,-1.1697378780100087,0.2875858674059577,-0.3115730629365796,-17.42529285394315,-45.546584011424976,91.82196500830636
3389,2024 10 19,05:24:38.232,-0.671645,0.639435,-0.152876,0.341532,-0.478042,0.933622,0.35548,-38.757324,94.970703,137.329102,0,0,-0.5197150491042457,0.671158080271725,0.080397662274653,0.4660348183855257,-1.345473646685984,0.184407554789625,0.1423647920954352,5.5885709739672,-47.30306067291124,-226.0481807543454,0.576197,0.657225,-0.150082,0.46209,-1.538621,0.396496,0.136723,-105.712891,-229.797363,365.234375,0,0,0.6170605434073138,0.635284622102556,0.0134025876072052,0.4169413080130768,-1.1881820341095082,0.2930313740356598,-0.2891582597897507,-21.839672761245996,-54.75912296085372,105.49258550789102
3390,2024 10 19,05:24:38.240,-0.663786,0.648373,-0.136286,0.347026,-0.858913,0.709983,0.473647,-57.189941,107.666016,221.374512,0,0,-0.5269185966490334,0.6700188262581387,0.0695634791609204,0.4600843774662494,-1.3211456143516849,0.2106863270501437,0.1589289024906635,2.4496453752688403,-39.55460683926568,-203.67704611662813,0.563671,0.655995,-0.186936,0.465833,-1.691458,0.4214,0.231452,-100.280762,-230.224609,363.769531,0,0,0.6143910662369481,0.6363201409974282,0.003385658226845,0.419385892612423,-1.2133458324040327,0.2994498053338768,-0.2631277468002631,-25.76172722318369,-63.53239726281103,118.40643278249648
3391,2024 10 19,05:24:38.248,-0.654209,0.65862,-0.117092,0.352874,-0.686056,0.635273,0.697287,-60.180664,136.59668,236.877441,0,0,-0.5332831168165817,0.6694488849452318,0.0602307052028744,0.4547238585929369,-1.2893911336341006,0.2319156606976365,0.1858468073661303,-0.6818700934946018,-30.747042497302395,-181.64932176079677,0.563671,0.655995,-0.186936,0.465833,-1.691458,0.4214,0.231452,-100.280762,-230.224609,363.769531,0,0,0.6118550629251007,0.6373038839475568,-0.0061304246844972,0.4217082479818018,-1.2372514407838309,0.3055473150671829,-0.2383987594602499,-29.48767896202451,-71.86700784967047,130.67458769337165
3392,2024 10 19,05:24:38.257,-0.644812,0.66935,-0.096572,0.356177,-0.482437,0.535661,0.55324,-60.974121,163.757324,223.388672,0,0,-0.5388595609757525,0.6694439406979702,0.0523905699427306,0.44979651566329,-1.2490434269523956,0.2471029276627547,0.2042164669978237,-3.6964826388198713,-21.02182417243728,-161.3974220727569,0.549815,0.654047,-0.223006,0.469249,-1.807184,0.44142,0.328135,-89.96582,-226.318359,364.929199,0,0,0.6087530597788456,0.6381410397501789,-0.0169742034502723,0.4240852855827117,-1.2657480687446392,0.3123409493138238,-0.2100720714872374,-32.511586013923285,-79.58957540718694,142.38731825870306
3393,2024 10 19,05:24:38.265,-0.644812,0.66935,-0.096572,0.356177,-0.482437,0.535661,0.55324,-60.974121,163.757324,223.388672,0,0,-0.5441571829269648,0.6694392436630716,0.0449424414455941,0.4451155398801255,-1.2107131056047755,0.2615308312796169,0.2216676436479325,-6.560364556878877,-11.782866763815411,-142.15811736911903,0.534364,0.651499,-0.258111,0.472634,-1.88873,0.492691,0.424818,-75.500488,-222.229004,367.675781,0,0,0.6050336067899034,0.6388089377626699,-0.0290310432777587,0.4265127213035761,-1.2968971653074073,0.3213584518481325,-0.1783275679128755,-34.66103111322712,-86.7215468368276,153.65174139576789
3394,2024 10 19,05:24:38.273,-0.6362,0.680153,-0.075478,0.356292,-0.449721,0.506851,0.347179,-55.664063,198.608398,200.866699,0,0,-0.5487593237806165,0.6699749314799179,0.0389214193733144,0.4406743628861193,-1.172663500324537,0.2737968397156361,0.2279432114655359,-9.015549479034934,-1.2633035256246394,-125.0068765506631,0.517111,0.648607,-0.291874,0.476144,-2.004456,0.50734,0.466323,-55.114746,-216.918945,368.530273,0,0,0.6006374764504081,0.6392988408745364,-0.0421731911138708,0.4289942852383972,-1.3322751070420369,0.3306575292557259,-0.1460950395172317,-35.68371685756576,-93.2314167449862,164.39566797597948
3395,2024 10 19,05:24:38.282,-0.62836,0.691077,-0.053363,0.353169,-0.691427,0.576678,0.228523,-50.720215,228.33252,183.959961,0,0,-0.5527393575915858,0.6710300349059221,0.0343071984046487,0.4362990947418133,-1.14860167530831,0.2889408977298543,0.2279722008922591,-11.100782755083188,10.216487650656592,-109.55853467312994,0.497908,0.645794,-0.324031,0.479626,-2.159734,0.480972,0.500992,-30.883789,-216.552734,366.577148,0,0,0.5955010026278876,0.6396235988308095,-0.0562660815581772,0.4315258709764773,-1.3736480516899348,0.3381732527929396,-0.1137406875413701,-35.44372046468747,-99.39748260773688,174.5047419771805
3396,2024 10 19,05:24:38.290,-0.620495,0.701494,-0.03101,0.349185,-0.948271,0.635273,0.141118,-47.851563,226.806641,182.006836,0,0,-0.5561271397120064,0.672553233160626,0.0310413384844162,0.4319433900047226,-1.1385851415428945,0.3062575028433615,0.2236294908476461,-12.938321767329027,21.045995318123765,-94.98026613947344,0.476666,0.643144,-0.354538,0.483174,-2.323801,0.457533,0.482925,-5.67627,-215.087891,366.699219,0,0,0.5895592524964932,0.6397996188892691,-0.0711796774802684,0.4341082774276534,-1.421155699105438,0.3441412401532926,-0.0839074031643016,-33.9553479414531,-105.18200302735004,184.11446582832147
3397,2024 10 19,05:24:38.298,-0.611894,0.710696,-0.009273,0.347003,-1.025422,0.609394,0.018067,-47.851563,197.753906,194.519043,0,0,-0.5589154827264061,0.6744603715025946,0.0290256215601954,0.4276963705044864,-1.1329269844657497,0.3214143277011934,0.2133513663052638,-14.683983828962576,29.881390852217574,-80.50530068249977,0.476666,0.643144,-0.354538,0.483174,-2.323801,0.457533,0.482925,-5.67627,-215.087891,366.699219,0,0,0.5839145898716684,0.6399668379448056,-0.0853475936062549,0.4365615635562707,-1.4662879641501658,0.3498108281456279,-0.0555657830060865,-32.54139404438044,-110.67729742598252,193.2437034869054
3398,2024 10 19,05:24:38.307,-0.602396,0.718498,0.01219,0.347465,-1.040071,0.548845,-0.077639,-46.569824,170.654297,216.064453,0,0,-0.5610895085900858,0.676662252927465,0.0281838404821856,0.4236848019792621,-1.128284185242462,0.3327858613161337,0.1988018479900006,-16.278275837514446,36.920036159606695,-65.67681299837477,0.453289,0.640535,-0.383464,0.487031,-2.518143,0.345714,0.447279,20.324707,-213.623047,369.689941,0,0,0.577383310378085,0.6399952460475653,-0.1002534139259422,0.4390850353784571,-1.5188807159426574,0.3496059867383466,-0.0304235438557822,-29.898088992161416,-115.8245849046834,202.0660153625601
3399,2024 10 19,05:24:38.315,-0.602396,0.718498,0.01219,0.347465,-1.040071,0.548845,-0.077639,-46.569824,170.654297,216.064453,0,0,-0.5631548331605815,0.6787540402810918,0.0273841484580763,0.419873811880299,-1.1238735259803387,0.343588818250327,0.1849798055905006,-17.79285324563872,43.60674920162636,-51.589749698456025,0.427882,0.637741,-0.410819,0.491356,-2.700278,0.106937,0.410169,44.189453,-209.228516,374.572754,0,0,0.5699082448591807,0.639882533745187,-0.1157816932296451,0.4416985836095343,-1.5779505801455245,0.3374725374014292,-0.0083939166629931,-26.193711892553345,-120.49478145944924,210.6913522944321
3400,2024 10 19,05:24:38.323,-0.592079,0.724938,0.034038,0.350355,-1.000519,0.476089,-0.094729,-41.931152,150.268555,239.624023,0,0,-0.5646010415025524,0.6810632382670371,0.0277168410351725,0.416397871286284,-1.1177057996813218,0.3502138273378106,0.1709943653109756,-18.999768183356785,48.93983949154504,-37.02906106353322,0.400893,0.634401,-0.436565,0.496217,-2.861904,-0.178716,0.34962,63.537598,-201.782227,378.356934,0,0,0.5614574826162216,0.6396084570579276,-0.1318208585681628,0.4444245044290575,-1.642148251138248,0.3116631105313577,0.0095067791701565,-21.70714639792568,-124.55915373647676,219.0746313797105
3401,2024 10 19,05:24:38.332,-0.581156,0.730191,0.057033,0.354719,-1.000519,0.393567,-0.130375,-33.752441,145.629883,262.207031,0,0,-0.5654287894274248,0.6835196263536852,0.0291826489834139,0.4133139277219698,-1.1118464596972557,0.3523814859709201,0.1559258970454268,-19.737401824188943,53.774341666967786,-22.06725646035656,0.372953,0.630475,-0.460475,0.501368,-2.899991,-0.625507,0.297372,78.308105,-192.565918,375.366211,0,0,0.5520322584854106,0.6391517842050312,-0.1482535656397547,0.4472716792076046,-1.7050403885813357,0.2648046050047898,0.0239000402116486,-16.70638382802939,-127.95949194965291,226.88921036072492
3402,2024 10 19,05:24:38.340,-0.569883,0.734319,0.081662,0.359639,-1.084018,0.356456,-0.161626,-22.460938,148.864746,280.761719,0,0,-0.5656514999560536,0.686059595036001,0.0318066165342432,0.4106301813358713,-1.1104550367123929,0.3525852116723741,0.1400483021931554,-19.87357863297949,58.52886188361939,-6.925807687338729,0.344889,0.626248,-0.482451,0.50607,-2.864345,-1.309122,0.192877,85.632324,-188.598633,363.220215,0,0,0.54167509556114,0.6385065949947796,-0.1649634373577669,0.4502115952472243,-1.7630056191522687,0.1861082747545503,0.0323488882010662,-11.58944843662792,-130.99144900217027,233.70576059268868
3403,2024 10 19,05:24:38.348,-0.558439,0.737177,0.10756,0.364892,-1.199255,0.32374,-0.203131,-11.169434,148.132324,294.128418,0,0,-0.5652908749582508,0.6886154652842009,0.035594285707531,0.4083432722690777,-1.114895034876773,0.3511429510887554,0.1228893370834976,-19.43837140133052,63.00903498943842,8.12690359702821,0.344889,0.626248,-0.482451,0.50607,-2.864345,-1.309122,0.192877,85.632324,-188.598633,363.220215,0,0,0.531835790783083,0.6378936652450405,-0.1808378154898786,0.4530045154848631,-1.8180725881946551,0.1113467610168228,0.0403752937910129,-6.728359814796523,-133.87180820206174,240.18148331305423
3404,2024 10 19,05:24:38.357,-0.546938,0.738577,0.13418,0.370619,-1.323283,0.308603,-0.218757,0.244141,141.357422,304.321289,0,0,-0.5643732312103382,0.6911135420199909,0.0405235714221545,0.4064570586556238,-1.1253144331329343,0.3490159535343176,0.1058070202293228,-18.45424578126399,66.9264543399665,22.9366228671768,0.317442,0.622443,-0.502372,0.50933,-2.923429,-2.153874,0.180181,85.998535,-190.185547,337.646484,0,0,0.5211161012439287,0.6371211319827884,-0.1969145247153846,0.4558207897106199,-1.8733404087849224,-0.0019142770340183,0.0473655791014623,-2.0920150740566967,-136.68749514195864,245.0547333474015
3405,2024 10 19,05:24:38.365,-0.546938,0.738577,0.13418,0.370619,-1.323283,0.308603,-0.218757,0.244141,141.357422,304.321289,0,0,-0.5635014696498213,0.6934867149189913,0.0452063928510467,0.4046651557228426,-1.1352128614762875,0.3469953058576017,0.0895788192178566,-17.51932644220079,70.64800272296817,37.00585617381795,0.292513,0.619454,-0.519545,0.510672,-2.766686,-2.930753,0.231452,74.34082,-181.70166,291.687012,0,0,0.5096859461817322,0.6362377753836489,-0.2130460484796154,0.4585633502250889,-1.918007688345676,-0.1483562131823174,0.0565699001463891,1.729626679646138,-138.93820338486069,247.38634728003143
3406,2024 10 19,05:24:38.373,-0.535521,0.738295,0.160906,0.377157,-1.390667,0.287606,-0.246101,10.314941,126.220703,311.706543,0,0,-0.5621024461673303,0.6957271291730417,0.0509913732084944,0.4032897479367004,-1.1479855684024731,0.3440258405647216,0.0727948282569638,-16.127613070090746,73.42663773681976,50.74089051512705,0.271608,0.617935,-0.53357,0.509597,-2.21247,-3.400983,0.441908,54.321289,-175.78125,229.187012,0,0,0.4977820488726456,0.6353226366144664,-0.2290722460556346,0.4611150327138343,-1.932730803928392,-0.3109875525232016,0.0758368051390697,4.359209795663832,-140.78035571561765,246.47638051602985
3407,2024 10 19,05:24:38.382,-0.524335,0.736201,0.187352,0.384682,-1.353557,0.250496,-0.234382,20.324707,107.910156,317.565918,0,0,-0.5602140738589637,0.6977508227143896,0.0578094045480697,0.4023593605398654,-1.1582641399823494,0.3393493485364854,0.0574359868441156,-14.304997066586209,75.15081364997877,64.08214188937069,0.254215,0.61921,-0.544879,0.505035,-1.585009,-3.555773,0.999054,34.057617,-194.274902,162.780762,0,0,0.4856036964290133,0.6345170047837432,-0.2448625837528529,0.4633110310781426,-1.9153447137319723,-0.4732268248970415,0.1219976648821162,5.84413015588064,-143.45508302983677,242.29159959022837
3408,2024 10 19,05:24:38.390,-0.513366,0.732501,0.213838,0.392646,-1.295938,0.226569,-0.179693,31.860352,100.463867,323.913574,0,0,-0.5578716701660155,0.6994883315786702,0.0656108343206662,0.4018736925128721,-1.165147832983232,0.3337103311096611,0.0455795375019098,-11.996729613256896,76.41646631747983,77.07371349490215,0.238851,0.624227,-0.553846,0.496532,-1.357952,-3.676382,1.70513,21.54541,-228.69873,100.952148,0,0,0.4732660616075626,0.634002504544556,-0.2603117545652103,0.4649720795242354,-1.8874750780453735,-0.6333845836521894,0.2011542816380104,6.629194148086608,-147.7172653783449,235.2246270107169
3409,2024 10 19,05:24:38.398,-0.502423,0.727544,0.240908,0.400267,-1.271523,0.216315,-0.19483,42.297363,101.989746,330.13916,0,0,-0.5550992366577147,0.7008911149997367,0.0743756926046329,0.4017933578872285,-1.1704665913340704,0.3278405645541781,0.0335590606268143,-9.282024982594052,77.69513030160584,89.72698582015704,0.238851,0.624227,-0.553846,0.496532,-1.357952,-3.676382,1.70513,21.54541,-228.69873,100.952148,0,0,0.4615453085271844,0.6335137293173281,-0.2749884668369497,0.4665500755480236,-1.8609989241431049,-0.7855344544695799,0.2763530675561099,7.375004940682277,-151.76633860942763,228.51100306018105
3410,2024 10 19,05:24:38.407,-0.491193,0.721534,0.268799,0.407265,-1.310099,0.265633,-0.132328,51.635742,111.022949,338.500977,0,0,-0.551903924824829,0.7019232592497497,0.0840968579744012,0.402066939992867,-1.1774482117673668,0.3247301863264691,0.0252647075954736,-6.2361366334643495,79.36152123652555,102.16568537914918,0.22464,0.632241,-0.560536,0.485393,-2.061098,-4.258431,2.229072,20.202637,-248.840332,58.532715,0,0,0.4497000431008252,0.6334500928514617,-0.2892658434951022,0.4674922217706224,-1.8710038779359497,-0.9591792817461008,0.3739890141783044,8.016386543648164,-156.62003827895623,220.012088657172
3411,2024 10 19,05:24:38.415,-0.491193,0.721534,0.268799,0.407265,-1.310099,0.265633,-0.132328,51.635742,111.022949,338.500977,0,0,-0.5488683785835875,0.7029037962872622,0.0933319650756812,0.4023268429932236,-1.1840807511789984,0.3217753270101456,0.0173850722156999,-3.3425427017911318,80.94459262469927,113.98244996019172,0.214449,0.639237,-0.564985,0.475583,-2.901944,-4.888333,2.379467,6.225586,-176.208496,39.001465,0,0,0.4379374909457839,0.6337394382088886,-0.3030518013203471,0.4678967606820913,-1.922550884039152,-1.155636967658796,0.4742629134693892,7.926846516465755,-157.5994611650084,210.9615574743134
3412,2024 10 19,05:24:38.423,-0.479266,0.714733,0.297452,0.413501,-1.419965,0.291025,-0.133305,54.382324,117.30957,345.88623,0,0,-0.5453882596544081,0.7034952564728991,0.1035379668218971,0.4028855508435625,-1.1958749636200483,0.3202378106596383,0.0098505686049149,-0.4562993667015744,82.7628414934643,125.57763896218214,0.214839,0.639798,-0.566778,0.472509,-2.62508,-4.86343,2.188543,-34.118652,2.929688,21.66748,0,0,0.4267825663984947,0.6340423662984441,-0.3162381112543297,0.4681273726479867,-1.9576773398371945,-1.3410266192758562,0.5599769177959197,5.824571590642467,-149.573003706758,201.4968536005977
3413,2024 10 19,05:24:38.432,-0.466448,0.707137,0.326348,0.419382,-1.549364,0.3296,-0.146489,52.734375,122.009277,352.722168,0,0,-0.5414412466716876,0.7036773436492542,0.1146784684808022,0.4037103733013844,-1.2135494154390458,0.3207059201266564,0.0020335901746691,2.203234351633504,84.72516326879108,136.93486541407302,0.226225,0.634771,-0.565925,0.474992,-1.565966,-4.110477,1.322306,-74.584961,126.159668,-13.73291,0,0,0.4167546880785699,0.634078797983522,-0.3287224556916133,0.4684706040155873,-1.9380917728453344,-1.4794991383120637,0.5980933719061237,1.8040949611103425,-135.78637012142008,190.73536542056783
3414,2024 10 19,05:24:38.440,-0.452462,0.698866,0.35519,0.425093,-1.695364,0.359386,-0.123051,46.325684,122.98584,359.375,0,0,-0.5369922843381032,0.7034367764667915,0.1267040450567621,0.4047795046363151,-1.2376401446670935,0.3226399241203236,-0.0042206393340642,4.409356834051829,86.63819710535152,148.05687214336936,0.244837,0.637463,-0.56768,0.45982,-11.106296,1.491745,16.0,-368.103027,-139.770508,-219.787598,0,0,0.4081588036746414,0.6342480080843459,-0.3406703329070326,0.4680380738148079,-2.396501984203068,-1.3309369313964603,1.3681887033108175,-16.691261136945176,-135.9855770153491,170.20921724953945
3415,2024 10 19,05:24:38.448,-0.437174,0.689943,0.383534,0.430997,-1.821345,0.349132,-0.12598,35.095215,120.788574,365.112305,0,0,-0.532001370121198,0.7027620876434518,0.139545542803924,0.4060903794044993,-1.2668253874337387,0.3239645279143074,-0.010308607367361,5.943649742349238,88.34571595008394,158.9096437862009,0.244837,0.637463,-0.56768,0.45982,-11.106296,1.491745,16.0,-368.103027,-139.770508,-219.787598,0,0,0.3999927134909093,0.6344087576801286,-0.352020816261681,0.4676271701240675,-2.8319916849929143,-1.1898028348266372,2.0997792681452765,-34.26184943009792,-136.17482356458163,150.70937648706249
3416,2024 10 19,05:24:38.457,-0.420612,0.680519,0.410994,0.437108,-1.927305,0.293466,-0.104984,21.728516,118.347168,367.248535,0,0,-0.5264319016151381,0.7016499332612792,0.1531179656637278,0.4076412604342743,-1.2998493680620518,0.322439601518592,-0.0150423769989929,6.732893055231775,89.84578855257973,169.32658834689084,0.300417,0.62268,-0.546009,0.473171,-0.698751,1.921934,-3.564562,-550.720215,682.739258,-331.848145,1,0,0.3950139278163638,0.6338223197961221,-0.3617202254485969,0.4679043616178641,-2.7253296507432685,-1.0342159930853054,1.8165622047380128,-60.08476770859302,-95.22911948635252,126.58150041270936
3417,2024 10 19,05:24:38.465,-0.420612,0.680519,0.410994,0.437108,-1.927305,0.293466,-0.104984,21.728516,118.347168,367.248535,0,0,-0.5211409065343812,0.7005933865982152,0.1660117673805414,0.4091145974125606,-1.3312221496589491,0.3209909214426624,-0.0195394581490433,7.482674202470186,91.27085752495074,179.2226856795463,0.333929,0.621045,-0.528537,0.472697,-0.17188,2.009339,-1.44145,4.02832,74.09668,-291.564941,0,0,0.3919596814255456,0.633183453806316,-0.3700610641761671,0.4681439935369709,-2.597657168206105,-0.8820382434310401,1.653661594501112,-56.87911332316337,-86.7628295120349,105.67417834207389
3418,2024 10 19,05:24:38.473,-0.402677,0.67087,0.437442,0.443204,-2.056215,0.209479,-0.080569,6.835938,120.300293,367.553711,0,0,-0.515217711207662,0.6991072172683044,0.1795832790115143,0.4108190675419326,-1.3674717921760016,0.3154153253705292,-0.0225909352415911,7.450337392346676,92.7223292987032,188.63923694556897,0.348929,0.632608,-0.511429,0.465292,-1.649464,-0.104495,0.648457,-27.34375,177.67334,-318.664551,0,0,0.3898081473542683,0.6331546811160002,-0.3771294609673587,0.4680013938601223,-2.5502475097957995,-0.8431610812594881,1.603401364776056,-55.40234515700519,-73.54102103643315,84.45724187497018
3419,2024 10 19,05:24:38.482,-0.383372,0.661094,0.462686,0.449336,-2.230048,0.110355,-0.044435,-9.765625,119.628906,366.699219,0,0,-0.5086254256472789,0.6972065564048892,0.1937384150609386,0.4127449141648359,-1.410600602567201,0.3051623091020027,-0.0236831384795116,6.589539272729343,94.06765813376803,197.54223604829053,0.366724,0.640927,-0.487324,0.466092,-1.589892,-0.721213,1.494186,88.562012,65.856934,-303.649902,0,0,0.3886539399865549,0.6335432970602001,-0.3826391879189907,0.4679059241671162,-2.502229734306009,-0.8370636771965136,1.5979405965372533,-48.20412729915493,-66.57112328461149,65.05188468122167
3420,2024 10 19,05:24:38.490,-0.363019,0.651055,0.486182,0.456039,-2.329661,-0.076662,-0.042482,-29.724121,109.863281,363.220215,0,0,-0.5013451043649149,0.6948989785846447,0.2083605943078917,0.4149096184565941,-1.4565536224388411,0.2860710936469026,-0.024623081555536,4.773856259092876,94.85743927707964,205.826134995876,0.37838,0.649414,-0.465902,0.466933,-1.592822,-0.540056,0.335948,35.217285,150.32959,-240.539551,0,0,0.3881402429872271,0.63433683220719,-0.3868023285230412,0.4678572779587604,-2.456759347590709,-0.8222132933366879,1.5348409667103906,-44.033056684197184,-55.72608762038091,49.77231289716058
3421,2024 10 19,05:24:38.498,-0.34181,0.640795,0.507852,0.463287,-2.308176,-0.380871,0.015625,-47.302246,104.492188,359.924316,0,0,-0.4933683491466691,0.6921937796554124,0.2233351645924971,0.4173284875337644,-1.499134741316899,0.2527239889645575,-0.0226106774777592,2.1700511461382312,95.33917671322564,213.53104404608217,0.37838,0.649414,-0.465902,0.466933,-1.592822,-0.540056,0.335948,35.217285,150.32959,-240.539551,0,0,0.3876522308378658,0.6350906905968304,-0.3907573120968891,0.4678110640608224,-2.413562480211173,-0.8081054286698535,1.474896318374871,-40.07053959998733,-45.423303739361856,35.256719702302554
3422,2024 10 19,05:24:38.507,-0.319523,0.630587,0.528114,0.470491,-2.29841,-0.767602,0.046876,-62.62207,107.299805,356.872559,0,0,-0.4846760816893356,0.6891134406726418,0.2385741063628722,0.4199866131570761,-1.539098504251054,0.2017076895163296,-0.0191363436038712,-1.0695549111686806,95.93720812756438,220.6981197937781,0.391111,0.651189,-0.450717,0.468871,-1.59331,-0.588885,0.718284,-10.070801,135.986328,-161.92627,0,0,0.3878251692959725,0.6358956060669889,-0.3937552964920446,0.4678640608577812,-2.372549856200614,-0.7971444072363607,1.437065702456127,-38.570552669987954,-36.35282215239376,25.397570217187425
3423,2024 10 19,05:24:38.515,-0.319523,0.630587,0.528114,0.470491,-2.29841,-0.767602,0.046876,-62.62207,107.299805,356.872559,0,0,-0.4764184276048688,0.6861871186390097,0.2530511010447286,0.4225118324992223,-1.577064079038501,0.1532422050405131,-0.0158357264236777,-4.147180665610247,96.50533797118617,227.50684175408915,0.404599,0.647639,-0.437385,0.474929,-1.157262,0.034181,-0.724143,4.943848,197.814941,-110.900879,0,0,0.3886638608311738,0.6364827757636394,-0.3959367816674424,0.4682173078148921,-2.311785463390584,-0.7555781368745427,1.3290052673333206,-36.39483263648855,-24.64443399477406,18.58264775632805
3424,2024 10 19,05:24:38.523,-0.296344,0.620879,0.546713,0.477278,-2.334544,-1.211463,0.030274,-78.491211,112.487793,345.092773,0,0,-0.4674147062246254,0.6829217127070593,0.2677341959924921,0.4252501408742611,-1.6149380750865758,0.0850069447884874,-0.0135302401024938,-7.864382182329734,97.30446072262684,233.3861383163847,0.409372,0.64646,-0.425352,0.483301,-1.205603,-0.28663,-0.30665,80.13916,133.178711,-59.326172,0,0,0.3896992677896151,0.6369816369754574,-0.3974075425840702,0.4689714924241475,-2.2564763402210546,-0.7321307300308155,1.2472225039666545,-30.568133004664123,-16.753276745035357,14.687206768511649
3425,2024 10 19,05:24:38.532,-0.273012,0.612255,0.562802,0.483594,-2.322336,-1.646046,-0.044435,-95.153809,114.013672,318.908691,0,0,-0.4576945709133941,0.6793883770717062,0.2824875861928675,0.4281673338305481,-1.6503079713322468,-0.0015457024509368,-0.0150754780973691,-12.228853523213248,98.13992128649552,237.66226595056543,0.411151,0.644876,-0.414639,0.493116,-1.137242,-0.379406,0.230964,84.106445,151.123047,-28.503418,0,0,0.3907718544001343,0.6373763551266846,-0.3982691154548667,0.4701787178029401,-2.200514623210002,-0.7144944935292747,1.1964095787683218,-24.83440410443092,-8.359460557783587,12.527675530086066
3426,2024 10 19,05:24:38.540,-0.250166,0.605355,0.575792,0.489312,-2.244209,-2.038148,-0.094729,-111.328125,115.05127,281.799316,0,0,-0.4473181423677244,0.6756867082181209,0.2971528068832241,0.4312245671390207,-1.6800030227656344,-0.10337581732839,-0.0190581541925006,-17.183817097052582,98.98548872217071,239.86911845303715,0.41471,0.640636,-0.40492,0.503628,-0.89407,-0.156743,-0.210456,49.987793,157.836914,-20.080566,0,0,0.3919687616801276,0.6375393373703504,-0.3986016596821233,0.4718511819127931,-2.1351923920495013,-0.6866069188528109,1.1260662998299056,-21.093294249209368,-0.0496418298944059,10.897263453581765
3427,2024 10 19,05:24:38.548,-0.228084,0.600437,0.585555,0.49455,-2.125553,-2.434645,-0.254891,-127.380371,115.539551,242.797852,0,0,-0.4363564352493381,0.6719242228072149,0.3115729165390629,0.4343908387820696,-1.7022805216273529,-0.2199392764619705,-0.0308497964828756,-22.69364479219995,99.81319183606216,240.01555513038528,0.416969,0.637393,-0.397164,0.511984,-1.081088,0.001953,-0.13477,54.870605,120.727539,-13.061523,0,0,0.3932187735961212,0.6375320205018328,-0.3985297766980171,0.4738578228171534,-2.082487172447026,-0.6521789229101703,1.0630244848384105,-17.2950992867489,5.989217211600314,9.699324130902674
3428,2024 10 19,05:24:38.557,-0.207137,0.597417,0.592253,0.499423,-2.0318,-2.830164,-0.492203,-138.916016,112.304688,203.125,0,0,-0.4248954634868711,0.668198861666854,0.3256069207121097,0.4376424468429661,-1.718756495545985,-0.350450512638872,-0.0539174566587318,-28.504763352589958,100.43776664425909,238.171027373866,0.416969,0.637393,-0.397164,0.511984,-1.081088,0.001953,-0.13477,54.870605,120.727539,-13.061523,0,0,0.3944062849163152,0.637525069476741,-0.3984614878631162,0.4757641316762957,-2.0324172138246746,-0.6194723267646618,1.0031347605964898,-13.686814072411456,11.726133301020296,8.56128177435754
3429,2024 10 19,05:24:38.565,-0.207137,0.597417,0.592253,0.499423,-2.0318,-2.830164,-0.492203,-138.916016,112.304688,203.125,0,0,-0.4140075403125275,0.6646597685835113,0.3389392246765042,0.4407314745008178,-1.734408670768686,-0.4744361870069284,-0.0758317338257952,-34.02532598496046,101.03111271204612,236.4187260051727,0.417503,0.634651,-0.389646,0.520658,-0.844264,-0.193854,0.205573,67.993164,115.783691,-2.441406,0,0,0.3955611206704994,0.637381366002904,-0.3980207134699604,0.4780088250924809,-1.9730095531334408,-0.5981914104264286,0.9632566725666653,-9.60281516879088,16.929011185969284,8.011147385639662
3430,2024 10 19,05:24:38.573,-0.188322,0.596075,0.595831,0.504197,-1.815973,-3.204199,-0.817408,-143.066406,99.365234,157.775879,0,0,-0.4027232632969011,0.6612305301543357,0.351783813442679,0.4439047507757768,-1.7384868872302517,-0.610924327656582,-0.1129105471345055,-39.47737998571243,100.9478187764438,232.48658365491409,0.418167,0.632185,-0.383744,0.527465,-0.735374,-0.110355,0.194342,40.95459,83.618164,-4.272461,0,0,0.3966914146369744,0.6371215477027588,-0.3973068777964624,0.4804816338378568,-1.9111277754767688,-0.5737995899051072,0.924810938938332,-7.074944910351336,20.26346882667082,7.396966966357678
3431,2024 10 19,05:24:38.582,-0.173197,0.596447,0.596389,0.508501,-1.551317,-3.735954,-0.98001,-133.056641,80.810547,101.989746,0,0,-0.391246950132056,0.657991353646619,0.364014072770545,0.4471345632369879,-1.7291283928687389,-0.7671758112737528,-0.1562655197777802,-44.15634303642681,99.94095518762164,225.96174177216832,0.418703,0.63075,-0.379943,0.531494,-0.990265,-0.044435,0.030274,29.846191,51.086426,-4.760742,0,0,0.3977919939051257,0.6368029703176208,-0.3964386839066393,0.483032252145964,-1.86508463670293,-0.5473313604098518,0.8800840919914152,-5.228888114833769,21.80461668533728,6.7890815180397945
3432,2024 10 19,05:24:38.590,-0.162163,0.598785,0.595098,0.5109,-2.035218,-4.293588,-1.128452,-98.388672,77.636719,53.588867,0,0,-0.3797927526254532,0.655031035964288,0.3755682691320177,0.4503228350751385,-1.7444328732253018,-0.9434964207100652,-0.2048748437888912,-46.86795948460546,98.82574337824052,217.3430980335599,0.418654,0.629822,-0.376713,0.534921,-0.978545,-0.066897,0.028809,28.320313,43.395996,-2.624512,0,0,0.3988350942098694,0.6364539218017398,-0.3954523997113073,0.4856266895386658,-1.8207576548677835,-0.5233096423893591,0.8375203373918445,-3.55142805909208,22.88418565107041,6.3184018421378045
3433,2024 10 19,05:24:38.598,-0.158076,0.600933,0.592809,0.512318,-2.202704,-4.07239,-0.995636,-51.330566,15.014648,8.422852,0,0,-0.3687069149941805,0.6523261341660735,0.3864303056754167,0.4534225933213816,-1.7673464295640366,-1.0999410996745618,-0.2444129015994466,-47.09108981037519,94.63518860932852,206.8970857318819,0.418832,0.629099,-0.374184,0.537402,-0.892117,-0.082522,0.118656,18.371582,30.578613,-5.493164,0,0,0.399834939499376,0.6360861757116527,-0.3943889797257419,0.4882154550617325,-1.7743256221243942,-0.5012702602698911,0.8015771205222522,-2.455277556137476,23.26890701851689,5.727823550030914
3434,2024 10 19,05:24:38.607,-0.162528,0.600679,0.589281,0.515284,-1.529832,-3.602649,-0.624531,-5.67627,-65.307617,-30.639648,0,0,-0.3583979692444715,0.6497437774577698,0.3965728403916459,0.4565156636553125,-1.7554707080858347,-1.2250764946908337,-0.2634188065194743,-45.02034881985643,86.63804832886208,195.02024904528776,0.418832,0.629099,-0.374184,0.537402,-0.892117,-0.082522,0.118656,18.371582,30.578613,-5.493164,0,0,0.4007847925244072,0.63573681692607,-0.3933787307394547,0.4906747823086458,-1.7302151910181742,-0.4803328472563965,0.7674310644961395,-1.413934578330602,23.634392317591047,5.166774172529368
3435,2024 10 19,05:24:38.615,-0.171665,0.600283,0.585892,0.516645,-1.16654,-2.812098,-0.440443,36.987305,-74.157715,-60.852051,0,0,-0.3490613207822479,0.6472707385848813,0.4060387983720636,0.4595221304725469,-1.7260241726815428,-1.304427569956292,-0.2722700161935006,-40.91996612886361,78.59826016241897,182.22663404302335,0.419108,0.628953,-0.372529,0.538507,-0.995148,-0.061037,0.021485,12.268066,13.183594,-8.239746,0,0,0.4017009528981868,0.6353976260797665,-0.392336244202482,0.4930663931932135,-1.6934618314672656,-0.4593680548935767,0.7301337612713326,-0.7298345494140718,23.11185240171149,4.496448163902899
3436,2024 10 19,05:24:38.623,-0.171665,0.600283,0.585892,0.516645,-1.16654,-2.812098,-0.440443,36.987305,-74.157715,-60.852051,0,0,-0.3401915047431355,0.6449213516556371,0.4150314584534604,0.4623782739489195,-1.6980499640474656,-1.3798110914584774,-0.2806786653838256,-37.02460257242043,70.96046140429802,170.0726997908722,0.41947,0.629101,-0.37117,0.538989,-1.066439,-0.046388,-0.015625,6.713867,10.498047,-11.779785,0,0,0.4025894052532774,0.6350827947757781,-0.3912779319923578,0.4953625235335528,-1.6621106898939022,-0.4387190521488978,0.692845823207766,-0.3576494719433681,22.48116213162592,3.6826365057077535
3437,2024 10 19,05:24:38.632,-0.190656,0.618542,0.583745,0.490201,-2.360912,1.507858,-10.43733,247.619629,200.195313,-385.742188,0,0,-0.3327147295059787,0.6436023840728552,0.4234671355307874,0.4637694102514735,-1.7311930658450922,-1.2354276368855537,-0.7885112321146344,-22.7923909937994,77.42220398408311,142.2819554013286,0.420258,0.629113,-0.36972,0.539358,-1.125034,-0.074709,-0.076662,4.943848,13.73291,-14.892578,0,0,0.4034728349906135,0.6347843050369892,-0.3902000353927399,0.4975622973568751,-1.635256855399207,-0.4205185495414529,0.6543704320473777,-0.0925745983461997,22.04374952504462,2.7538757804223666
3438,2024 10 19,05:24:38.640,-0.242122,0.606556,0.557725,0.512259,1.584033,1.643117,7.458235,162.475586,-638.48877,-364.929199,0,0,-0.3281850930306798,0.6417500648692124,0.430180028754248,0.4661938897388998,-1.5654317625528376,-1.0915004050412758,-0.3761739205089026,-13.528992144109427,41.62665528487895,116.92139768126216,0.421525,0.628791,-0.368053,0.539885,-1.093783,-0.033692,-0.037599,0.732422,20.996094,-16.845703,0,0,0.4043754432410829,0.6344846397851397,-0.3890926836231029,0.4996784324890313,-1.6081831626292469,-0.4011772220643802,0.6197719604450088,-0.0513247684288897,21.991366748792387,1.7738968414012484
3439,2024 10 19,05:24:38.648,-0.254919,0.62796,0.538313,0.500901,-1.442427,-0.347667,-3.531846,-114.624023,246.398926,-382.324219,0,0,-0.3245217883791458,0.6410605616257518,0.4355866773165356,0.4679292452519548,-1.5592815244251956,-1.054308734789212,-0.5339575244834575,-18.58374368690396,51.865268820635,91.95911684719906,0.422956,0.628241,-0.366111,0.540726,-1.053743,-0.039064,-0.003906,2.319336,25.57373,-17.211914,0,0,0.4053044710790287,0.6341724577958827,-0.3879435994419477,0.5017308108645797,-1.5804611544977842,-0.3830715609611612,0.5885880624227583,0.0672082699925547,22.17048491135277,0.8246062993311859
3440,2024 10 19,05:24:38.657,-0.267381,0.649252,0.514824,0.49187,-3.80285,0.573748,0.542009,-77.270508,-63.354492,-387.817383,1,0,-0.3216647489601885,0.6414701335444641,0.4395485434507089,0.469126282989357,-1.6714599482039358,-0.9729058980497512,-0.4801591982592846,-21.51808190255876,46.10428077960325,67.9702918548391,0.422956,0.628241,-0.366111,0.540726,-1.053743,-0.039064,-0.003906,2.319336,25.57373,-17.211914,0,0,0.4061870475250773,0.6338758849060886,-0.3868519694698503,0.5036805703213507,-1.5541252467728948,-0.3658711829131031,0.5589633593016203,0.179814656492927,22.340647165785125,-0.0772197156353735
