frame,date,time,quaternion_x,quaternion_y,quaternion_z,quaternion_w,accel_x,accel_y,accel_z,gyro_x,gyro_y,gyro_z,HS,TO
15287,2024 10 07,05:26:17.378,0.742237,-0.034258,-0.667165,-0.052935,-0.924345,0.033204,-0.103519,-2.258301,2.990723,-6.103516,0,0
15288,2024 10 07,05:26:17.386,0.742065,-0.034835,-0.66735,-0.052637,-0.923856,0.036622,-0.074709,-2.258301,3.90625,-7.019043,0,0
15289,2024 10 07,05:26:17.394,0.741758,-0.035511,-0.667685,-0.052254,-0.937529,0.032228,-0.11182,-3.051758,6.04248,-8.605957,0,0
15290,2024 10 07,05:26:17.403,0.741467,-0.036294,-0.668008,-0.051724,-0.940458,0.031739,-0.073244,-2.563477,5.554199,-10.864258,0,0
15291,2024 10 07,05:26:17.411,0.741019,-0.037269,-0.668505,-0.051014,-0.964873,0.038575,-0.10303,-2.197266,10.314941,-13.85498,0,0
15292,2024 10 07,05:26:17.419,0.740575,-0.038401,-0.669004,-0.050072,-0.961455,0.024415,-0.088382,-2.197266,10.314941,-13.85498,0,0
15293,2024 10 07,05:26:17.428,0.740575,-0.038401,-0.669004,-0.050072,-0.961455,0.024415,-0.088382,-2.685547,7.93457,-17.089844,0,0
15294,2024 10 07,05:26:17.436,0.740068,-0.039728,-0.669582,-0.048792,-0.989776,0.030763,-0.072268,-0.976563,11.047363,-21.66748,0,0
15295,2024 10 07,05:26:17.444,0.739466,-0.041277,-0.670272,-0.047128,-1.000031,0.010743,-0.084475,-0.12207,12.268066,-26.916504,0,0
15296,2024 10 07,05:26:17.453,0.738837,-0.043008,-0.671006,-0.044948,-1.045442,0.064455,-0.076662,3.173828,13.61084,-32.409668,0,0
15297,2024 10 07,05:26:17.461,0.738296,-0.045093,-0.671629,-0.042427,-1.062044,0.015625,-0.066408,2.441406,10.925293,-38.757324,0,0
15298,2024 10 07,05:26:17.469,0.737868,-0.047427,-0.672125,-0.039357,-1.099643,0.052736,-0.069338,2.929688,9.460449,-45.288086,0,0
15299,2024 10 07,05:26:17.478,0.737868,-0.047427,-0.672125,-0.039357,-1.099643,0.052736,-0.069338,2.929688,9.460449,-45.288086,0,0
15300,2024 10 07,05:26:17.486,0.737588,-0.050224,-0.672423,-0.035899,-1.130894,0.058107,-0.059084,3.295898,7.141113,-52.67334,0,0
15301,2024 10 07,05:26:17.494,0.737543,-0.053533,-0.67241,-0.032088,-1.14359,0.030763,-0.080569,0.610352,2.502441,-60.119629,0,0
15302,2024 10 07,05:26:17.503,0.737622,-0.057332,-0.672205,-0.027691,-1.132359,0.028321,-0.038575,1.708984,1.586914,-69.030762,0,0
15303,2024 10 07,05:26:17.511,0.73766,-0.061619,-0.67197,-0.022756,-1.171911,0.007813,-0.056642,1.464844,1.89209,-77.453613,0,0
15304,2024 10 07,05:26:17.519,0.737797,-0.066351,-0.671534,-0.017205,-1.158238,-0.024415,-0.019532,3.295898,0.427246,-86.242676,0,0
15305,2024 10 07,05:26:17.528,0.737797,-0.066351,-0.671534,-0.017205,-1.158238,-0.024415,-0.019532,3.295898,0.427246,-86.242676,0,0
15306,2024 10 07,05:26:17.536,0.73779,-0.071384,-0.671156,-0.010904,-1.177282,-0.044923,0.038087,6.408691,2.990723,-94.726563,0,0
15307,2024 10 07,05:26:17.544,0.737674,-0.076671,-0.670778,-0.003855,-1.233924,-0.097171,0.097659,10.559082,2.868652,-102.844238,0,0
15308,2024 10 07,05:26:17.553,0.737595,-0.082024,-0.67023,0.004098,-1.201697,-0.133305,0.158696,17.028809,1.708984,-110.961914,0,0
15309,2024 10 07,05:26:17.561,0.73744,-0.087259,-0.669625,0.013057,-1.193884,-0.200201,0.248543,27.160645,3.601074,-118.103027,0,0
15310,2024 10 07,05:26:17.569,0.737112,-0.091974,-0.669085,0.023078,-1.198279,-0.203619,0.308115,39.916992,5.615234,-122.375488,0,0
15311,2024 10 07,05:26:17.578,0.737112,-0.091974,-0.669085,0.023078,-1.198279,-0.203619,0.308115,39.916992,5.615234,-122.375488,0,0
15312,2024 10 07,05:26:17.586,0.736751,-0.096149,-0.668428,0.034031,-1.188025,-0.182623,0.336924,52.368164,5.249023,-126.159668,0,0
15313,2024 10 07,05:26:17.594,0.736363,-0.099542,-0.667651,0.045869,-1.103549,-0.15772,0.394543,66.101074,6.896973,-127.319336,0,0
15314,2024 10 07,05:26:17.603,0.735759,-0.101684,-0.667016,0.058388,-1.044465,0.038575,0.434584,81.848145,10.131836,-121.765137,0,0
15315,2024 10 07,05:26:17.611,0.73547,-0.101747,-0.666142,0.070621,-1.065951,0.411634,0.338389,95.76416,3.78418,-100.524902,0,0
15316,2024 10 07,05:26:17.619,0.736281,-0.100046,-0.664313,0.081054,-0.974151,0.666036,0.402844,97.717285,-14.648438,-73.913574,0,0
15317,2024 10 07,05:26:17.628,0.736281,-0.100046,-0.664313,0.081054,-0.974151,0.666036,0.402844,97.717285,-14.648438,-73.913574,0,0
15318,2024 10 07,05:26:17.636,0.73774,-0.097309,-0.661986,0.089692,-0.760765,0.751976,0.381848,92.285156,-22.338867,-53.588867,0,0
15319,2024 10 07,05:26:17.644,0.739189,-0.093767,-0.659897,0.096659,-0.593768,0.772973,0.431166,83.496094,-16.967773,-32.470703,0,0
15320,2024 10 07,05:26:17.653,0.739917,-0.08935,-0.658919,0.101809,-0.624043,0.850612,0.423353,75.256348,-2.502441,-10.192871,0,0
15321,2024 10 07,05:26:17.661,0.740104,-0.084623,-0.658773,0.105373,-0.593768,0.853542,0.400891,65.063477,5.67627,3.112793,0,0
15322,2024 10 07,05:26:17.669,0.739876,-0.080046,-0.659217,0.107741,-0.527848,0.818384,0.386242,53.344727,13.122559,11.169434,0,0
15323,2024 10 07,05:26:17.678,0.739876,-0.080046,-0.659217,0.107741,-0.527848,0.818384,0.386242,53.344727,13.122559,11.169434,0,0
15324,2024 10 07,05:26:17.686,0.73902,-0.075651,-0.660457,0.109194,-0.479507,0.824732,0.36671,43.457031,24.536133,17.76123,0,0
15325,2024 10 07,05:26:17.694,0.737352,-0.071299,-0.662722,0.109672,-0.526872,0.853053,0.30665,33.569336,39.306641,25.939941,0,0
15326,2024 10 07,05:26:17.703,0.735037,-0.066949,-0.665849,0.109014,-0.625507,0.852077,0.2378,23.132324,49.194336,35.522461,0,0
15327,2024 10 07,05:26:17.711,0.732401,-0.062607,-0.669465,0.107173,-0.660176,0.816431,0.206061,13.366699,54.138184,45.410156,0,0
15328,2024 10 07,05:26:17.719,0.729466,-0.058184,-0.673516,0.104265,-0.701193,0.750999,0.167486,5.737305,60.241699,55.114746,0,0
15329,2024 10 07,05:26:17.728,0.729466,-0.058184,-0.673516,0.104265,-0.701193,0.750999,0.167486,5.737305,60.241699,55.114746,0,0
15330,2024 10 07,05:26:17.736,0.726144,-0.053496,-0.678057,0.10046,-0.786645,0.695822,0.130375,0.793457,67.138672,64.758301,0,0
15331,2024 10 07,05:26:17.744,0.722605,-0.048421,-0.682867,0.095861,-0.867702,0.631855,0.087405,-1.953125,70.251465,74.523926,0,0
15332,2024 10 07,05:26:17.753,0.719021,-0.042885,-0.687719,0.090626,-0.910184,0.559099,0.068361,-2.685547,70.861816,83.435059,0,0
15333,2024 10 07,05:26:17.761,0.715424,-0.036842,-0.692527,0.084956,-0.941435,0.496109,0.046876,-1.342773,71.044922,91.064453,0,0
15334,2024 10 07,05:26:17.769,0.711801,-0.030246,-0.697264,0.079046,-0.977569,0.442885,0.026368,1.708984,71.166992,97.473145,0,0
15335,2024 10 07,05:26:17.778,0.711801,-0.030246,-0.697264,0.079046,-0.977569,0.442885,0.026368,1.708984,71.166992,97.473145,0,0
15336,2024 10 07,05:26:17.786,0.708176,-0.023127,-0.701872,0.072995,-1.007355,0.405286,-0.002441,4.882813,70.495605,102.783203,0,0
15337,2024 10 07,05:26:17.794,0.704548,-0.01556,-0.706336,0.066778,-1.043977,0.383801,-0.022462,7.080078,70.068359,107.910156,0,0
15338,2024 10 07,05:26:17.803,0.700906,-0.00766,-0.710659,0.060298,-1.087435,0.360851,-0.055666,7.080078,69.152832,112.854004,0,0
15339,2024 10 07,05:26:17.811,0.697314,0.000409,-0.714773,0.053415,-1.125034,0.327158,-0.083987,4.638672,67.199707,117.675781,0,0
15340,2024 10 07,05:26:17.819,0.693841,0.00848,-0.718605,0.046049,-1.141636,0.274422,-0.08301,0.610352,63.720703,121.704102,0,0
15341,2024 10 07,05:26:17.828,0.690529,0.016365,-0.722109,0.038219,-1.143101,0.21485,-0.08887,-4.638672,59.936523,123.840332,0,0
15342,2024 10 07,05:26:17.836,0.690529,0.016365,-0.722109,0.038219,-1.143101,0.21485,-0.08887,-4.638672,59.936523,123.840332,0,0
15343,2024 10 07,05:26:17.844,0.687306,0.02393,-0.725351,0.03005,-1.148473,0.15772,-0.083987,-10.009766,57.678223,123.962402,0,0
15344,2024 10 07,05:26:17.853,0.684117,0.031071,-0.728391,0.021548,-1.170446,0.116703,-0.081057,-16.296387,55.480957,123.474121,0,0
15345,2024 10 07,05:26:17.861,0.681065,0.037717,-0.731142,0.012628,-1.176794,0.052248,-0.074709,-23.864746,51.757813,123.10791,0,0
15346,2024 10 07,05:26:17.869,0.678243,0.043777,-0.733525,0.003354,-1.143101,-0.030763,-0.025391,-31.37207,47.241211,121.154785,0,0
15347,2024 10 07,05:26:17.878,0.675451,0.049185,-0.735738,-0.006035,-1.098666,-0.112796,-0.00293,-36.987305,46.081543,116.577148,0,0
15348,2024 10 07,05:26:17.886,0.675451,0.049185,-0.735738,-0.006035,-1.098666,-0.112796,-0.00293,-36.987305,46.081543,116.577148,0,0
15349,2024 10 07,05:26:17.894,0.672534,0.053907,-0.73794,-0.015347,-1.06888,-0.209967,-0.004395,-41.19873,47.973633,110.534668,0,0
15350,2024 10 07,05:26:17.903,0.669401,0.057972,-0.740233,-0.024428,-1.082064,-0.352062,-0.020508,-43.884277,50.170898,103.57666,0,0
15351,2024 10 07,05:26:17.911,0.666184,0.061396,-0.742521,-0.033037,-1.105991,-0.515641,-0.046876,-44.006348,50.354004,95.214844,0,0
15352,2024 10 07,05:26:17.919,0.663065,0.064311,-0.744669,-0.040949,-1.127476,-0.692404,-0.064943,-41.748047,47.729492,86.486816,0,0
15353,2024 10 07,05:26:17.928,0.660209,0.066751,-0.746571,-0.047951,-1.141636,-0.919462,-0.10303,-37.475586,42.602539,76.35498,0,0
15354,2024 10 07,05:26:17.936,0.660209,0.066751,-0.746571,-0.047951,-1.141636,-0.919462,-0.10303,-37.475586,42.602539,76.35498,0,0
15355,2024 10 07,05:26:17.944,0.657715,0.068799,-0.748192,-0.053725,-1.141636,-1.141148,-0.103519,-29.663086,36.865234,64.51416,0,0
15356,2024 10 07,05:26:17.953,0.655639,0.070473,-0.749536,-0.058022,-1.108432,-1.317911,-0.121097,-20.080566,30.090332,50.720215,0,0
15357,2024 10 07,05:26:17.961,0.653981,0.071658,-0.75066,-0.060686,-1.097201,-1.422407,-0.119633,-10.437012,24.108887,34.484863,0,0
15358,2024 10 07,05:26:17.969,0.651245,0.071435,-0.753199,-0.058898,-2.217353,-1.778863,-1.386761,33.081055,53.894043,-29.47998,0,0
15359,2024 10 07,05:26:17.978,0.655861,0.06819,-0.749882,-0.053597,-1.40141,-2.358959,0.472671,12.268066,-82.15332,-64.086914,0,0
15360,2024 10 07,05:26:17.986,0.655861,0.06819,-0.749882,-0.053597,-1.40141,-2.358959,0.472671,12.268066,-82.15332,-64.086914,0,0
15361,2024 10 07,05:26:17.994,0.658443,0.06346,-0.748531,-0.046127,-1.882382,-2.1695,-1.478561,15.014648,-37.780762,-85.083008,0,0
15362,2024 10 07,05:26:18.003,0.666471,0.057657,-0.742322,-0.038086,-1.674856,-2.081118,-0.614277,13.73291,-126.953125,-100.769043,1,0
15363,2024 10 07,05:26:18.011,0.677532,0.051309,-0.733056,-0.030761,-0.838404,-0.584491,-1.2725,4.577637,-187.072754,-90.393066,0,0
15364,2024 10 07,05:26:18.019,0.689281,0.0494,-0.722357,-0.02551,-0.862819,-0.043947,0.278817,7.8125,-147.766113,-42.724609,0,0
15365,2024 10 07,05:26:18.028,0.697842,0.048736,-0.714218,-0.023125,-1.000519,0.273446,-0.003418,14.160156,-150.390625,-21.54541,0,0
15366,2024 10 07,05:26:18.036,0.697842,0.048736,-0.714218,-0.023125,-1.000519,0.273446,-0.003418,14.160156,-150.390625,-21.54541,0,0
15367,2024 10 07,05:26:18.044,0.707327,0.047057,-0.705022,-0.020464,-0.907743,0.395032,-0.264657,-5.554199,-145.141602,-39.367676,0,0
15368,2024 10 07,05:26:18.053,0.716964,0.04281,-0.695542,-0.018749,-0.972686,0.128422,0.230964,-37.475586,-159.179688,-45.715332,0,0
15369,2024 10 07,05:26:18.061,0.726132,0.037391,-0.686256,-0.01965,-0.767113,-0.213385,-0.352062,-61.767578,-142.39502,-27.404785,0,0
15370,2024 10 07,05:26:18.069,0.733299,0.033434,-0.678742,-0.021526,-0.454604,-0.080081,-0.48732,-52.062988,-101.68457,-7.629395,0,0
15371,2024 10 07,05:26:18.078,0.736936,0.030863,-0.674842,-0.023678,-0.704611,0.041505,-0.273934,-34.423828,-45.837402,0.244141,0,0
15372,2024 10 07,05:26:18.086,0.736936,0.030863,-0.674842,-0.023678,-0.704611,0.041505,-0.273934,-34.423828,-45.837402,0.244141,0,0
15373,2024 10 07,05:26:18.094,0.739024,0.028984,-0.672566,-0.025665,-0.933134,0.062502,0.022462,-34.729004,-32.043457,3.051758,0,0
15374,2024 10 07,05:26:18.103,0.740903,0.027025,-0.670483,-0.028027,-0.913114,0.046876,-0.120609,-35.15625,-31.738281,4.699707,0,0
15375,2024 10 07,05:26:18.111,0.742502,0.025483,-0.668687,-0.030001,-0.877468,0.092776,-0.095218,-26.672363,-23.4375,4.943848,0,0
15376,2024 10 07,05:26:18.119,0.743644,0.024263,-0.667388,-0.031594,-0.887234,0.010743,-0.15479,-22.949219,-18.798828,4.211426,0,0
15377,2024 10 07,05:26:18.128,0.74448,0.023354,-0.666442,-0.032531,-0.857936,0.042482,-0.184576,-13.000488,-10.192871,0.793457,0,0
15378,2024 10 07,05:26:18.136,0.74448,0.023354,-0.666442,-0.032531,-0.857936,0.042482,-0.184576,-13.000488,-10.192871,0.793457,0,0
15379,2024 10 07,05:26:18.144,0.744657,0.02296,-0.666247,-0.032775,-0.914579,0.063967,-0.067873,-3.356934,0.305176,-1.464844,0,0
15380,2024 10 07,05:26:18.153,0.744414,0.022853,-0.666541,-0.032389,-0.949736,0.079104,-0.109378,3.295898,4.02832,-4.943848,0,0
15381,2024 10 07,05:26:18.161,0.744206,0.022853,-0.666814,-0.031526,-0.93997,0.075198,-0.087893,7.995605,4.089355,-8.056641,0,0
15382,2024 10 07,05:26:18.169,0.743895,0.022901,-0.667214,-0.030358,-0.91995,0.06299,-0.111332,9.887695,6.164551,-9.94873,0,0
15383,2024 10 07,05:26:18.178,0.743438,0.023079,-0.667777,-0.028993,-0.932157,0.075686,-0.08301,12.573242,8.361816,-10.253906,0,0
15384,2024 10 07,05:26:18.186,0.743438,0.023079,-0.667777,-0.028993,-0.932157,0.075686,-0.08301,12.573242,8.361816,-10.253906,0,0
15385,2024 10 07,05:26:18.194,0.742944,0.023364,-0.668378,-0.027569,-0.951689,0.084964,-0.084964,13.549805,7.873535,-9.94873,0,0
15386,2024 10 07,05:26:18.203,0.74256,0.023634,-0.668851,-0.026175,-0.958525,0.086917,-0.081545,13.000488,5.79834,-9.82666,0,0
15387,2024 10 07,05:26:18.211,0.74238,0.023825,-0.669093,-0.024868,-0.951689,0.088382,-0.068361,11.108398,2.13623,-9.70459,0,0
15388,2024 10 07,05:26:18.219,0.742325,0.023868,-0.669196,-0.023681,-0.952178,0.099612,-0.079104,8.666992,0.366211,-10.070801,0,0
15389,2024 10 07,05:26:18.228,0.742439,0.023671,-0.669112,-0.022652,-0.930692,0.078127,-0.079592,5.249023,-2.563477,-10.375977,0,0
15390,2024 10 07,05:26:18.236,0.742588,0.023324,-0.66899,-0.021721,-0.941923,0.086428,-0.076174,3.479004,-2.319336,-10.742188,0,0
15391,2024 10 07,05:26:18.244,0.742588,0.023324,-0.66899,-0.021721,-0.941923,0.086428,-0.076174,3.479004,-2.319336,-10.742188,0,0
15392,2024 10 07,05:26:18.253,0.742845,0.022797,-0.668748,-0.020902,-0.935087,0.080569,-0.077639,1.098633,-4.821777,-11.169434,0,0
15393,2024 10 07,05:26:18.261,0.743196,0.022145,-0.668403,-0.020153,-0.918973,0.07178,-0.069826,-0.244141,-5.859375,-11.71875,0,0
15394,2024 10 07,05:26:18.269,0.743625,0.02138,-0.667972,-0.019446,-0.894559,0.057131,-0.110355,-1.403809,-7.446289,-12.084961,0,0
15395,2024 10 07,05:26:18.278,0.743974,0.020632,-0.66763,-0.018639,-0.913114,0.077151,-0.096194,-0.366211,-4.638672,-13.000488,0,0
15396,2024 10 07,05:26:18.286,0.744238,0.019777,-0.667385,-0.017785,-0.931181,0.067873,-0.08887,-0.854492,-4.211426,-14.343262,0,0
15397,2024 10 07,05:26:18.294,0.744238,0.019777,-0.667385,-0.017785,-0.931181,0.067873,-0.08887,-0.854492,-4.211426,-14.343262,0,0
15398,2024 10 07,05:26:18.303,0.744531,0.018872,-0.667108,-0.016826,-0.934599,0.059572,-0.084475,-0.549316,-4.638672,-15.319824,0,0
15399,2024 10 07,05:26:18.311,0.744868,0.017955,-0.666783,-0.015812,-0.933134,0.050295,-0.081057,-0.12207,-5.859375,-15.74707,0,0
15400,2024 10 07,05:26:18.319,0.745304,0.017007,-0.666343,-0.014793,-0.924345,0.038087,-0.078616,-0.610352,-7.446289,-15.869141,0,0
15401,2024 10 07,05:26:18.328,0.745799,0.01608,-0.665834,-0.013795,-0.928251,0.049318,-0.091311,-0.610352,-8.544922,-15.50293,0,0
15402,2024 10 07,05:26:18.336,0.746365,0.015143,-0.665241,-0.012851,-0.941923,0.054201,-0.074221,-0.854492,-9.216309,-15.075684,0,0
15403,2024 10 07,05:26:18.344,0.746365,0.015143,-0.665241,-0.012851,-0.941923,0.054201,-0.074221,-0.854492,-9.216309,-15.075684,0,0
15404,2024 10 07,05:26:18.353,0.747021,0.014097,-0.664543,-0.011987,-0.964385,0.053224,-0.073733,-3.295898,-12.145996,-15.625,0,0
15405,2024 10 07,05:26:18.361,0.747816,0.01292,-0.663688,-0.011074,-0.976104,0.049806,-0.077639,-3.295898,-13.793945,-17.211914,0,0
15406,2024 10 07,05:26:18.369,0.748806,0.011673,-0.662613,-0.009887,-1.089389,0.06885,-0.20069,-1.159668,-18.737793,-20.935059,0,0
15407,2024 10 07,05:26:18.378,0.750507,0.010159,-0.66073,-0.008463,-0.901883,0.024903,-0.061525,-3.78418,-27.587891,-24.780273,0,0
15408,2024 10 07,05:26:18.386,0.751409,0.00847,-0.65975,-0.006508,-1.02884,0.079104,-0.22364,1.159668,-14.099121,-30.883789,0,0
15409,2024 10 07,05:26:18.394,0.751409,0.00847,-0.65975,-0.006508,-1.02884,0.079104,-0.22364,1.159668,-14.099121,-30.883789,0,0
15410,2024 10 07,05:26:18.403,0.752435,0.006576,-0.658622,-0.003923,-0.973662,0.033204,-0.155766,3.417969,-17.63916,-38.513184,0,0
15411,2024 10 07,05:26:18.411,0.752941,0.004598,-0.658072,-0.000464,-0.986358,0.001465,-0.132817,10.742188,-5.065918,-46.875,0,0
15412,2024 10 07,05:26:18.419,0.752872,0.002653,-0.658149,0.00408,-1.053743,0.036622,-0.188482,19.40918,2.13623,-56.45752,0,0
15413,2024 10 07,05:26:18.428,0.752729,0.000414,-0.658261,0.009513,-1.078158,0.104984,-0.1919,20.629883,2.990723,-66.467285,0,0
15414,2024 10 07,05:26:18.436,0.752041,-0.002532,-0.658923,0.01573,-1.238319,0.145512,-0.203131,20.690918,12.939453,-80.444336,0,0
15415,2024 10 07,05:26:18.444,0.752041,-0.002532,-0.658923,0.01573,-1.238319,0.145512,-0.203131,20.690918,12.939453,-80.444336,0,0
15416,2024 10 07,05:26:18.453,0.751032,-0.006557,-0.659838,0.022856,-1.371136,0.163579,-0.112796,18.615723,16.357422,-97.717285,0,0
15417,2024 10 07,05:26:18.461,0.749985,-0.01172,-0.660622,0.031028,-1.51323,0.126469,-0.141118,16.906738,9.70459,-115.29541,0,0
15418,2024 10 07,05:26:18.469,0.75012,-0.018235,-0.659846,0.039888,-1.371136,0.167486,0.023927,7.69043,-12.756348,-130.737305,0,0
15419,2024 10 07,05:26:18.478,0.749505,-0.026303,-0.659632,0.049361,-1.513718,0.164068,-0.159673,1.159668,3.78418,-148.925781,0,0
15420,2024 10 07,05:26:18.486,0.749177,-0.035753,-0.658668,0.060104,-1.631886,0.231941,-0.052248,-0.915527,-15.380859,-171.691895,0,0
15421,2024 10 07,05:26:18.494,0.749177,-0.035753,-0.658668,0.060104,-1.631886,0.231941,-0.052248,-0.915527,-15.380859,-171.691895,0,0
15422,2024 10 07,05:26:18.503,0.749516,-0.047342,-0.656408,0.071507,-1.601123,0.225593,0.011719,-15.74707,-25.45166,-194.946289,0,0
15423,2024 10 07,05:26:18.511,0.748913,-0.060778,-0.65444,0.084525,-1.8399,0.310068,-0.062014,-16.296387,-19.165039,-225.219727,0,0
15424,2024 10 07,05:26:18.519,0.748566,-0.076532,-0.651074,0.099473,-2.028382,0.334971,0.012207,-18.737793,-34.301758,-263.305664,0,0
15425,2024 10 07,05:26:18.528,0.74817,-0.094578,-0.646189,0.117203,-2.286691,0.368664,0.090823,-17.211914,-50.231934,-307.800293,0,0
15426,2024 10 07,05:26:18.536,0.748171,-0.115028,-0.638682,0.13818,-2.53621,0.496109,0.169439,-8.666992,-81.176758,-358.337402,0,0
15427,2024 10 07,05:26:18.544,0.748171,-0.115028,-0.638682,0.13818,-2.53621,0.496109,0.169439,-8.666992,-81.176758,-358.337402,0,0
15428,2024 10 07,05:26:18.553,0.748359,-0.138448,-0.627986,0.162556,-2.978606,0.54445,-0.110355,-3.601074,-105.041504,-417.602539,0,0
15429,2024 10 07,05:26:18.561,0.747701,-0.165226,-0.614187,0.190833,-3.858028,0.365734,-0.258797,-3.662109,-129.577637,-486.328125,0,0
15430,2024 10 07,05:26:18.569,0.74659,-0.195899,-0.595888,0.221685,-3.695425,0.051759,0.334483,-12.023926,-172.302246,-540.893555,0,0
15431,2024 10 07,05:26:18.578,0.743541,-0.228628,-0.57535,0.252681,-3.624622,-0.231941,0.010254,-23.376465,-167.602539,-554.504395,0,1
15432,2024 10 07,05:26:18.586,0.739279,-0.2601,-0.553122,0.282615,-3.336039,0.136723,0.196783,-14.648438,-188.049316,-542.541504,0,0
15433,2024 10 07,05:26:18.594,0.739279,-0.2601,-0.553122,0.282615,-3.336039,0.136723,0.196783,-14.648438,-188.049316,-542.541504,0,0
15434,2024 10 07,05:26:18.603,0.734441,-0.29007,-0.528996,0.310835,-3.233009,0.475112,0.172857,-8.728027,-189.63623,-527.893066,0,0
15435,2024 10 07,05:26:18.611,0.728806,-0.318214,-0.502922,0.338601,-2.474685,1.325236,1.314493,8.911133,-200.744629,-525.085449,0,0
15436,2024 10 07,05:26:18.619,0.720101,-0.344021,-0.4785,0.366253,-1.86578,1.475631,1.040559,16.845703,-146.728516,-514.953613,0,0
15437,2024 10 07,05:26:18.628,0.707473,-0.366709,-0.456306,0.395969,-1.135777,1.520554,1.44438,22.766113,-71.594238,-524.719238,0,0
15438,2024 10 07,05:26:18.636,0.689197,-0.383616,-0.439348,0.429907,-0.644063,1.016144,1.578173,56.57959,47.180176,-525.20752,0,0
15439,2024 10 07,05:26:18.644,0.672843,-0.391394,-0.426484,0.460656,2.847743,1.358928,1.247597,101.501465,69.641113,-347.045898,0,0
15440,2024 10 07,05:26:18.653,0.672843,-0.391394,-0.426484,0.460656,2.847743,1.358928,1.247597,101.501465,69.641113,-347.045898,0,0
15441,2024 10 07,05:26:18.661,0.668062,-0.382649,-0.427213,0.47409,-0.094729,3.214942,-0.053224,77.697754,184.387207,4.089355,0,0
15442,2024 10 07,05:26:18.669,0.670697,-0.3679,-0.440315,0.47004,-1.600147,2.348705,0.822779,26.855469,122.009277,214.96582,0,0
15443,2024 10 07,05:26:18.678,0.67863,-0.353872,-0.456504,0.453696,-1.618702,1.813044,0.222663,-43.395996,75.195313,313.049316,0,0
15444,2024 10 07,05:26:18.686,0.688666,-0.343672,-0.470833,0.431214,-0.96878,1.185583,0.746117,-84.289551,5.187988,329.406738,0,0
15445,2024 10 07,05:26:18.694,0.696328,-0.334214,-0.485385,0.409671,-0.629902,0.759789,0.76809,-78.430176,44.616699,301.879883,0,0
15446,2024 10 07,05:26:18.703,0.696328,-0.334214,-0.485385,0.409671,-0.629902,0.759789,0.76809,-78.430176,44.616699,301.879883,0,0
15447,2024 10 07,05:26:18.711,0.700946,-0.324066,-0.500599,0.391224,-0.11182,0.662618,0.804224,-70.556641,81.176758,273.620605,0,0
15448,2024 10 07,05:26:18.719,0.702472,-0.311425,-0.518261,0.375436,-0.063967,0.764672,0.740745,-56.70166,144.836426,271.728516,0,0
15449,2024 10 07,05:26:18.728,0.702155,-0.295306,-0.538944,0.359601,-0.430677,0.942412,0.68215,-51.696777,188.537598,301.940918,0,0
15450,2024 10 07,05:26:18.736,0.701544,-0.276289,-0.561253,0.341314,-0.884304,1.034211,0.405774,-53.466797,195.556641,342.590332,0,0
15451,2024 10 07,05:26:18.744,0.702068,-0.255982,-0.582804,0.319238,-1.04593,0.904324,0.488784,-62.438965,174.499512,380.187988,0,0
15452,2024 10 07,05:26:18.753,0.702068,-0.255982,-0.582804,0.319238,-1.04593,0.904324,0.488784,-62.438965,174.499512,380.187988,0,0
15453,2024 10 07,05:26:18.761,0.702415,-0.234043,-0.604204,0.294576,-1.307657,0.76223,0.249031,-66.40625,172.180176,407.958984,0,0
15454,2024 10 07,05:26:18.769,0.703211,-0.211366,-0.623835,0.267672,-1.345744,0.54738,0.334483,-67.016602,151.489258,425.170898,0,0
15455,2024 10 07,05:26:18.778,0.703587,-0.187716,-0.64206,0.239766,-1.336467,0.380383,0.250496,-61.889648,144.897461,434.814453,0,0
15456,2024 10 07,05:26:18.786,0.703181,-0.163069,-0.658874,0.211732,-1.30961,0.258797,0.325205,-50.720215,146.118164,437.438965,0,0
15457,2024 10 07,05:26:18.794,0.701008,-0.137134,-0.675089,0.18449,-1.391156,0.211921,0.316416,-35.766602,160.522461,435.180664,0,0
15458,2024 10 07,05:26:18.803,0.701008,-0.137134,-0.675089,0.18449,-1.391156,0.211921,0.316416,-35.766602,160.522461,435.180664,0,0
15459,2024 10 07,05:26:18.811,0.696762,-0.110085,-0.690912,0.158253,-1.63628,0.236335,0.30079,-21.66748,179.077148,430.664063,0,0
15460,2024 10 07,05:26:18.819,0.690569,-0.082202,-0.706218,0.132715,-1.92877,0.292001,0.195807,-13.000488,189.880371,428.100586,0,0
15461,2024 10 07,05:26:18.828,0.683025,-0.053767,-0.72048,0.107215,-2.197821,0.330576,0.100589,-9.277344,192.810059,430.419922,0,0
15462,2024 10 07,05:26:18.836,0.674541,-0.024882,-0.733354,0.081039,-2.451735,0.173345,0.021485,-11.779785,189.575195,439.63623,0,0
15463,2024 10 07,05:26:18.844,0.665268,0.004638,-0.744642,0.053888,-2.681722,-0.212897,-0.01709,-12.939453,185.424805,454.406738,0,0
15464,2024 10 07,05:26:18.853,0.665268,0.004638,-0.744642,0.053888,-2.681722,-0.212897,-0.01709,-12.939453,185.424805,454.406738,0,0
15465,2024 10 07,05:26:18.861,0.65517,0.035027,-0.754214,0.026209,-2.906339,-0.728538,0.018555,-9.155273,179.626465,467.529297,0,0
15466,2024 10 07,05:26:18.869,0.644368,0.065727,-0.761885,-0.000948,-3.146092,-1.439009,-0.074709,-0.061035,170.715332,466.918945,0,0
15467,2024 10 07,05:26:18.878,0.633303,0.095447,-0.767558,-0.025925,-3.374126,-2.184637,-0.227546,10.986328,156.860352,443.115234,0,0
15468,2024 10 07,05:26:18.886,0.622535,0.122633,-0.771453,-0.047654,-3.435163,-2.884365,-0.465835,17.944336,139.892578,399.841309,0,0
15469,2024 10 07,05:26:18.894,0.612399,0.14584,-0.774168,-0.066043,-3.097751,-3.265236,-0.89407,12.878418,125.793457,342.590332,0,0
15470,2024 10 07,05:26:18.903,0.612399,0.14584,-0.774168,-0.066043,-3.097751,-3.265236,-0.89407,12.878418,125.793457,342.590332,0,0
15471,2024 10 07,05:26:18.911,0.602979,0.162883,-0.776586,-0.08246,-2.814051,-3.888302,-1.521531,-20.202637,126.89209,273.31543,0,0
15472,2024 10 07,05:26:18.919,0.59476,0.172226,-0.779191,-0.09726,-2.706137,-4.544084,-2.147038,-64.575195,114.746094,192.199707,0,0
15473,2024 10 07,05:26:18.928,0.589331,0.171094,-0.782435,-0.105881,-2.742271,-5.647633,-3.244728,-80.444336,93.994141,36.560059,0,0
15474,2024 10 07,05:26:18.936,0.591869,0.158475,-0.783214,-0.105604,-2.913175,-6.959197,-2.026429,-75.378418,13.671875,-127.807617,0,0
15475,2024 10 07,05:26:18.944,0.596386,0.137856,-0.785418,-0.091854,-3.613391,-6.182806,-3.063082,-5.004883,-32.287598,-286.437988,0,0
15476,2024 10 07,05:26:18.953,0.596386,0.137856,-0.785418,-0.091854,-3.613391,-6.182806,-3.063082,-5.004883,-32.287598,-286.437988,0,0
15477,2024 10 07,05:26:18.961,0.612443,0.117308,-0.778796,-0.068047,-1.684133,-0.273934,1.480514,54.199219,-254.943848,-306.091309,1,0
15478,2024 10 07,05:26:18.969,0.627218,0.099982,-0.770188,-0.058403,-0.992706,0.525895,-1.919492,-144.714355,-136.779785,-195.800781,0,0
15479,2024 10 07,05:26:18.978,0.640262,0.08544,-0.761944,-0.046974,-1.77984,0.422376,0.318857,-3.662109,-197.08252,-211.914063,0,0
15480,2024 10 07,05:26:18.986,0.658084,0.071025,-0.748618,-0.038102,-1.02884,-0.401868,-0.836451,-39.0625,-265.258789,-177.124023,0,0
15481,2024 10 07,05:26:18.994,0.672064,0.06202,-0.737316,-0.02913,-1.303751,-0.400403,-0.233406,-7.324219,-179.016113,-123.474121,0,0
15482,2024 10 07,05:26:19.003,0.672064,0.06202,-0.737316,-0.02913,-1.303751,-0.400403,-0.233406,-7.324219,-179.016113,-123.474121,0,0
15483,2024 10 07,05:26:19.011,0.683643,0.056108,-0.727228,-0.024972,-0.812525,0.077639,0.477065,-30.395508,-173.278809,-62.194824,0,0
15484,2024 10 07,05:26:19.019,0.691815,0.049932,-0.719861,-0.026444,-1.042512,0.126957,-0.062014,-77.087402,-113.769531,-32.775879,0,0
15485,2024 10 07,05:26:19.028,0.70011,0.043546,-0.712112,-0.029085,-0.821802,-0.027833,0.081545,-75.866699,-129.333496,-29.296875,0,0
15486,2024 10 07,05:26:19.036,0.707016,0.038449,-0.705485,-0.030683,-0.827174,0.018555,-0.220222,-53.283691,-99.365234,-26.489258,0,0
15487,2024 10 07,05:26:19.044,0.7124,0.034388,-0.700185,-0.032323,-0.814966,-0.021973,-0.119633,-50.048828,-77.270508,-16.418457,0,0
15488,2024 10 07,05:26:19.053,0.716357,0.031265,-0.696229,-0.033473,-0.809595,-0.015625,-0.149419,-31.25,-57.312012,-15.869141,0,0
15489,2024 10 07,05:26:19.061,0.716357,0.031265,-0.696229,-0.033473,-0.809595,-0.015625,-0.149419,-31.25,-57.312012,-15.869141,0,0
15490,2024 10 07,05:26:19.069,0.719189,0.029181,-0.693419,-0.032963,-0.832057,0.053224,-0.153325,-11.047363,-39.855957,-21.789551,0,0
15491,2024 10 07,05:26:19.078,0.720907,0.027605,-0.691748,-0.031855,-0.840846,0.032716,-0.140141,-4.699707,-22.583008,-21.179199,0,0
15492,2024 10 07,05:26:19.086,0.721769,0.026422,-0.690961,-0.030395,-0.916044,0.084475,-0.072756,3.234863,-9.82666,-21.606445,0,0
15493,2024 10 07,05:26:19.094,0.722189,0.025425,-0.69064,-0.028524,-0.979034,0.094241,0.013184,6.103516,-5.371094,-23.925781,0,0
15494,2024 10 07,05:26:19.103,0.722586,0.024359,-0.690343,-0.026496,-0.969268,0.066408,0.007324,7.263184,-6.835938,-25.695801,0,0
15495,2024 10 07,05:26:19.111,0.722586,0.024359,-0.690343,-0.026496,-0.969268,0.066408,0.007324,7.263184,-6.835938,-25.695801,0,0
15496,2024 10 07,05:26:19.119,0.723037,0.023192,-0.689995,-0.024204,-0.999542,0.080569,-0.018067,6.713867,-7.568359,-29.296875,0,0
15497,2024 10 07,05:26:19.128,0.723773,0.021861,-0.689349,-0.021763,-0.996612,0.095218,0.030763,8.178711,-12.512207,-31.066895,0,0
15498,2024 10 07,05:26:19.136,0.724824,0.02038,-0.688357,-0.019463,-0.98294,0.082522,0.050295,5.004883,-19.40918,-30.883789,0,0
15499,2024 10 07,05:26:19.144,0.726274,0.018743,-0.68693,-0.017382,-0.935575,0.043947,-0.047853,1.159668,-24.963379,-29.846191,0,0
15500,2024 10 07,05:26:19.153,0.727868,0.017101,-0.685328,-0.015515,-0.927763,0.098636,-0.091311,0.183105,-25.268555,-28.503418,0,0
15501,2024 10 07,05:26:19.161,0.727868,0.017101,-0.685328,-0.015515,-0.927763,0.098636,-0.091311,0.183105,-25.268555,-28.503418,0,0
15502,2024 10 07,05:26:19.169,0.729406,0.015308,-0.683769,-0.01386,-0.912625,0.069826,-0.031251,-2.380371,-24.963379,-27.648926,0,0
15503,2024 10 07,05:26:19.178,0.730997,0.013338,-0.682136,-0.012501,-0.951201,0.087893,-0.087893,-8.178711,-26.672363,-26.855469,0,0
15504,2024 10 07,05:26:19.186,0.732823,0.011107,-0.680232,-0.01144,-0.876003,0.04297,-0.030763,-11.352539,-30.578613,-26.367188,0,0
15505,2024 10 07,05:26:19.194,0.734381,0.008861,-0.678599,-0.010466,-0.915555,0.047365,-0.170904,-12.023926,-25.32959,-25.878906,0,0
15506,2024 10 07,05:26:19.203,0.735951,0.006564,-0.676936,-0.009547,-0.882839,0.018555,-0.059572,-12.878418,-23.742676,-25.695801,0,0
15507,2024 10 07,05:26:19.211,0.735951,0.006564,-0.676936,-0.009547,-0.882839,0.018555,-0.059572,-12.878418,-23.742676,-25.695801,0,0
15508,2024 10 07,05:26:19.219,0.737005,0.004344,-0.675821,-0.00842,-0.954131,0.047853,-0.113773,-9.399414,-16.052246,-27.404785,0,0
15509,2024 10 07,05:26:19.228,0.737999,0.002083,-0.674763,-0.007014,-0.927274,0.011719,-0.051271,-7.629395,-15.930176,-30.334473,0,0
15510,2024 10 07,05:26:19.236,0.738576,-0.000103,-0.67415,-0.00521,-1.015168,0.038087,-0.097659,-3.845215,-7.324219,-33.081055,0,0
15511,2024 10 07,05:26:19.244,0.739128,-0.002372,-0.673554,-0.002868,-1.027863,0.037111,-0.026856,-0.427246,-10.437012,-38.94043,0,0
15512,2024 10 07,05:26:19.253,0.739715,-0.0048,-0.672903,-6.2e-05,-1.059603,-0.0,-0.089846,1.525879,-10.375977,-43.945313,0,0
15513,2024 10 07,05:26:19.261,0.739715,-0.0048,-0.672903,-6.2e-05,-1.059603,-0.0,-0.089846,1.525879,-10.375977,-43.945313,0,0
15514,2024 10 07,05:26:19.269,0.740965,-0.007176,-0.671496,0.003451,-0.973662,-0.00586,-0.054201,8.483887,-25.939941,-49.438477,0,0
15515,2024 10 07,05:26:19.278,0.742248,-0.009529,-0.670015,0.007536,-0.943388,-0.07178,-0.060549,13.73291,-19.165039,-54.077148,0,0
15516,2024 10 07,05:26:19.286,0.743175,-0.011492,-0.668881,0.012517,-1.039582,-0.043458,-0.068361,22.583008,-17.51709,-58.410645,0,0
15517,2024 10 07,05:26:19.294,0.74425,-0.013323,-0.667517,0.01832,-1.109409,-0.033204,-0.058107,32.104492,-20.263672,-65.429688,0,0
15518,2024 10 07,05:26:19.303,0.745479,-0.015017,-0.665874,0.025441,-1.144566,-0.012207,-0.026856,44.372559,-24.169922,-76.965332,0,0
15519,2024 10 07,05:26:19.311,0.745479,-0.015017,-0.665874,0.025441,-1.144566,-0.012207,-0.026856,44.372559,-24.169922,-76.965332,0,0
15520,2024 10 07,05:26:19.319,0.747001,-0.016717,-0.663754,0.033767,-1.172887,0.014649,-0.007324,51.879883,-30.761719,-86.975098,0,0
15521,2024 10 07,05:26:19.328,0.748442,-0.018791,-0.661529,0.043135,-1.242714,0.100101,-0.195318,54.931641,-30.212402,-99.67041,0,0
15522,2024 10 07,05:26:19.336,0.750277,-0.022006,-0.658645,0.052796,-1.169958,0.202155,-0.205084,43.518066,-39.245605,-110.961914,0,0
15523,2024 10 07,05:26:19.344,0.751173,-0.027093,-0.656619,0.062102,-1.35844,0.1919,-0.264168,22.460938,-19.470215,-123.22998,0,0
15524,2024 10 07,05:26:19.353,0.751528,-0.034227,-0.654917,0.071542,-1.479537,0.253426,-0.131352,6.103516,-21.30127,-142.211914,0,0
15525,2024 10 07,05:26:19.361,0.751528,-0.034227,-0.654917,0.071542,-1.479537,0.253426,-0.131352,6.103516,-21.30127,-142.211914,0,0
15526,2024 10 07,05:26:19.369,0.751539,-0.044008,-0.653214,0.081021,-1.496628,0.229987,-0.190435,-16.174316,-16.113281,-164.123535,0,0
15527,2024 10 07,05:26:19.378,0.750851,-0.056197,-0.651707,0.091341,-1.783257,0.319834,-0.151372,-32.165527,-15.563965,-191.223145,0,0
15528,2024 10 07,05:26:19.386,0.749827,-0.071255,-0.649658,0.103088,-2.096744,0.368175,0.028809,-41.442871,-19.042969,-230.712891,0,0
15529,2024 10 07,05:26:19.394,0.747816,-0.089229,-0.647201,0.118069,-2.551347,0.486831,-0.123051,-39.855957,-17.700195,-287.414551,0,0
15530,2024 10 07,05:26:19.403,0.745659,-0.110289,-0.642487,0.137987,-3.045015,0.658223,0.110843,-23.864746,-41.137695,-361.206055,0,0
15531,2024 10 07,05:26:19.411,0.745659,-0.110289,-0.642487,0.137987,-3.045015,0.658223,0.110843,-23.864746,-41.137695,-361.206055,0,0
15532,2024 10 07,05:26:19.419,0.743151,-0.135591,-0.634561,0.163324,-3.642201,0.687033,-0.090335,-19.65332,-65.490723,-449.09668,0,0
15533,2024 10 07,05:26:19.428,0.739667,-0.16556,-0.62239,0.195227,-4.716941,0.542497,0.068361,-5.79834,-98.205566,-555.419922,0,0
15534,2024 10 07,05:26:19.436,0.734931,-0.201535,-0.604645,0.231653,-4.317514,0.17774,0.554216,-18.676758,-145.568848,-643.371582,0,0
15535,2024 10 07,05:26:19.444,0.726368,-0.240372,-0.584724,0.269645,-4.710593,-0.077639,-0.04297,-24.536133,-117.919922,-680.114746,0,1
15536,2024 10 07,05:26:19.453,0.717208,-0.276863,-0.560784,0.307376,-4.385388,0.87405,0.12891,-0.732422,-169.250488,-665.100098,0,0
15537,2024 10 07,05:26:19.461,0.707787,-0.312585,-0.533167,0.342142,-4.271615,0.912625,0.880886,-3.356934,-193.29834,-656.005859,0,0
15538,2024 10 07,05:26:19.469,0.707787,-0.312585,-0.533167,0.342142,-4.271615,0.912625,0.880886,-3.356934,-193.29834,-656.005859,0,0
15539,2024 10 07,05:26:19.478,0.696517,-0.345413,-0.50343,0.376977,-3.329691,1.793512,1.420942,39.123535,-177.307129,-656.25,0,0
15540,2024 10 07,05:26:19.486,0.681057,-0.374598,-0.475585,0.411893,-2.592853,1.898495,1.195837,28.564453,-103.820801,-640.319824,0,0
15541,2024 10 07,05:26:19.494,0.661035,-0.396161,-0.452446,0.448756,-1.307169,2.379956,2.093814,64.208984,8.544922,-597.167969,0,0
15542,2024 10 07,05:26:19.503,0.640809,-0.406734,-0.437397,0.482302,1.835017,1.951231,2.074282,105.224609,86.486816,-434.143066,0,0
15543,2024 10 07,05:26:19.511,0.643044,-0.401137,-0.430192,0.490427,1.469771,4.933256,0.150395,112.304688,39.916992,92.956543,0,0
15544,2024 10 07,05:26:19.519,0.643044,-0.401137,-0.430192,0.490427,1.469771,4.933256,0.150395,112.304688,39.916992,92.956543,0,0
15545,2024 10 07,05:26:19.528,0.653984,-0.382622,-0.446562,0.475907,-2.610919,3.095798,0.81106,20.996094,71.105957,391.906738,0,0
15546,2024 10 07,05:26:19.536,0.672703,-0.367396,-0.462591,0.445533,-1.458541,2.142643,0.621601,-68.603516,-49.804688,469.299316,0,0
15547,2024 10 07,05:26:19.544,0.688712,-0.35364,-0.477353,0.415631,-1.02884,1.228553,1.258339,-62.988281,-17.456055,424.255371,0,0
15548,2024 10 07,05:26:19.553,0.699791,-0.339174,-0.49186,0.39157,-0.671896,0.797388,1.42143,-24.291992,34.118652,357.666016,0,0
15549,2024 10 07,05:26:19.561,0.707836,-0.322688,-0.506114,0.372411,0.046876,0.855983,1.121128,3.662109,74.523926,331.115723,0,0
15550,2024 10 07,05:26:19.569,0.707836,-0.322688,-0.506114,0.372411,0.046876,0.855983,1.121128,3.662109,74.523926,331.115723,0,0
15551,2024 10 07,05:26:19.578,0.713989,-0.301564,-0.522803,0.354903,-0.096194,1.280801,1.007843,29.907227,139.892578,361.14502,0,0
15552,2024 10 07,05:26:19.586,0.719192,-0.275732,-0.542645,0.335068,-0.777367,1.487838,0.626484,31.311035,167.053223,415.161133,0,0
15553,2024 10 07,05:26:19.594,0.72521,-0.247301,-0.562237,0.311131,-1.129429,1.312052,0.697775,27.648926,151.367188,462.82959,0,0
15554,2024 10 07,05:26:19.603,0.730748,-0.216834,-0.581781,0.283763,-1.277871,1.226112,0.336436,21.54541,153.076172,497.558594,0,0
15555,2024 10 07,05:26:19.611,0.735499,-0.185878,-0.600124,0.253656,-1.296426,0.968291,0.424329,7.080078,145.812988,513.122559,0,0
15556,2024 10 07,05:26:19.619,0.735499,-0.185878,-0.600124,0.253656,-1.296426,0.968291,0.424329,7.080078,145.812988,513.122559,0,0
15557,2024 10 07,05:26:19.628,0.737924,-0.155015,-0.617896,0.222806,-1.506394,0.721213,0.375011,-0.061035,154.968262,506.713867,0,0
15558,2024 10 07,05:26:19.636,0.73798,-0.124979,-0.634611,0.192443,-1.63921,0.504898,0.455092,-3.479004,164.855957,487.243652,0,0
15559,2024 10 07,05:26:19.644,0.735241,-0.095518,-0.650903,0.163159,-1.860897,0.393567,0.459487,-2.868652,179.870605,469.787598,0,0
15560,2024 10 07,05:26:19.653,0.730282,-0.066011,-0.666556,0.134292,-2.076235,0.35255,0.499039,0.0,193.17627,466.186523,0,0
15561,2024 10 07,05:26:19.661,0.723108,-0.035401,-0.681769,0.105126,-2.337962,0.207038,0.448744,6.896973,205.627441,476.867676,0,0
15562,2024 10 07,05:26:19.669,0.723108,-0.035401,-0.681769,0.105126,-2.337962,0.207038,0.448744,6.896973,205.627441,476.867676,0,0
15563,2024 10 07,05:26:19.678,0.713694,-0.003306,-0.696329,0.075873,-2.599689,-0.112796,0.404309,20.751953,223.632813,487.670898,0,0
15564,2024 10 07,05:26:19.686,0.701314,0.030321,-0.710628,0.047399,-2.867763,-0.608417,0.302255,39.733887,248.291016,491.638184,0,0
15565,2024 10 07,05:26:19.694,0.685391,0.064837,-0.724993,0.020478,-3.286721,-1.158238,-0.097171,62.133789,278.991699,485.961914,0,0
15566,2024 10 07,05:26:19.703,0.666821,0.099149,-0.738581,-0.004084,-3.772576,-1.878964,-0.367199,79.406738,293.09082,466.85791,0,0
15567,2024 10 07,05:26:19.711,0.646783,0.131748,-0.750773,-0.025566,-4.22718,-2.881924,-0.811548,91.674805,287.17041,432.495117,0,0
15568,2024 10 07,05:26:19.719,0.646783,0.131748,-0.750773,-0.025566,-4.22718,-2.881924,-0.811548,91.674805,287.17041,432.495117,0,0
15569,2024 10 07,05:26:19.728,0.627559,0.161121,-0.760516,-0.042717,-4.33021,-3.978637,-1.128452,102.294922,254.333496,377.868652,0,0
15570,2024 10 07,05:26:19.736,0.610203,0.185777,-0.768201,-0.054834,-3.76281,-4.809229,-1.589404,105.224609,219.848633,304.931641,0,0
15571,2024 10 07,05:26:19.744,0.595053,0.2041,-0.774816,-0.062572,-2.818445,-5.180822,-2.465896,85.9375,193.115234,218.994141,0,0
15572,2024 10 07,05:26:19.753,0.58237,0.214117,-0.781297,-0.06763,-2.532304,-5.228675,-3.233985,45.410156,174.682617,123.657227,0,0
15573,2024 10 07,05:26:19.761,0.574326,0.215248,-0.786715,-0.069979,-2.063051,-5.197424,-2.957121,-6.774902,112.915039,23.986816,0,0
15574,2024 10 07,05:26:19.769,0.574326,0.215248,-0.786715,-0.069979,-2.063051,-5.197424,-2.957121,-6.774902,112.915039,23.986816,0,0
15575,2024 10 07,05:26:19.778,0.567257,0.210319,-0.7934,-0.067103,-10.778649,-7.78637,-0.292978,59.204102,163.574219,-75.683594,0,0
15576,2024 10 07,05:26:19.786,0.569395,0.190395,-0.798429,-0.045277,-6.291696,-4.44789,-6.006531,-45.471191,-236.633301,-313.415527,1,0
15577,2024 10 07,05:26:19.794,0.609735,0.168874,-0.774144,-0.020152,1.627003,1.475631,6.022644,-21.118164,-517.39502,-279.23584,0,0
15578,2024 10 07,05:26:19.803,0.614693,0.144325,-0.775282,-0.016147,-2.352611,0.923856,-4.824854,-175.720215,11.230469,-269.65332,0,0
15579,2024 10 07,05:26:19.811,0.631561,0.118981,-0.766099,-0.00815,-1.803278,-1.372601,-0.741234,-153.808594,-237.121582,-257.019043,0,0
15580,2024 10 07,05:26:19.819,0.631561,0.118981,-0.766099,-0.00815,-1.803278,-1.3726,-0.741234,-153.808594,-237.121582,-257.019043,0,0
15581,2024 10 07,05:26:19.828,0.646501,0.102684,-0.755949,0.005821,-2.179754,-0.294931,-0.478042,46.203613,-227.233887,-212.097168,0,0
15582,2024 10 07,05:26:19.836,0.666011,0.091319,-0.74019,0.014424,-0.883328,-0.798364,0.104495,-58.105469,-293.823242,-110.656738,0,0
15583,2024 10 07,05:26:19.844,0.679678,0.082625,-0.728708,0.013994,-0.89993,0.410169,0.082034,-111.633301,-174.865723,-41.015625,0,0
15584,2024 10 07,05:26:19.853,0.690667,0.071658,-0.719562,0.00863,-0.746605,-0.501968,-0.249031,-123.474121,-158.081055,-42.175293,0,0
15585,2024 10 07,05:26:19.861,0.700007,0.064846,-0.711132,0.008716,-0.770531,-0.103519,-0.070315,-45.410156,-135.925293,-44.555664,0,0
15586,2024 10 07,05:26:19.869,0.707217,0.059952,-0.704404,0.008009,-0.985382,-0.007813,0.119633,-57.983398,-105.285645,-21.179199,0,0
15587,2024 10 07,05:26:19.878,0.707217,0.059952,-0.704404,0.008009,-0.985382,-0.007813,0.119633,-57.983398,-105.285645,-21.179199,0,0
15588,2024 10 07,05:26:19.886,0.713065,0.056125,-0.698811,0.007215,-0.662618,-0.090823,-0.501968,-26.855469,-87.585449,-21.179199,0,0
15589,2024 10 07,05:26:19.894,0.716961,0.05423,-0.694944,0.008905,-0.679708,0.038087,-0.218268,-2.258301,-49.865723,-24.902344,0,0
15590,2024 10 07,05:26:19.903,0.71844,0.052806,-0.69351,0.00995,-0.885769,-0.030763,-0.062502,-5.310059,-18.127441,-17.089844,0,0
15591,2024 10 07,05:26:19.911,0.718872,0.052073,-0.693096,0.01142,-0.806177,0.054201,-0.194342,8.850098,-3.662109,-17.456055,0,0
15592,2024 10 07,05:26:19.919,0.71823,0.051987,-0.693731,0.013403,-0.91995,0.053713,0.015137,17.028809,14.648438,-17.700195,0,0
15593,2024 10 07,05:26:19.928,0.71823,0.051987,-0.693731,0.013403,-0.91995,0.053713,0.015137,17.028809,14.648438,-17.700195,0,0
15594,2024 10 07,05:26:19.936,0.716888,0.052201,-0.695051,0.01583,-1.019074,0.054201,0.072268,24.047852,19.958496,-19.897461,0,0
15595,2024 10 07,05:26:19.944,0.715783,0.052785,-0.69607,0.018861,-1.030793,0.062502,0.135746,31.616211,13.122559,-21.42334,0,0
15596,2024 10 07,05:26:19.953,0.715229,0.053463,-0.696491,0.022109,-1.030305,0.089358,0.099612,32.165527,1.953125,-21.728516,0,0
15597,2024 10 07,05:26:19.961,0.715392,0.053663,-0.696208,0.025074,-0.980987,0.102054,0.035157,20.812988,-8.239746,-23.31543,0,0
15598,2024 10 07,05:26:19.969,0.716182,0.053149,-0.695341,0.027551,-0.93997,0.086917,0.028809,14.404297,-17.028809,-23.986816,0,0
15599,2024 10 07,05:26:19.978,0.716182,0.053149,-0.695341,0.027551,-0.93997,0.086917,0.028809,14.404297,-17.028809,-23.986816,0,0
15600,2024 10 07,05:26:19.986,0.717409,0.052253,-0.694055,0.029682,-0.933134,0.038575,0.036134,8.850098,-23.742676,-23.864746,0,0
15601,2024 10 07,05:26:19.994,0.719094,0.05146,-0.692267,0.031985,-1.00296,-0.026856,0.023438,13.549805,-33.081055,-23.742676,0,0
15602,2024 10 07,05:26:20.003,0.721572,0.051289,-0.689534,0.035314,-1.001984,0.001465,0.127445,28.259277,-47.668457,-26.611328,0,0
15603,2024 10 07,05:26:20.011,0.724788,0.051575,-0.685905,0.039451,-0.993683,-0.014161,0.037599,37.475586,-63.171387,-29.418945,0,0
15604,2024 10 07,05:26:20.019,0.728985,0.052058,-0.681126,0.044021,-1.084506,-0.065432,0.044435,39.001465,-80.26123,-29.296875,0,0
15605,2024 10 07,05:26:20.028,0.728985,0.052058,-0.681126,0.044021,-1.084506,-0.065432,0.044435,39.001465,-80.26123,-29.296875,0,0
15606,2024 10 07,05:26:20.036,0.734022,0.05287,-0.675261,0.049388,-0.922391,-0.113285,0.317393,52.062988,-93.078613,-32.104492,0,0
15607,2024 10 07,05:26:20.044,0.738794,0.054373,-0.669432,0.055569,-0.861843,-0.389172,0.166997,65.124512,-92.041016,-34.729004,0,0
15608,2024 10 07,05:26:20.053,0.743202,0.057373,-0.663573,0.063478,-0.960967,-0.563982,0.417493,92.651367,-85.205078,-36.682129,0,0
15609,2024 10 07,05:26:20.061,0.74677,0.0617,-0.658108,0.073633,-1.121128,-0.707053,0.954131,130.065918,-76.843262,-45.898438,0,0
15610,2024 10 07,05:26:20.069,0.749366,0.067955,-0.652925,0.086728,-1.12064,-1.105991,1.115757,163.879395,-76.599121,-58.166504,0,0
15611,2024 10 07,05:26:20.078,0.749366,0.067955,-0.652925,0.086728,-1.12064,-1.105991,1.115757,163.879395,-76.599121,-58.166504,0,0
15612,2024 10 07,05:26:20.086,0.750739,0.076747,-0.647797,0.104216,-1.156285,-0.942412,1.340861,227.233887,-60.119629,-77.331543,0,0
15613,2024 10 07,05:26:20.094,0.749965,0.088704,-0.643287,0.125958,-1.567919,-0.563982,0.911161,284.729004,-44.006348,-97.412109,0,0
15614,2024 10 07,05:26:20.103,0.748823,0.102258,-0.637011,0.151739,-1.35844,-0.325205,0.85403,324.951172,-62.683105,-118.774414,0,0
15615,2024 10 07,05:26:20.111,0.746499,0.116722,-0.629928,0.17974,-1.569384,0.280282,0.405286,347.65625,-54.748535,-133.239746,0,0
15616,2024 10 07,05:26:20.119,0.744324,0.130294,-0.620998,0.208247,-1.431196,0.65041,-0.109867,339.294434,-83.679199,-143.737793,0,0
15617,2024 10 07,05:26:20.128,0.744324,0.130294,-0.620998,0.208247,-1.431196,0.65041,-0.109867,339.294434,-83.679199,-143.737793,0,0
15618,2024 10 07,05:26:20.136,0.742837,0.14155,-0.610295,0.236002,-1.179724,0.927274,-0.52443,312.194824,-95.275879,-149.597168,0,0
15619,2024 10 07,05:26:20.144,0.740648,0.150068,-0.600435,0.261531,-1.393597,1.315958,-0.929228,267.63916,-82.702637,-155.151367,0,0
15620,2024 10 07,05:26:20.153,0.738551,0.154424,-0.591446,0.284406,-1.432661,1.379437,-1.064974,207.885742,-86.730957,-165.771484,0,0
15621,2024 10 07,05:26:20.161,0.736391,0.154152,-0.584039,0.304737,-1.532273,1.374065,-1.237831,144.348145,-77.270508,-179.80957,0,0
15622,2024 10 07,05:26:20.169,0.733766,0.14916,-0.578842,0.322927,-1.790582,1.321329,-1.013214,85.388184,-71.533203,-200.561523,0,0
15623,2024 10 07,05:26:20.178,0.733766,0.14916,-0.578842,0.322927,-1.790582,1.321329,-1.013214,85.388184,-71.533203,-200.561523,0,0
15624,2024 10 07,05:26:20.186,0.730381,0.139186,-0.575941,0.339798,-2.09479,1.081576,-0.816919,30.212402,-64.331055,-232.543945,0,0
15625,2024 10 07,05:26:20.194,0.725611,0.12443,-0.574995,0.356914,-2.51912,1.144078,-0.664571,-13.85498,-58.837891,-277.526855,0,0
15626,2024 10 07,05:26:20.203,0.719124,0.104336,-0.575643,0.374979,-3.439558,1.336467,-0.337901,-55.419922,-64.51416,-335.510254,0,0
15627,2024 10 07,05:26:20.211,0.710523,0.077475,-0.576535,0.395933,-4.538713,1.310099,-0.260262,-83.068848,-87.95166,-425.109863,0,0
15628,2024 10 07,05:26:20.219,0.698733,0.043186,-0.57483,0.423649,-5.462081,0.611835,0.329112,-73.425293,-138.916016,-552.55127,0,0
15629,2024 10 07,05:26:20.228,0.682673,0.004624,-0.568037,0.459641,-6.421583,1.051302,1.128941,-73.425293,-138.916016,-552.55127,0,0
15630,2024 10 07,05:26:20.236,0.682673,0.004624,-0.568037,0.459641,-6.421583,1.051302,1.128941,-18.005371,-168.640137,-653.137207,0,0
15631,2024 10 07,05:26:20.244,0.66618,-0.036321,-0.554785,0.497089,-7.781976,0.976104,-0.405774,4.760742,-279.052734,-673.095703,0,1
15632,2024 10 07,05:26:20.253,0.659831,-0.086492,-0.524331,0.531242,-4.962554,0.908719,2.810633,-2.319336,-514.587402,-647.766113,0,0
15633,2024 10 07,05:26:20.261,0.648386,-0.13016,-0.495076,0.563518,-4.051881,2.584063,2.165593,43.945313,-388.122559,-621.276855,0,0
15634,2024 10 07,05:26:20.269,0.635046,-0.172084,-0.466558,0.591123,-1.980529,3.475204,3.293558,13.977051,-357.60498,-585.571289,0,0
15635,2024 10 07,05:26:20.278,0.615746,-0.203812,-0.447499,0.61568,-0.057619,3.629994,3.116794,-17.883301,-189.208984,-500.732422,0,0
15636,2024 10 07,05:26:20.286,0.615746,-0.203812,-0.447499,0.61568,-0.057619,3.629994,3.116794,-17.883301,-189.208984,-500.732422,0,0
15637,2024 10 07,05:26:20.294,0.604537,-0.23001,-0.43709,0.624966,4.712546,2.887784,1.46733,-107.727051,-127.624512,-200.927734,0,0
15638,2024 10 07,05:26:20.303,0.606731,-0.228422,-0.44444,0.618202,-1.283731,3.133396,1.361858,-105.102539,41.992188,185.058594,0,0
15639,2024 10 07,05:26:20.311,0.619095,-0.218447,-0.461355,0.596786,-2.054262,3.456648,1.229041,-129.455566,85.449219,342.895508,0,0
15640,2024 10 07,05:26:20.319,0.630624,-0.209695,-0.481516,0.571387,-1.605029,2.108951,1.446821,-193.664551,56.091309,333.251953,0,0
15641,2024 10 07,05:26:20.328,0.639724,-0.202291,-0.500351,0.547248,-0.743187,1.007843,1.810602,-166.015625,86.425781,305.969238,0,0
15642,2024 10 07,05:26:20.336,0.639724,-0.202291,-0.500351,0.547248,-0.743187,1.007843,1.810602,-166.015625,86.425781,305.969238,0,0
15643,2024 10 07,05:26:20.344,0.6466,-0.18822,-0.51993,0.525504,0.199225,1.187536,1.170934,-113.220215,151.184082,336.853027,0,0
15644,2024 10 07,05:26:20.353,0.652488,-0.164514,-0.542076,0.503337,-0.339366,1.774956,1.612354,-62.316895,249.267578,402.587891,0,0
15645,2024 10 07,05:26:20.361,0.656834,-0.133119,-0.566706,0.479262,-1.347697,1.706107,0.908719,-41.137695,285.217285,448.303223,0,0
15646,2024 10 07,05:26:20.369,0.663616,-0.101281,-0.587018,0.452511,-1.419477,1.428755,0.882351,-34.851074,224.609375,470.153809,0,0
15647,2024 10 07,05:26:20.378,0.67077,-0.06977,-0.604549,0.423934,-1.515671,1.320841,0.504898,-36.193848,204.223633,479.064941,0,0
15648,2024 10 07,05:26:20.386,0.67077,-0.06977,-0.604549,0.423934,-1.515671,1.320841,0.504898,-36.193848,204.223633,479.064941,0,0
15649,2024 10 07,05:26:20.394,0.678119,-0.038827,-0.619677,0.393252,-1.461959,1.218787,0.471694,-45.166016,182.006836,491.577148,0,0
15650,2024 10 07,05:26:20.403,0.685483,-0.00842,-0.632717,0.360154,-1.397504,1.059603,0.551775,-57.067871,163.391113,506.774902,0,0
15651,2024 10 07,05:26:20.411,0.691585,0.02198,-0.644521,0.325299,-1.414594,0.87112,0.615253,-62.62207,170.471191,514.099121,0,0
15652,2024 10 07,05:26:20.419,0.694748,0.053221,-0.656202,0.28964,-1.584521,0.671407,0.770043,-57.678223,198.486328,515.563965,0,0
15653,2024 10 07,05:26:20.428,0.694155,0.085709,-0.66809,0.253888,-1.98883,0.493667,0.834498,-45.043945,231.506348,514.343262,0,0
15654,2024 10 07,05:26:20.436,0.694155,0.085709,-0.66809,0.253888,-1.98883,0.493667,0.834498,-45.043945,231.506348,514.343262,0,0
15655,2024 10 07,05:26:20.444,0.690029,0.119483,-0.679848,0.217693,-2.68807,0.385266,0.652852,-36.132813,260.498047,520.690918,0,0
15656,2024 10 07,05:26:20.453,0.683996,0.153539,-0.690035,0.180075,-3.209082,-0.044435,0.363781,-42.602539,257.202148,534.484863,0,0
15657,2024 10 07,05:26:20.461,0.677083,0.187195,-0.697503,0.141442,-3.256935,-0.912137,0.333995,-46.630859,250.915527,545.959473,0,0
15658,2024 10 07,05:26:20.469,0.666383,0.220588,-0.704913,0.101844,-3.814569,-1.77105,-0.182134,-46.936035,292.358398,548.339844,0,0
15659,2024 10 07,05:26:20.478,0.652973,0.25156,-0.711645,0.062497,-4.563128,-2.859462,-0.683615,-58.410645,300.048828,524.719238,0,0
15660,2024 10 07,05:26:20.486,0.652973,0.25156,-0.711645,0.062497,-4.563128,-2.859462,-0.683615,-58.410645,300.048828,524.719238,0,0
15661,2024 10 07,05:26:20.494,0.637975,0.277864,-0.717706,0.026012,-5.546556,-4.128544,-1.099155,-64.819336,298.828125,466.125488,0,0
15662,2024 10 07,05:26:20.503,0.626409,0.298397,-0.720109,-0.003847,-5.625172,-5.694021,-0.950224,-59.387207,196.716309,389.160156,0,0
15663,2024 10 07,05:26:20.511,0.616764,0.311051,-0.722781,-0.020888,-3.438093,-7.491439,-2.204169,-39.123535,107.971191,237.915039,0,0
15664,2024 10 07,05:26:20.519,0.615927,0.317863,-0.720327,-0.026951,-3.296487,-7.730217,-2.013245,-1.464844,58.105469,121.398926,0,0
15665,2024 10 07,05:26:20.528,0.613856,0.31515,-0.723406,-0.023334,-3.365825,-7.240943,-2.859462,18.249512,19.348145,-65.185547,0,0
15666,2024 10 07,05:26:20.536,0.613856,0.31515,-0.723406,-0.023334,-3.365825,-7.240943,-2.859462,18.249512,19.348145,-65.185547,0,0
15667,2024 10 07,05:26:20.544,0.614539,0.299033,-0.729986,-0.006432,-3.22422,-6.785363,-4.873684,20.751953,2.807617,-295.227051,0,0
15668,2024 10 07,05:26:20.553,0.623356,0.266691,-0.734666,0.023865,-1.700735,-4.243782,-4.27601,-18.371582,-173.583984,-504.516602,1,0
15669,2024 10 07,05:26:20.561,0.63694,0.233,-0.733437,0.045694,-1.948302,3.162694,0.826685,-231.689453,-99.487305,-380.67627,0,0
15670,2024 10 07,05:26:20.569,0.644258,0.197743,-0.737125,0.04976,-3.979614,-0.328623,-2.009339,-125.915527,-130.737305,-346.679688,0,0
15671,2024 10 07,05:26:20.578,0.663707,0.172217,-0.725058,0.064224,-1.227576,-2.372143,-2.777917,-78.735352,-297.607422,-248.840332,0,0
15672,2024 10 07,05:26:20.586,0.663707,0.172217,-0.725058,0.064224,-1.227576,-2.372143,-2.777917,-78.735352,-297.607422,-248.840332,0,0
15673,2024 10 07,05:26:20.594,0.673965,0.163503,-0.715537,0.083933,-1.551805,-0.047365,2.234931,91.064453,-151.672363,-163.208008,0,0
15674,2024 10 07,05:26:20.603,0.678091,0.157332,-0.712351,0.089418,-1.53618,0.169439,0.176275,-29.846191,-84.106445,-61.584473,0,0
15675,2024 10 07,05:26:20.611,0.686308,0.149889,-0.70608,0.089251,-0.683615,-0.317881,-0.27784,-70.43457,-129.638672,-40.161133,0,0
15676,2024 10 07,05:26:20.619,0.692762,0.145167,-0.700178,0.093586,-0.678732,-0.171392,-0.228034,18.066406,-97.351074,-55.664063,0,0
15677,2024 10 07,05:26:20.628,0.696087,0.143504,-0.696527,0.098586,-1.04593,0.117191,0.376476,18.005371,-56.274414,-36.865234,0,0
15678,2024 10 07,05:26:20.636,0.699721,0.141176,-0.693082,0.100483,-1.043977,0.041017,0.104495,-12.023926,-74.584961,-22.583008,0,0
15679,2024 10 07,05:26:20.644,0.699721,0.141176,-0.693082,0.100483,-1.043977,0.041017,0.104495,-12.023926,-74.584961,-22.583008,0,0
15680,2024 10 07,05:26:20.653,0.704233,0.138682,-0.688572,0.103403,-0.730979,-0.006348,-0.217292,8.850098,-75.012207,-33.508301,0,0
15681,2024 10 07,05:26:20.661,0.706897,0.137316,-0.685506,0.107342,-0.784204,0.055666,-0.035646,20.202637,-44.616699,-33.691406,0,0
15682,2024 10 07,05:26:20.669,0.708139,0.136347,-0.683873,0.110752,-0.961943,0.003906,-0.039064,19.042969,-27.709961,-30.700684,0,0
15683,2024 10 07,05:26:20.678,0.709229,0.135735,-0.682223,0.114642,-0.961455,0.066408,0.096194,29.11377,-28.076172,-33.203125,0,0
15684,2024 10 07,05:26:20.686,0.709947,0.13525,-0.680827,0.118985,-1.068392,0.069338,0.093265,30.639648,-25.32959,-37.17041,0,0
15685,2024 10 07,05:26:20.694,0.709947,0.13525,-0.680827,0.118985,-1.068392,0.069338,0.093265,30.639648,-25.32959,-37.17041,0,0
15686,2024 10 07,05:26:20.703,0.711286,0.134427,-0.678835,0.12323,-0.983428,0.003418,0.173345,25.634766,-38.757324,-34.973145,0,0
15687,2024 10 07,05:26:20.711,0.713212,0.133552,-0.676256,0.127161,-0.963897,0.011719,0.081545,23.376465,-46.508789,-31.494141,0,0
15688,2024 10 07,05:26:20.719,0.715889,0.132518,-0.672961,0.130639,-0.98294,0.008301,0.198737,19.53125,-57.006836,-26.855469,0,0
15689,2024 10 07,05:26:20.728,0.718694,0.131408,-0.669533,0.133926,-1.007355,0.065432,0.090823,16.296387,-57.617188,-26.611328,0,0
15690,2024 10 07,05:26:20.736,0.721919,0.129693,-0.665785,0.136904,-0.971709,-0.036622,0.12598,8.850098,-65.246582,-27.160645,0,0
15691,2024 10 07,05:26:20.744,0.721919,0.129693,-0.665785,0.136904,-0.971709,-0.036622,0.12598,8.850098,-65.246582,-27.160645,0,0
15692,2024 10 07,05:26:20.753,0.725049,0.127999,-0.662026,0.140148,-0.972198,-0.063967,0.052736,12.268066,-63.659668,-29.418945,0,0
15693,2024 10 07,05:26:20.761,0.728404,0.126452,-0.657866,0.143698,-0.951689,-0.031251,-0.08301,16.967773,-70.495605,-29.35791,0,0
15694,2024 10 07,05:26:20.769,0.732013,0.125042,-0.653295,0.147403,-0.859401,0.015137,-0.292001,19.226074,-72.387695,-29.11377,0,0
15695,2024 10 07,05:26:20.778,0.735204,0.123705,-0.649083,0.151203,-0.84817,0.002441,-0.20069,19.104004,-63.537598,-31.311035,0,0
15696,2024 10 07,05:26:20.786,0.737966,0.122276,-0.645282,0.155134,-0.906278,0.101566,-0.247566,21.606445,-59.082031,-34.545898,0,0
15697,2024 10 07,05:26:20.794,0.737966,0.122276,-0.645282,0.155134,-0.906278,0.101566,-0.247566,21.606445,-59.082031,-34.545898,0,0
15698,2024 10 07,05:26:20.803,0.740176,0.120498,-0.642111,0.159103,-1.085482,0.064943,-0.221686,16.784668,-48.400879,-41.259766,0,0
15699,2024 10 07,05:26:20.811,0.741805,0.118464,-0.639373,0.163992,-1.113315,0.006836,-0.19483,22.094727,-45.349121,-53.344727,0,0
15700,2024 10 07,05:26:20.819,0.742976,0.116198,-0.636763,0.170343,-1.315958,0.156255,-0.147954,33.569336,-41.748047,-69.580078,0,0
15701,2024 10 07,05:26:20.828,0.743732,0.113072,-0.634302,0.178154,-1.368206,-0.008301,-0.285653,35.583496,-44.921875,-91.918945,0,0
15702,2024 10 07,05:26:20.836,0.743416,0.10978,-0.632193,0.188713,-1.42729,0.12891,-0.125492,57.678223,-30.212402,-118.713379,0,0
15703,2024 10 07,05:26:20.844,0.743416,0.10978,-0.632193,0.188713,-1.42729,0.12891,-0.125492,57.678223,-30.212402,-118.713379,0,0
15704,2024 10 07,05:26:20.853,0.742682,0.105544,-0.629915,0.201222,-1.449751,0.22071,-0.298837,61.401367,-46.936035,-143.127441,0,0
15705,2024 10 07,05:26:20.861,0.741951,0.099663,-0.627129,0.215139,-1.434126,0.310068,-0.444349,55.236816,-45.288086,-168.029785,0,0
15706,2024 10 07,05:26:20.869,0.739717,0.092004,-0.625616,0.230128,-1.787164,0.440931,-0.48439,44.372559,-28.442383,-196.838379,0,0
15707,2024 10 07,05:26:20.878,0.736603,0.081422,-0.62454,0.246447,-2.169012,0.433119,-0.100589,30.334473,-35.03418,-235.229492,0,0
15708,2024 10 07,05:26:20.886,0.73337,0.067093,-0.622779,0.264221,-2.271554,0.401868,0.029298,7.93457,-58.105469,-274.169922,0,0
15709,2024 10 07,05:26:20.894,0.73337,0.067093,-0.622779,0.264221,-2.271554,0.401868,0.029298,7.93457,-58.105469,-274.169922,0,0
15710,2024 10 07,05:26:20.903,0.730321,0.04848,-0.619978,0.282681,-2.386792,0.555681,0.224128,-21.362305,-80.566406,-307.617188,0,0
15711,2024 10 07,05:26:20.911,0.727193,0.025024,-0.616381,0.301061,-2.835536,0.641133,0.078127,-59.631348,-102.844238,-348.327637,0,0
15712,2024 10 07,05:26:20.919,0.72211,-0.003075,-0.612009,0.32248,-3.605579,0.775903,-0.065432,-70.739746,-109.680176,-423.278809,0,0
15713,2024 10 07,05:26:20.928,0.713779,-0.036181,-0.605732,0.349712,-4.501602,0.679708,0.121097,-57.128906,-121.520996,-528.320313,0,0
15714,2024 10 07,05:26:20.936,0.701079,-0.074072,-0.596925,0.382992,-5.640309,0.410657,0.000488,-45.227051,-136.474609,-628.723145,0,0
15715,2024 10 07,05:26:20.944,0.701079,-0.074072,-0.596925,0.382992,-5.640309,0.410657,0.000488,-45.227051,-136.474609,-628.723145,0,0
15716,2024 10 07,05:26:20.953,0.687766,-0.116438,-0.581415,0.41878,-5.286294,0.680197,-0.142094,-37.902832,-224.609375,-676.574707,0,0
15717,2024 10 07,05:26:20.961,0.673658,-0.160777,-0.560112,0.454544,-4.98648,0.919462,0.733909,-23.742676,-241.088867,-700.134277,0,1
15718,2024 10 07,05:26:20.969,0.656929,-0.202989,-0.536194,0.489629,-4.807276,1.268593,1.460494,-5.126953,-254.150391,-692.077637,0,0
15719,2024 10 07,05:26:20.978,0.639547,-0.242572,-0.509605,0.521959,-3.775994,2.283273,1.808649,23.31543,-244.689941,-662.414551,0,0
15720,2024 10 07,05:26:20.986,0.620195,-0.277749,-0.483622,0.551655,-2.752525,3.160253,1.734916,15.014648,-206.298828,-623.840332,0,0
15721,2024 10 07,05:26:20.994,0.620195,-0.277749,-0.483622,0.551655,-2.752525,3.160253,1.734916,15.014648,-206.298828,-623.840332,0,0
15722,2024 10 07,05:26:21.003,0.603981,-0.30893,-0.459453,0.573299,0.019532,1.875546,3.545518,-6.896973,-231.628418,-466.125488,0,0
15723,2024 10 07,05:26:21.011,0.597892,-0.325165,-0.444282,0.582586,2.087954,2.431715,-1.660207,29.052734,-96.496582,-154.47998,0,0
15724,2024 10 07,05:26:21.019,0.611188,-0.322571,-0.437528,0.575297,-0.9429,3.489364,2.262276,52.307129,-144.348145,223.571777,0,0
15725,2024 10 07,05:26:21.028,0.634669,-0.312273,-0.444908,0.549307,-2.216865,2.039125,0.300302,-14.709473,-90.942383,446.655273,0,0
15726,2024 10 07,05:26:21.036,0.66233,-0.300952,-0.451647,0.51649,-2.403882,1.116733,1.578173,-34.729004,-160.827637,480.773926,0,0
15727,2024 10 07,05:26:21.044,0.687525,-0.291648,-0.454784,0.485203,-1.640187,0.399426,1.650929,-13.977051,-164.489746,414.245605,0,0
15728,2024 10 07,05:26:21.053,0.687525,-0.291648,-0.454784,0.485203,-1.640187,0.399426,1.650929,-13.977051,-164.489746,414.245605,0,0
15729,2024 10 07,05:26:21.061,0.707665,-0.282074,-0.455637,0.460477,-0.63039,0.445326,1.875057,25.878906,-121.765137,335.021973,0,0
15730,2024 10 07,05:26:21.069,0.723917,-0.269225,-0.457735,0.440387,0.003418,0.733421,1.881405,55.969238,-50.476074,321.594238,0,0
15731,2024 10 07,05:26:21.078,0.738634,-0.250479,-0.46445,0.419483,-0.287118,1.31254,1.300821,62.866211,19.53125,383.728027,0,0
15732,2024 10 07,05:26:21.086,0.753978,-0.227038,-0.475402,0.392382,-0.958525,1.48149,1.225135,40.161133,47.851563,478.271484,0,0
15733,2024 10 07,05:26:21.094,0.769728,-0.201196,-0.489029,0.357615,-1.617237,1.258339,1.230506,3.967285,47.485352,556.82373,0,0
15734,2024 10 07,05:26:21.103,0.769728,-0.201196,-0.489029,0.357615,-1.617237,1.258339,1.230506,3.967285,47.485352,556.82373,0,0
15735,2024 10 07,05:26:21.111,0.785314,-0.175634,-0.502441,0.316208,-1.73394,0.756371,1.42729,-31.799316,30.029297,603.271484,0,0
15736,2024 10 07,05:26:21.119,0.798689,-0.150674,-0.515591,0.271218,-1.879452,0.30665,1.514206,-59.509277,33.02002,618.103027,0,0
15737,2024 10 07,05:26:21.128,0.808673,-0.12619,-0.528686,0.224979,-1.75396,0.117679,1.588427,-71.350098,53.283691,614.807129,0,0
15738,2024 10 07,05:26:21.136,0.814625,-0.101596,-0.542591,0.177929,-1.780816,-0.003418,1.786676,-82.03125,85.693359,617.919922,0,0
15739,2024 10 07,05:26:21.144,0.815762,-0.076063,-0.558356,0.130326,-2.119205,-0.339366,1.955626,-82.702637,138.977051,621.948242,0,0
15740,2024 10 07,05:26:21.153,0.815762,-0.076063,-0.558356,0.130326,-2.119205,-0.339366,1.955626,-82.702637,138.977051,621.948242,0,0
15741,2024 10 07,05:26:21.161,0.811852,-0.048997,-0.575769,0.08358,-2.309641,-0.723167,2.144108,-68.969727,184.814453,617.004395,0,0
15742,2024 10 07,05:26:21.169,0.801935,-0.021004,-0.595786,0.038697,-2.589434,-0.862819,1.998108,-52.490234,257.8125,602.722168,0,0
15743,2024 10 07,05:26:21.178,0.786022,0.006686,-0.618144,-0.004596,-3.137791,-1.086459,1.852596,-52.612305,314.086914,585.632324,0,0
15744,2024 10 07,05:26:21.186,0.765801,0.032741,-0.640536,-0.046788,-3.575793,-1.518113,1.659719,-63.415527,338.317871,565.856934,0,0
15745,2024 10 07,05:26:21.194,0.74248,0.055897,-0.661774,-0.087488,-3.813593,-2.245186,1.523484,-79.223633,353.57666,534.851074,0,0
15746,2024 10 07,05:26:21.203,0.74248,0.055897,-0.661774,-0.087488,-3.813593,-2.245186,1.523484,-79.223633,353.57666,534.851074,0,0
15747,2024 10 07,05:26:21.211,0.716485,0.074674,-0.682232,-0.125024,-3.946898,-3.005951,1.342326,-90.209961,370.056152,476.074219,0,0
15748,2024 10 07,05:26:21.219,0.688818,0.087832,-0.70208,-0.157793,-3.559191,-3.552355,0.578631,-100.280762,389.709473,396.42334,0,0
15749,2024 10 07,05:26:21.228,0.657479,0.094266,-0.723966,-0.186301,-4.452284,-4.125614,-0.313486,-108.825684,456.420898,318.481445,0,0
15750,2024 10 07,05:26:21.236,0.628175,0.094048,-0.742817,-0.211598,-4.533341,-4.5309,-1.562548,-152.893066,391.479492,242.248535,0,0
15751,2024 10 07,05:26:21.244,0.609989,0.087617,-0.751823,-0.234518,-2.913663,-5.204749,-2.049379,-213.256836,233.032227,153.198242,0,0
15752,2024 10 07,05:26:21.253,0.609989,0.087617,-0.751823,-0.234518,-2.913663,-5.204749,-2.049379,-213.256836,233.032227,153.198242,0,0
15753,2024 10 07,05:26:21.261,0.59972,0.074106,-0.75519,-0.254032,-2.557207,-6.867397,-2.201239,-248.901367,175.354004,53.466797,0,0
15754,2024 10 07,05:26:21.269,0.587729,0.054345,-0.763519,-0.262032,-7.852779,-10.449049,-0.624531,-117.30957,297.180176,-102.294922,0,0
15755,2024 10 07,05:26:21.278,0.592931,0.017975,-0.766597,-0.245843,-2.189032,-6.667196,-2.992279,-93.75,-119.018555,-433.532715,0,0
15756,2024 10 07,05:26:21.286,0.611292,-0.024598,-0.760277,-0.218393,-1.571337,-4.57094,-3.686148,-80.566406,-22.155762,-606.323242,1,0
15757,2024 10 07,05:26:21.294,0.62713,-0.061798,-0.75389,-0.185847,-5.357585,2.975677,0.765648,-77.148438,-84.533691,-544.311523,0,0
15758,2024 10 07,05:26:21.303,0.62713,-0.061798,-0.75389,-0.185847,-5.357585,2.975677,0.765648,-77.148438,-84.533691,-544.311523,0,0
15759,2024 10 07,05:26:21.311,0.64618,-0.097537,-0.733834,-0.185542,-2.709067,-2.47029,-1.595263,-204.650879,-291.259766,-343.505859,0,0
15760,2024 10 07,05:26:21.319,0.667822,-0.112713,-0.714534,-0.175361,-0.976104,-2.080142,-1.641652,-38.452148,-231.445313,-215.637207,0,0
15761,2024 10 07,05:26:21.328,0.673798,-0.116976,-0.710508,-0.165805,-1.715384,-0.188482,1.955626,47.058105,12.329102,-88.439941,0,0
15762,2024 10 07,05:26:21.336,0.671049,-0.120528,-0.71287,-0.164261,-1.9859,0.703146,0.796899,-29.11377,6.652832,-26.123047,0,0
15763,2024 10 07,05:26:21.344,0.678475,-0.124891,-0.704087,-0.16833,-0.700705,-0.384777,-0.177252,-75.134277,-158.14209,-35.095215,0,0
15764,2024 10 07,05:26:21.353,0.678475,-0.124891,-0.704087,-0.16833,-0.700705,-0.384777,-0.177252,-75.134277,-158.14209,-35.095215,0,0
15765,2024 10 07,05:26:21.361,0.685879,-0.127296,-0.695944,-0.170376,-0.624043,-0.386242,-0.060549,-31.005859,-91.85791,-20.507813,0,0
15766,2024 10 07,05:26:21.369,0.689016,-0.127618,-0.692488,-0.171555,-1.089877,0.156255,0.146489,-12.390137,-50.78125,1.220703,0,0
15767,2024 10 07,05:26:21.378,0.692143,-0.127862,-0.68889,-0.173264,-0.889676,0.15479,-0.308603,-17.700195,-57.434082,-2.01416,0,0
15768,2024 10 07,05:26:21.386,0.695376,-0.128507,-0.68502,-0.175175,-0.798364,0.002441,0.037111,-25.024414,-51.879883,-1.831055,0,0
15769,2024 10 07,05:26:21.394,0.696796,-0.129272,-0.68315,-0.176265,-1.014679,0.118168,0.00586,-13.183594,-20.690918,-3.662109,0,0
15770,2024 10 07,05:26:21.403,0.696796,-0.129272,-0.68315,-0.176265,-1.014679,0.118168,0.00586,-13.183594,-20.690918,-3.662109,0,0
15771,2024 10 07,05:26:21.411,0.698347,-0.13011,-0.681234,-0.176928,-0.904813,0.10303,-0.067873,-11.71875,-29.418945,-9.277344,0,0
15772,2024 10 07,05:26:21.419,0.699735,-0.131009,-0.679708,-0.176649,-0.869655,0.029298,-0.054201,-3.295898,-15.563965,-16.113281,0,0
15773,2024 10 07,05:26:21.428,0.700276,-0.131689,-0.679444,-0.175009,-0.992218,0.033692,0.089358,10.681152,0.610352,-20.996094,0,0
15774,2024 10 07,05:26:21.436,0.700881,-0.132081,-0.67944,-0.172287,-1.016633,0.081545,0.032716,20.446777,-2.13623,-28.259277,0,0
15775,2024 10 07,05:26:21.444,0.70203,-0.132382,-0.679064,-0.168822,-1.046907,0.135746,0.113773,27.832031,-7.263184,-34.729004,0,0
15776,2024 10 07,05:26:21.453,0.703676,-0.132752,-0.678114,-0.165464,-1.021027,0.140629,0.109378,22.155762,-19.592285,-34.851074,0,0
15777,2024 10 07,05:26:21.461,0.703676,-0.132752,-0.678114,-0.165464,-1.021027,0.140629,0.109378,22.155762,-19.592285,-34.851074,0,0
15778,2024 10 07,05:26:21.469,0.705853,-0.133319,-0.676367,-0.162867,-0.989776,0.105472,0.053713,13.73291,-28.442383,-32.287598,0,0
15779,2024 10 07,05:26:21.478,0.708322,-0.134279,-0.674125,-0.16064,-1.025422,0.122074,0.122074,5.126953,-34.545898,-33.813477,0,0
15780,2024 10 07,05:26:21.486,0.710986,-0.136012,-0.671256,-0.159423,-0.897,0.022462,-0.031739,-9.277344,-40.95459,-32.409668,0,0
15781,2024 10 07,05:26:21.494,0.713531,-0.138354,-0.668186,-0.15893,-0.833033,-0.009766,-0.134281,-20.507813,-38.391113,-31.433105,0,0
15782,2024 10 07,05:26:21.503,0.715526,-0.141186,-0.665701,-0.157893,-1.051302,0.071291,-0.253914,-11.59668,-24.475098,-40.588379,0,0
15783,2024 10 07,05:26:21.511,0.715526,-0.141186,-0.665701,-0.157893,-1.051302,0.071291,-0.253914,-11.59668,-24.475098,-40.588379,0,0
15784,2024 10 07,05:26:21.519,0.718098,-0.14391,-0.662872,-0.155647,-0.942412,0.011719,-0.366222,-5.554199,-37.902832,-50.842285,0,0
15785,2024 10 07,05:26:21.528,0.721143,-0.146365,-0.65969,-0.152772,-0.783227,0.047853,-0.207526,-0.488281,-37.353516,-53.039551,0,0
15786,2024 10 07,05:26:21.536,0.723559,-0.149034,-0.657047,-0.150137,-0.885769,0.069826,-0.129398,-2.563477,-27.526855,-50.109863,0,0
15787,2024 10 07,05:26:21.544,0.725557,-0.151892,-0.654724,-0.147755,-0.924833,-0.041505,-0.104984,-6.469727,-25.756836,-48.828125,0,0
15788,2024 10 07,05:26:21.553,0.727894,-0.15442,-0.652093,-0.145258,-0.935575,-0.100589,0.00293,-1.647949,-32.409668,-47.790527,0,0
15789,2024 10 07,05:26:21.561,0.727894,-0.15442,-0.652093,-0.145258,-0.935575,-0.100589,0.00293,-1.647949,-32.409668,-47.790527,0,0
15790,2024 10 07,05:26:21.569,0.730646,-0.156371,-0.649181,-0.142367,-0.988311,-0.029298,-0.046388,7.629395,-38.513184,-48.522949,0,0
15791,2024 10 07,05:26:21.578,0.733843,-0.157988,-0.645915,-0.138954,-1.016633,-0.070803,-0.090335,15.014648,-44.067383,-53.039551,0,0
15792,2024 10 07,05:26:21.586,0.737339,-0.159228,-0.642559,-0.134519,-1.037629,-0.00293,-0.189947,25.817871,-43.395996,-60.058594,0,0
15793,2024 10 07,05:26:21.594,0.74076,-0.160439,-0.639474,-0.128865,-1.052767,0.029786,-0.168462,35.644531,-36.92627,-70.617676,0,0
15794,2024 10 07,05:26:21.603,0.743846,-0.162006,-0.636815,-0.122122,-1.064486,0.054689,-0.230964,38.452148,-28.076172,-81.787109,0,0
15795,2024 10 07,05:26:21.611,0.743846,-0.162006,-0.636815,-0.122122,-1.064486,0.054689,-0.230964,38.452148,-28.076172,-81.787109,0,0
15796,2024 10 07,05:26:21.619,0.746574,-0.164223,-0.634489,-0.114373,-1.171911,0.096683,-0.264657,38.024902,-20.019531,-94.482422,0,0
15797,2024 10 07,05:26:21.628,0.748751,-0.167558,-0.632565,-0.105633,-1.354045,0.099612,-0.165532,36.682129,-6.347656,-111.26709,0,0
15798,2024 10 07,05:26:21.636,0.750906,-0.172052,-0.630381,-0.095702,-1.606006,0.122074,-0.028809,34.545898,-13.061523,-131.591797,0,0
15799,2024 10 07,05:26:21.644,0.753503,-0.178154,-0.627131,-0.084864,-1.72515,0.161626,0.08301,23.55957,-22.827148,-153.869629,0,0
15800,2024 10 07,05:26:21.653,0.756448,-0.186457,-0.622568,-0.073683,-1.982971,0.273446,-0.043458,6.103516,-33.26416,-177.429199,0,0
15801,2024 10 07,05:26:21.661,0.756448,-0.186457,-0.622568,-0.073683,-1.982971,0.273446,-0.043458,6.103516,-33.26416,-177.429199,0,0
15802,2024 10 07,05:26:21.669,0.759922,-0.197372,-0.616287,-0.061268,-2.277902,0.417982,-0.044435,-7.69043,-50.231934,-216.918945,0,0
15803,2024 10 07,05:26:21.678,0.763752,-0.211566,-0.608104,-0.046168,-2.577227,0.542985,0.082522,-17.089844,-58.288574,-272.460938,0,0
15804,2024 10 07,05:26:21.686,0.767979,-0.229363,-0.597352,-0.027785,-2.964446,0.650899,0.063478,-25.146484,-79.162598,-336.975098,0,0
15805,2024 10 07,05:26:21.694,0.773018,-0.250849,-0.582661,-0.004946,-3.586047,0.723655,0.241218,-23.31543,-106.872559,-419.006348,0,0
15806,2024 10 07,05:26:21.703,0.779033,-0.275878,-0.562538,0.023438,-4.563616,0.816431,0.205084,-18.127441,-153.503418,-512.329102,0,0
15807,2024 10 07,05:26:21.711,0.779033,-0.275878,-0.562538,0.023438,-4.563616,0.816431,0.205084,-18.127441,-153.503418,-512.329102,0,0
15808,2024 10 07,05:26:21.719,0.785068,-0.304853,-0.536038,0.058272,-5.945494,0.30665,0.281747,-5.615234,-191.955566,-625.0,0,0
15809,2024 10 07,05:26:21.728,0.790631,-0.337373,-0.501738,0.096643,-5.669118,-0.104495,0.759789,-17.51709,-253.112793,-690.734863,0,0
15810,2024 10 07,05:26:21.736,0.794264,-0.368907,-0.463179,0.136077,-4.566057,0.561541,0.507828,7.263184,-268.798828,-707.458496,0,1
15811,2024 10 07,05:26:21.744,0.794728,-0.396805,-0.423926,0.176746,-5.073885,1.359905,1.314005,30.883789,-227.233887,-702.453613,0,0
15812,2024 10 07,05:26:21.753,0.79254,-0.421012,-0.384033,0.217133,-4.211066,2.152898,2.378002,61.340332,-232.543945,-697.631836,0,0
15813,2024 10 07,05:26:21.761,0.79254,-0.421012,-0.384033,0.217133,-4.211066,2.152898,2.378002,61.340332,-232.543945,-697.631836,0,0
15814,2024 10 07,05:26:21.769,0.785693,-0.441141,-0.347236,0.259823,-2.812098,2.992767,1.618702,70.739746,-128.601074,-694.885254,0,0
15815,2024 10 07,05:26:21.778,0.773156,-0.45568,-0.318141,0.305567,-2.581622,2.67391,3.156835,78.979492,2.746582,-657.165527,0,0
15816,2024 10 07,05:26:21.786,0.764201,-0.461929,-0.29506,0.339939,4.677877,4.610004,1.810602,119.384766,-87.036133,-390.869141,0,0
15817,2024 10 07,05:26:21.794,0.766062,-0.456569,-0.295158,0.342892,-0.419935,4.144169,-1.063509,33.569336,166.809082,122.192383,0,0
15818,2024 10 07,05:26:21.803,0.772339,-0.446281,-0.317138,0.322102,-2.430738,2.93759,1.77105,-58.227539,61.340332,400.939941,0,0
15819,2024 10 07,05:26:21.811,0.772339,-0.446281,-0.317138,0.322102,-2.430738,2.93759,1.77105,-58.227539,61.340332,400.939941,0,0
15820,2024 10 07,05:26:21.819,0.778285,-0.437523,-0.342993,0.291893,-1.708548,2.213446,0.826197,-102.478027,89.294434,438.598633,0,0
15821,2024 10 07,05:26:21.828,0.781458,-0.429581,-0.367974,0.263399,-1.057161,1.169469,1.562059,-106.140137,93.078613,401.000977,0,0
15822,2024 10 07,05:26:21.836,0.781699,-0.418718,-0.394784,0.240349,-0.41554,0.918973,1.261269,-65.002441,176.269531,375.671387,0,0
15823,2024 10 07,05:26:21.844,0.779502,-0.403321,-0.425855,0.219902,-0.457533,1.246132,1.174352,-40.893555,246.398926,400.756836,0,0
15824,2024 10 07,05:26:21.853,0.775068,-0.383425,-0.461101,0.199099,-1.447798,1.595752,0.904324,-29.23584,292.358398,437.194824,0,0
15825,2024 10 07,05:26:21.861,0.771086,-0.361896,-0.494051,0.174271,-1.953185,1.522507,0.524918,-33.813477,226.623535,464.477539,0,0
15826,2024 10 07,05:26:21.869,0.771086,-0.361896,-0.494051,0.174271,-1.953185,1.522507,0.524918,-33.813477,226.623535,464.477539,0,0
15827,2024 10 07,05:26:21.878,0.768983,-0.340666,-0.521239,0.144642,-1.726127,1.150914,0.575701,-43.762207,155.517578,481.079102,0,0
15828,2024 10 07,05:26:21.886,0.766762,-0.318575,-0.545633,0.113448,-1.416547,0.87698,0.65334,-39.428711,132.385254,489.746094,0,0
15829,2024 10 07,05:26:21.894,0.763484,-0.295271,-0.568444,0.082337,-1.05179,0.499039,0.834498,-24.597168,138.183594,490.29541,0,0
15830,2024 10 07,05:26:21.903,0.757164,-0.270003,-0.592423,0.053248,-1.079623,0.449721,0.793481,-4.882813,184.570313,489.440918,0,0
15831,2024 10 07,05:26:21.911,0.747351,-0.242809,-0.617923,0.02611,-1.465377,0.67336,0.786645,10.681152,225.280762,487.365723,0,0
15832,2024 10 07,05:26:21.919,0.747351,-0.242809,-0.617923,0.02611,-1.465377,0.67336,0.786645,10.681152,225.280762,487.365723,0,0
15833,2024 10 07,05:26:21.928,0.73461,-0.214442,-0.64371,0.000242,-1.77105,0.600604,0.747093,20.385742,246.948242,484.863281,0,0
15834,2024 10 07,05:26:21.936,0.71926,-0.185311,-0.66911,-0.024832,-2.105533,0.546892,0.597674,24.963379,265.930176,482.788086,0,0
15835,2024 10 07,05:26:21.944,0.700882,-0.155089,-0.694444,-0.049582,-2.333567,0.473159,0.588397,28.503418,293.884277,493.95752,0,0
15836,2024 10 07,05:26:21.953,0.678756,-0.1236,-0.720009,-0.074834,-2.845302,0.391614,0.374523,25.146484,321.899414,512.390137,0,0
15837,2024 10 07,05:26:21.961,0.653809,-0.091792,-0.744292,-0.100682,-3.401959,-0.094241,0.211432,18.127441,332.763672,517.150879,0,0
15838,2024 10 07,05:26:21.969,0.653809,-0.091792,-0.744292,-0.100682,-3.401959,-0.094241,0.211432,18.127441,332.763672,517.150879,0,0
15839,2024 10 07,05:26:21.978,0.627134,-0.06124,-0.766276,-0.125591,-3.855587,-0.861843,-0.139653,13.000488,332.458496,497.924805,0,0
15840,2024 10 07,05:26:21.986,0.599392,-0.032585,-0.785962,-0.148089,-4.271126,-1.754448,-0.468276,18.310547,334.289551,468.811035,0,0
15841,2024 10 07,05:26:21.994,0.571477,-0.005622,-0.803278,-0.167708,-4.83755,-2.832606,-0.905789,27.832031,320.495605,439.331055,0,0
15842,2024 10 07,05:26:22.003,0.546576,0.019294,-0.816749,-0.183856,-4.984039,-3.947874,-1.549364,37.902832,266.906738,394.042969,0,0
15843,2024 10 07,05:26:22.011,0.526699,0.040262,-0.826198,-0.195867,-4.251595,-4.717429,-2.431226,36.987305,207.580566,319.519043,0,0
15844,2024 10 07,05:26:22.019,0.526699,0.040262,-0.826198,-0.195867,-4.251595,-4.717429,-2.431226,36.987305,207.580566,319.519043,0,0
15845,2024 10 07,05:26:22.028,0.511328,0.054665,-0.832826,-0.204832,-3.943968,-5.40495,-3.263772,10.437012,167.114258,230.102539,0,0
15846,2024 10 07,05:26:22.036,0.503534,0.061454,-0.835276,-0.212112,-3.12949,-5.91229,-3.443953,-33.447266,78.796387,130.615234,0,0
15847,2024 10 07,05:26:22.044,0.503271,0.060277,-0.834147,-0.217449,-2.77401,-6.839076,-3.150487,-74.951172,9.765625,31.311035,0,0
15848,2024 10 07,05:26:22.053,0.506761,0.053802,-0.832256,-0.218284,-2.77401,-6.645222,-2.448317,-53.771973,-15.014648,-44.98291,0,0
15849,2024 10 07,05:26:22.061,0.496039,0.033687,-0.848858,-0.179584,-8.33961,1.193396,-16.0,336.181641,236.877441,-504.394531,0,1
15850,2024 10 07,05:26:22.069,0.496039,0.033687,-0.848858,-0.179584,-8.33961,1.193396,-16.0,336.181641,236.877441,-504.394531,0,0
15851,2024 10 07,05:26:22.078,0.583719,0.014657,-0.795022,-0.164287,3.50499,1.883358,13.835384,-11.84082,-1191.833496,-399.963379,0,0
15852,2024 10 07,05:26:22.086,0.578686,-0.017583,-0.800066,-0.157184,-4.327769,-0.434584,-8.225349,-205.993652,385.131836,-358.276367,0,0
15853,2024 10 07,05:26:22.094,0.605859,-0.047336,-0.779944,-0.149602,-1.841365,-1.031281,-0.211921,-257.446289,-530.517578,-354.003906,0,0
15854,2024 10 07,05:26:22.103,0.631418,-0.069964,-0.75851,-0.145183,-3.074801,-0.707053,-1.000031,-12.329102,-226.806641,-259.033203,0,0
15855,2024 10 07,05:26:22.111,0.656925,-0.080619,-0.735815,-0.143271,-0.908231,-0.347179,0.755394,-123.291016,-417.236328,-134.277344,0,0
15856,2024 10 07,05:26:22.119,0.656925,-0.080619,-0.735815,-0.143271,-0.908231,-0.347179,0.755394,-123.291016,-417.236328,-134.277344,0,0
15857,2024 10 07,05:26:22.128,0.674377,-0.090889,-0.717254,-0.150003,-0.925321,0.415052,0.344249,-170.349121,-222.167969,-67.565918,0,0
15858,2024 10 07,05:26:22.136,0.687928,-0.103816,-0.699891,-0.161644,-0.314951,-1.037141,-0.592303,-192.504883,-249.633789,-60.302734,0,0
15859,2024 10 07,05:26:22.144,0.698247,-0.110327,-0.68802,-0.164032,-0.595233,-0.264657,-0.774926,-54.016113,-129.089355,-56.762695,0,0
15860,2024 10 07,05:26:22.153,0.704729,-0.113364,-0.680259,-0.16659,-0.7051,-0.224128,0.041017,-48.278809,-104.064941,-14.099121,0,0
15861,2024 10 07,05:26:22.161,0.708398,-0.114354,-0.676138,-0.167132,-0.65334,0.070803,-0.666524,-8.666992,-48.88916,-16.235352,0,0
15862,2024 10 07,05:26:22.169,0.708398,-0.114354,-0.676138,-0.167132,-0.65334,0.070803,-0.666524,-8.666992,-48.88916,-16.235352,0,0
15863,2024 10 07,05:26:22.178,0.710786,-0.115174,-0.673578,-0.166764,-0.8511,0.007324,0.205084,-6.225586,-27.160645,-16.906738,0,0
15864,2024 10 07,05:26:22.186,0.711267,-0.115929,-0.673211,-0.165669,-0.839869,0.084964,-0.328135,7.141113,-0.976563,-16.113281,0,0
15865,2024 10 07,05:26:22.194,0.711421,-0.116302,-0.67347,-0.163684,-0.848659,0.090823,-0.027833,14.770508,10.314941,-20.507813,0,0
15866,2024 10 07,05:26:22.203,0.710564,-0.116709,-0.67501,-0.160748,-0.940947,0.066408,-0.143071,23.925781,25.512695,-24.353027,0,0
15867,2024 10 07,05:26:22.211,0.709652,-0.116738,-0.676852,-0.156961,-1.016633,0.103519,0.106937,32.226563,29.052734,-28.076172,0,0
15868,2024 10 07,05:26:22.219,0.709652,-0.116738,-0.676852,-0.156961,-1.016633,0.103519,0.106937,32.226563,29.052734,-28.076172,0,0
15869,2024 10 07,05:26:22.228,0.708778,-0.117001,-0.678595,-0.153144,-1.070833,0.085452,0.082034,27.832031,21.911621,-29.785156,0,0
15870,2024 10 07,05:26:22.236,0.708665,-0.11724,-0.679472,-0.149552,-0.989288,0.098636,0.048341,28.564453,10.864258,-29.907227,0,0
15871,2024 10 07,05:26:22.244,0.708941,-0.117415,-0.679891,-0.146167,-0.900906,0.120609,-0.102542,25.20752,4.089355,-29.052734,0,0
15872,2024 10 07,05:26:22.253,0.709479,-0.117873,-0.679897,-0.143127,-0.924833,0.100101,-0.01709,19.165039,0.610352,-29.724121,0,0
15873,2024 10 07,05:26:22.261,0.709979,-0.118936,-0.679738,-0.140497,-0.989776,0.041993,0.083499,8.300781,-1.159668,-31.311035,0,0
15874,2024 10 07,05:26:22.269,0.710992,-0.120184,-0.678899,-0.138353,-1.067904,-0.000977,0.116703,7.385254,-15.075684,-28.930664,0,0
15875,2024 10 07,05:26:22.278,0.710992,-0.120184,-0.678899,-0.138353,-1.067904,-0.000977,0.116703,7.385254,-15.075684,-28.930664,0,0
15876,2024 10 07,05:26:22.286,0.713286,-0.120847,-0.676748,-0.136493,-1.081576,-0.062014,0.117191,10.375977,-38.513184,-26.123047,0,0
15877,2024 10 07,05:26:22.294,0.717064,-0.120448,-0.673285,-0.134161,-1.042024,-0.06592,0.123051,23.803711,-61.340332,-25.939941,0,0
15878,2024 10 07,05:26:22.303,0.721827,-0.119183,-0.668951,-0.131401,-0.993194,-0.083499,0.063478,33.935547,-73.181152,-26.123047,0,0
15879,2024 10 07,05:26:22.311,0.727056,-0.117348,-0.664282,-0.127862,-0.943388,-0.136723,0.106937,44.067383,-79.772949,-28.869629,0,0
15880,2024 10 07,05:26:22.319,0.732558,-0.115216,-0.659379,-0.12371,-0.85403,-0.631855,0.408216,49.987793,-80.749512,-34.118652,0,0
15881,2024 10 07,05:26:22.328,0.732558,-0.115216,-0.659379,-0.12371,-0.85403,-0.631855,0.408216,49.987793,-80.749512,-34.118652,0,0
15882,2024 10 07,05:26:22.336,0.737467,-0.111999,-0.655686,-0.116939,-1.071322,-0.535661,0.538591,89.538574,-62.194824,-43.640137,0,0
15883,2024 10 07,05:26:22.344,0.742392,-0.107699,-0.652424,-0.10769,-1.101108,-0.904324,0.931669,120.788574,-60.241699,-57.312012,0,0
15884,2024 10 07,05:26:22.353,0.746689,-0.100878,-0.650755,-0.093788,-1.305216,-0.857448,0.977569,176.208496,-42.175293,-73.547363,0,0
15885,2024 10 07,05:26:22.361,0.75166,-0.091359,-0.648741,-0.076133,-1.261269,-0.924833,1.181188,233.154297,-52.55127,-86.547852,0,0
15886,2024 10 07,05:26:22.369,0.756765,-0.078932,-0.646588,-0.054783,-1.358928,-0.813013,1.178259,282.775879,-52.368164,-95.88623,0,0
15887,2024 10 07,05:26:22.378,0.756765,-0.078932,-0.646588,-0.054783,-1.358928,-0.813013,1.178259,282.775879,-52.368164,-95.88623,0,0
15888,2024 10 07,05:26:22.386,0.762182,-0.063883,-0.643489,-0.030311,-1.321329,-0.644063,1.120151,325.134277,-66.162109,-105.285645,0,0
15889,2024 10 07,05:26:22.394,0.767598,-0.046876,-0.639206,-0.003342,-1.319376,-0.296396,1.060091,359.49707,-69.885254,-114.868164,0,0
15890,2024 10 07,05:26:22.403,0.772305,-0.028521,-0.634115,0.025099,-1.375042,0.086428,0.600604,376.037598,-74.523926,-119.32373,0,0
15891,2024 10 07,05:26:22.411,0.777581,-0.00979,-0.626358,0.054283,-1.07181,0.494156,0.377453,384.216309,-101.867676,-125.671387,0,0
15892,2024 10 07,05:26:22.419,0.782321,0.008521,-0.617225,0.083276,-1.092807,0.874538,-0.176763,375.488281,-103.759766,-128.479004,0,0
15893,2024 10 07,05:26:22.428,0.782321,0.008521,-0.617225,0.083276,-1.092807,0.874538,-0.176763,375.488281,-103.759766,-128.479004,0,0
15894,2024 10 07,05:26:22.436,0.786698,0.025483,-0.606752,0.110946,-1.061068,1.22953,-0.585467,344.909668,-111.999512,-128.112793,0,0
15895,2024 10 07,05:26:22.444,0.790113,0.039614,-0.59631,0.136262,-1.329142,1.467818,-0.813013,304.56543,-103.210449,-130.065918,0,0
15896,2024 10 07,05:26:22.453,0.793181,0.050124,-0.585725,0.158992,-1.397015,1.389203,-0.933134,246.337891,-112.121582,-134.094238,0,0
15897,2024 10 07,05:26:22.461,0.795936,0.056003,-0.575431,0.179521,-1.435102,1.279824,-0.926786,194.396973,-107.421875,-147.033691,0,0
15898,2024 10 07,05:26:22.469,0.797853,0.058188,-0.566302,0.198359,-1.752983,1.168493,-0.799341,143.737793,-101.074219,-157.775879,0,0
15899,2024 10 07,05:26:22.478,0.797853,0.058188,-0.566302,0.198359,-1.752983,1.168493,-0.799341,143.737793,-101.074219,-157.775879,0,0
15900,2024 10 07,05:26:22.486,0.799433,0.055936,-0.557792,0.215978,-2.041078,1.049837,-0.804224,98.693848,-106.872559,-180.297852,0,0
15901,2024 10 07,05:26:22.494,0.800188,0.049252,-0.550036,0.233953,-2.521073,1.053255,-0.508805,62.133789,-102.355957,-217.590332,0,0
15902,2024 10 07,05:26:22.503,0.799428,0.038191,-0.543334,0.253465,-3.288186,1.181677,-0.386731,30.334473,-103.393555,-269.165039,0,0
15903,2024 10 07,05:26:22.511,0.797878,0.021825,-0.535357,0.276239,-3.990356,1.095737,-0.293466,4.699707,-139.770508,-341.125488,0,0
15904,2024 10 07,05:26:22.519,0.795838,-0.000425,-0.523753,0.303849,-4.692038,0.959014,0.810083,2.380371,-191.650391,-424.499512,0,0
15905,2024 10 07,05:26:22.528,0.795838,-0.000425,-0.523753,0.303849,-4.692038,0.959014,0.810083,2.380371,-191.650391,-424.499512,0,0
15906,2024 10 07,05:26:22.536,0.793529,-0.026587,-0.506971,0.335538,-5.212073,1.588916,0.893582,14.221191,-268.432617,-478.088379,0,0
15907,2024 10 07,05:26:22.544,0.792416,-0.056009,-0.483263,0.367963,-7.181372,0.825709,-0.125004,8.056641,-357.788086,-496.032715,1,0
15908,2024 10 07,05:26:22.553,0.798114,-0.09062,-0.445787,0.395065,-5.699393,0.570818,0.981475,-14.038086,-564.39209,-443.115234,0,0
15909,2024 10 07,05:26:22.561,0.802571,-0.122804,-0.405773,0.419699,-3.670522,1.903867,1.06888,23.071289,-522.216797,-424.987793,0,0
15910,2024 10 07,05:26:22.569,0.804838,-0.150823,-0.366736,0.44158,1.261269,3.990356,3.86877,45.349121,-441.040039,-371.459961,0,0
15911,2024 10 07,05:26:22.578,0.804838,-0.150823,-0.366736,0.44158,1.261269,3.990356,3.86877,45.349121,-441.040039,-371.459961,0,0
15912,2024 10 07,05:26:22.586,0.800886,-0.176084,-0.349208,0.453463,5.331706,0.211432,2.857997,-213.134766,-189.208984,-204.284668,0,0
15913,2024 10 07,05:26:22.594,0.794509,-0.189186,-0.359765,0.451145,-1.736869,2.089908,1.384808,-211.05957,92.956543,-1.220703,0,0
15914,2024 10 07,05:26:22.603,0.786761,-0.201574,-0.378115,0.444301,-1.972716,2.035707,2.138737,-243.835449,131.469727,-6.896973,0,0
15915,2024 10 07,05:26:22.611,0.777365,-0.217572,-0.397359,0.43643,-0.688986,0.981964,1.698782,-302.734375,75.317383,-11.59668,0,0
15916,2024 10 07,05:26:22.619,0.768887,-0.231711,-0.415263,0.42741,0.680685,0.643086,2.264718,-266.906738,131.713867,29.296875,0,0
15917,2024 10 07,05:26:22.628,0.768887,-0.231711,-0.415263,0.42741,0.680685,0.643086,2.264718,-266.906738,131.713867,29.296875,0,0
15918,2024 10 07,05:26:22.636,0.759238,-0.235424,-0.438931,0.418895,0.620624,0.796899,1.884823,-187.438965,230.895996,89.294434,0,0
15919,2024 10 07,05:26:22.644,0.748381,-0.228015,-0.4672,0.411896,-0.329112,0.720725,1.578173,-109.008789,340.942383,131.164551,0,0
15920,2024 10 07,05:26:22.653,0.736562,-0.211968,-0.496847,0.40705,-1.236366,0.725608,0.67336,-40.100098,374.511719,148.498535,0,0
15921,2024 10 07,05:26:22.661,0.728279,-0.192398,-0.520048,0.402669,-1.168981,0.918973,0.548845,27.709961,299.194336,163.513184,0,0
15922,2024 10 07,05:26:22.669,0.722909,-0.169228,-0.538571,0.398378,-0.845241,1.115268,0.172369,84.899902,278.869629,190.368652,0,0
15923,2024 10 07,05:26:22.678,0.719231,-0.14193,-0.554555,0.393739,-0.634297,1.235878,0.189459,125.12207,266.784668,222.106934,0,0
15924,2024 10 07,05:26:22.686,0.719231,-0.14193,-0.554555,0.393739,-0.634297,1.235878,0.189459,125.12207,266.784668,222.106934,0,0
15925,2024 10 07,05:26:22.694,0.715168,-0.110749,-0.570178,0.388801,-0.712912,1.399457,-0.108402,152.282715,293.334961,243.896484,0,0
15926,2024 10 07,05:26:22.703,0.709703,-0.076926,-0.586098,0.383268,-0.958037,1.608448,-0.264168,161.437988,314.758301,256.896973,0,0
15927,2024 10 07,05:26:22.711,0.702808,-0.042134,-0.602214,0.376331,-1.304727,1.717338,-0.526383,152.893066,324.279785,266.479492,0,0
15928,2024 10 07,05:26:22.719,0.695585,-0.007937,-0.617403,0.367302,-1.429731,1.687551,-0.632344,135.681152,313.415527,276.000977,0,0
15929,2024 10 07,05:26:22.728,0.688052,0.025503,-0.631701,0.356213,-1.444868,1.569384,-0.627461,119.873047,307.373047,286.010742,0,0
15930,2024 10 07,05:26:22.736,0.688052,0.025503,-0.631701,0.356213,-1.444868,1.569384,-0.627461,119.873047,307.373047,286.010742,0,0
15931,2024 10 07,05:26:22.744,0.679712,0.058865,-0.645518,0.343267,-1.494186,1.45024,-0.579119,110.595703,313.293457,298.278809,0,0
15932,2024 10 07,05:26:22.753,0.670159,0.092767,-0.659103,0.328427,-1.675832,1.370159,-0.586444,103.271484,324.584961,313.720703,0,0
15933,2024 10 07,05:26:22.761,0.659539,0.127242,-0.672052,0.311711,-1.841853,1.282754,-0.637715,97.900391,330.200195,329.345703,0,0
15934,2024 10 07,05:26:22.769,0.647939,0.162073,-0.684039,0.293254,-1.968322,1.185583,-0.604511,92.651367,336.364746,343.505859,0,0
15935,2024 10 07,05:26:22.778,0.63516,0.19719,-0.695121,0.272936,-2.180731,1.197302,-0.58742,85.083008,343.261719,358.642578,0,0
15936,2024 10 07,05:26:22.786,0.63516,0.19719,-0.695121,0.272936,-2.180731,1.197302,-0.58742,85.083008,343.261719,358.642578,0,0
15937,2024 10 07,05:26:22.794,0.621337,0.232236,-0.705333,0.250025,-2.43611,1.078158,-0.868191,67.199707,351.745605,376.464844,0,0
15938,2024 10 07,05:26:22.803,0.60724,0.266464,-0.713901,0.224948,-2.657796,0.582049,-0.893094,50.354004,345.092773,388.977051,0,0
15939,2024 10 07,05:26:22.811,0.592028,0.299547,-0.721352,0.198559,-3.187597,0.009278,-1.132847,39.306641,351.074219,389.648438,0,0
15940,2024 10 07,05:26:22.819,0.576432,0.330668,-0.727153,0.17214,-3.744743,-0.847682,-1.361858,32.104492,335.754395,381.652832,0,0
15941,2024 10 07,05:26:22.828,0.561452,0.359536,-0.730736,0.146729,-4.209113,-1.780328,-1.576708,25.512695,308.59375,371.21582,0,0
15942,2024 10 07,05:26:22.836,0.561452,0.359536,-0.730736,0.146729,-4.209113,-1.780328,-1.576708,25.512695,308.59375,371.21582,0,0
15943,2024 10 07,05:26:22.844,0.549349,0.384889,-0.731399,0.123012,-4.459609,-2.818445,-1.886776,5.310059,240.783691,350.708008,0,0
15944,2024 10 07,05:26:22.853,0.541819,0.404735,-0.729458,0.102532,-3.879025,-3.519639,-2.055238,-23.864746,170.10498,298.522949,0,0
15945,2024 10 07,05:26:22.861,0.53819,0.41643,-0.727885,0.084392,-2.983001,-4.33314,-2.365307,-78.00293,130.371094,214.294434,0,0
15946,2024 10 07,05:26:22.869,0.536553,0.419064,-0.729364,0.067264,-2.589923,-4.867336,-2.717856,-141.723633,126.037598,121.337891,0,0
15947,2024 10 07,05:26:22.878,0.536875,0.412141,-0.734382,0.050877,-2.590899,-5.106113,-2.894619,-208.374023,114.135742,21.362305,0,0
15948,2024 10 07,05:26:22.886,0.536875,0.412141,-0.734382,0.050877,-2.590899,-5.106113,-2.894619,-208.374023,114.135742,21.362305,0,0
15949,2024 10 07,05:26:22.894,0.540509,0.396156,-0.741336,0.036496,-2.546953,-5.482101,-2.497147,-256.04248,82.580566,-70.068359,0,0
15950,2024 10 07,05:26:22.903,0.5455,0.374265,-0.749447,0.026177,-2.591876,-5.185217,-2.046937,-253.601074,54.077148,-144.592285,0,0
15951,2024 10 07,05:26:22.911,0.524499,0.353513,-0.773477,0.040778,-3.850703,6.208685,-9.909482,118.530273,227.539063,-438.476563,1,0
15952,2024 10 07,05:26:22.919,0.582613,0.314273,-0.747798,0.050903,4.060671,3.342387,10.026673,-165.83252,-707.214355,-278.747559,0,0
15953,2024 10 07,05:26:22.928,0.578045,0.286548,-0.762302,0.051476,-4.283334,-0.115238,-6.345408,-170.959473,149.414063,-326.477051,0,0
15954,2024 10 07,05:26:22.936,0.578045,0.286548,-0.762302,0.051476,-4.283334,-0.115238,-6.345408,-170.959473,149.414063,-326.477051,0,0
15955,2024 10 07,05:26:22.944,0.607461,0.254879,-0.749442,0.066059,0.209967,-1.701224,0.007324,-230.529785,-462.402344,-294.189453,0,0
15956,2024 10 07,05:26:22.953,0.621746,0.233343,-0.743336,0.080218,-2.643635,-0.53029,-2.313547,5.249023,-187.438965,-223.205566,0,0
15957,2024 10 07,05:26:22.961,0.640727,0.220845,-0.729125,0.09525,-1.181188,-0.502945,1.003448,5.126953,-299.865723,-134.338379,0,0
15958,2024 10 07,05:26:22.969,0.654402,0.211757,-0.718252,0.105026,-1.18656,0.490738,0.514664,-42.96875,-232.116699,-93.994141,0,0
15959,2024 10 07,05:26:22.978,0.669234,0.198832,-0.707984,0.106538,-0.747581,-0.257332,-0.176763,-111.877441,-203.308105,-70.129395,0,0
15960,2024 10 07,05:26:22.986,0.669234,0.198832,-0.707984,0.106538,-0.747581,-0.257332,-0.176763,-111.877441,-203.308105,-70.129395,0,0
15961,2024 10 07,05:26:22.994,0.680975,0.188576,-0.699227,0.108599,-0.68508,-0.320811,-0.728538,-63.476563,-176.757813,-62.011719,0,0
15962,2024 10 07,05:26:23.003,0.690614,0.182009,-0.690678,0.113529,-0.809595,0.079104,0.104984,-14.038086,-147.155762,-56.884766,0,0
15963,2024 10 07,05:26:23.011,0.697621,0.176773,-0.684508,0.1163,-0.975616,0.029298,0.070803,-33.935547,-112.243652,-36.071777,0,0
15964,2024 10 07,05:26:23.019,0.703845,0.171913,-0.679163,0.11741,-0.622578,-0.130375,-0.520524,-29.785156,-93.87207,-26.672363,0,0
15965,2024 10 07,05:26:23.028,0.707802,0.169414,-0.675191,0.120135,-0.734397,0.04297,-0.139653,6.286621,-60.48584,-27.526855,0,0
15966,2024 10 07,05:26:23.036,0.709712,0.168007,-0.673131,0.122383,-0.977081,0.076174,-0.00293,1.098633,-33.02002,-20.263672,0,0
15967,2024 10 07,05:26:23.044,0.709712,0.168007,-0.673131,0.122383,-0.977081,0.076174,-0.00293,1.098633,-33.02002,-20.263672,0,0
15968,2024 10 07,05:26:23.053,0.711318,0.166733,-0.67147,0.123912,-0.862331,0.018067,-0.143559,2.075195,-29.724121,-16.357422,0,0
15969,2024 10 07,05:26:23.061,0.712249,0.166176,-0.670235,0.125985,-0.928251,0.084964,-0.029298,13.061523,-18.066406,-17.578125,0,0
15970,2024 10 07,05:26:23.069,0.712763,0.165872,-0.669365,0.128082,-1.00296,0.115238,0.069826,13.427734,-16.540527,-16.906738,0,0
15971,2024 10 07,05:26:23.078,0.713522,0.165431,-0.668278,0.130089,-0.991729,0.089358,0.034669,12.268066,-20.996094,-17.028809,0,0
15972,2024 10 07,05:26:23.086,0.714623,0.164958,-0.666775,0.13234,-0.976592,0.096194,0.050295,14.221191,-28.381348,-17.76123,0,0
15973,2024 10 07,05:26:23.094,0.714623,0.164958,-0.666775,0.13234,-0.976592,0.096194,0.050295,14.221191,-28.381348,-17.76123,0,0
15974,2024 10 07,05:26:23.103,0.715992,0.164384,-0.665007,0.134529,-0.927763,0.096194,-0.000488,11.291504,-30.395508,-16.662598,0,0
15975,2024 10 07,05:26:23.111,0.717485,0.163648,-0.663186,0.136451,-0.926786,0.104007,-0.001465,7.629395,-31.982422,-15.686035,0,0
15976,2024 10 07,05:26:23.119,0.719076,0.162676,-0.661344,0.138165,-0.913114,0.104495,-0.035157,3.662109,-32.592773,-15.869141,0,0
15977,2024 10 07,05:26:23.128,0.720764,0.161485,-0.659469,0.139723,-0.906278,0.074221,-0.055666,2.01416,-32.958984,-15.991211,0,0
15978,2024 10 07,05:26:23.136,0.722435,0.160269,-0.657584,0.14137,-0.918485,0.094241,-0.051759,2.319336,-33.630371,-17.211914,0,0
15979,2024 10 07,05:26:23.144,0.722435,0.160269,-0.657584,0.14137,-0.918485,0.094241,-0.051759,2.319336,-33.630371,-17.211914,0,0
15980,2024 10 07,05:26:23.153,0.724211,0.158917,-0.655589,0.143066,-0.918973,0.092776,-0.079104,1.586914,-36.010742,-18.371582,0,0
15981,2024 10 07,05:26:23.161,0.726168,0.157328,-0.653467,0.144599,-0.897,0.043458,-0.11475,-1.77002,-37.536621,-17.51709,0,0
15982,2024 10 07,05:26:23.169,0.728211,0.155748,-0.651235,0.146098,-0.952178,0.063478,-0.018555,-3.051758,-39.916992,-16.906738,0,0
15983,2024 10 07,05:26:23.178,0.730426,0.154002,-0.648877,0.147375,-0.931669,0.054201,-0.067873,-5.187988,-42.236328,-15.50293,0,0
15984,2024 10 07,05:26:23.186,0.732762,0.152108,-0.646414,0.148569,-0.936552,0.076662,-0.061525,-8.422852,-44.250488,-16.174316,0,0
15985,2024 10 07,05:26:23.194,0.732762,0.152108,-0.646414,0.148569,-0.936552,0.076662,-0.061525,-8.422852,-44.250488,-16.174316,0,0
15986,2024 10 07,05:26:23.203,0.735342,0.14995,-0.643757,0.149545,-0.922391,0.040529,-0.10303,-10.864258,-47.851563,-15.197754,0,0
15987,2024 10 07,05:26:23.211,0.737992,0.14789,-0.640953,0.150587,-0.912137,0.00586,-0.08887,-8.300781,-48.217773,-14.526367,0,0
15988,2024 10 07,05:26:23.219,0.740426,0.146133,-0.638208,0.152006,-0.938505,0.036134,-0.066408,-2.990723,-46.508789,-16.540527,0,0
15989,2024 10 07,05:26:23.228,0.742815,0.144417,-0.635424,0.153642,-0.937529,0.023927,-0.091311,-1.159668,-47.241211,-18.249512,0,0
15990,2024 10 07,05:26:23.236,0.744979,0.142861,-0.632743,0.15567,-0.936552,-0.017579,-0.081057,4.211426,-43.701172,-21.057129,0,0
15991,2024 10 07,05:26:23.244,0.744979,0.142861,-0.632743,0.15567,-0.936552,-0.017579,-0.081057,4.211426,-43.701172,-21.057129,0,0
15992,2024 10 07,05:26:23.253,0.746876,0.141484,-0.630185,0.158194,-0.991729,0.002441,-0.041993,9.277344,-43.273926,-24.536133,0,0
15993,2024 10 07,05:26:23.261,0.748805,0.140059,-0.627462,0.161144,-0.967315,-0.041993,-0.075686,12.390137,-45.10498,-28.503418,0,0
15994,2024 10 07,05:26:23.269,0.750106,0.138978,-0.625182,0.164843,-0.981475,-0.054201,-0.0459,21.911621,-34.301758,-35.03418,0,0
15995,2024 10 07,05:26:23.278,0.750932,0.138251,-0.623089,0.169553,-1.110874,-0.004883,-0.099124,32.592773,-34.790039,-42.84668,0,0
15996,2024 10 07,05:26:23.286,0.751668,0.137608,-0.620591,0.175859,-1.186071,0.123051,-0.247566,47.180176,-37.536621,-58.71582,0,0
15997,2024 10 07,05:26:23.294,0.751668,0.137608,-0.620591,0.175859,-1.186071,0.123051,-0.247566,47.180176,-37.536621,-58.71582,0,0
15998,2024 10 07,05:26:23.303,0.752186,0.136376,-0.617982,0.183617,-1.187048,0.116703,-0.325205,47.668457,-40.527344,-74.462891,0,0
15999,2024 10 07,05:26:23.311,0.75225,0.13455,-0.615563,0.192611,-1.313028,0.267586,-0.216315,51.513672,-38.085938,-91.491699,0,0
16000,2024 10 07,05:26:23.319,0.751714,0.131336,-0.613834,0.2022,-1.469771,0.296884,-0.377941,44.73877,-34.179688,-110.229492,0,0
16001,2024 10 07,05:26:23.328,0.751403,0.126293,-0.611748,0.212623,-1.554247,0.308603,-0.320322,30.517578,-46.142578,-130.065918,0,0
16002,2024 10 07,05:26:23.336,0.750983,0.118992,-0.609772,0.223705,-1.59917,0.252937,-0.204596,15.686035,-47.668457,-152.832031,0,0
16003,2024 10 07,05:26:23.344,0.750983,0.118992,-0.609772,0.223705,-1.59917,0.252937,-0.204596,15.686035,-47.668457,-152.832031,0,0
16004,2024 10 07,05:26:23.352,0.749943,0.109593,-0.608258,0.235791,-1.7481,0.258309,-0.099612,5.92041,-50.109863,-178.894043,0,0
16005,2024 10 07,05:26:23.361,0.748747,0.097426,-0.606724,0.248541,-1.935118,0.17188,-0.026368,-15.136719,-54.138184,-204.711914,0,0
16006,2024 10 07,05:26:23.369,0.746097,0.083035,-0.606057,0.262944,-2.250557,0.24659,0.101566,-20.874023,-45.654297,-243.103027,0,0
16007,2024 10 07,05:26:23.377,0.742215,0.065679,-0.605484,0.279629,-2.656819,0.293954,0.169439,-27.648926,-51.330566,-291.259766,0,0
16008,2024 10 07,05:26:23.386,0.737506,0.044568,-0.603489,0.299834,-3.047945,0.425794,0.265145,-30.944824,-80.078125,-354.248047,0,0
16009,2024 10 07,05:26:23.394,0.737506,0.044568,-0.603489,0.299834,-3.047945,0.425794,0.265145,-30.944824,-80.078125,-354.248047,0,0
16010,2024 10 07,05:26:23.402,0.731336,0.020052,-0.599065,0.325371,-3.489853,0.61916,0.474136,-4.638672,-106.567383,-431.884766,0,0
16011,2024 10 07,05:26:23.411,0.723911,-0.008657,-0.590672,0.356349,-4.210089,0.401868,0.350597,9.277344,-151.428223,-514.465332,0,0
16012,2024 10 07,05:26:23.419,0.714267,-0.041976,-0.577547,0.393065,-4.876614,0.277352,0.907743,29.907227,-193.908691,-604.675293,0,0
16013,2024 10 07,05:26:23.427,0.701711,-0.07675,-0.561432,0.431862,-5.436201,0.247566,0.070315,45.593262,-207.580566,-629.02832,0,1
16014,2024 10 07,05:26:23.436,0.691697,-0.112419,-0.53794,0.468548,-4.128056,0.563494,0.654805,65.002441,-301.818848,-608.764648,0,0
16015,2024 10 07,05:26:23.444,0.680394,-0.145958,-0.512467,0.503128,-4.128056,0.563494,0.654805,65.002441,-301.818848,-608.764648,0,0
16016,2024 10 07,05:26:23.452,0.680394,-0.145958,-0.512467,0.503128,-3.848262,1.073275,1.02591,77.636719,-269.226074,-587.219238,0,0
16017,2024 10 07,05:26:23.461,0.667688,-0.177402,-0.484557,0.536587,-2.541581,1.53325,2.454665,94.482422,-276.672363,-581.970215,0,0
16018,2024 10 07,05:26:23.469,0.648991,-0.202953,-0.460573,0.570519,-1.674856,1.805719,1.971252,116.760254,-143.493652,-577.148438,0,0
16019,2024 10 07,05:26:23.477,0.624785,-0.221081,-0.440622,0.60549,-2.023011,2.533769,1.583056,121.704102,-37.719727,-574.645996,0,0
16020,2024 10 07,05:26:23.486,0.596643,-0.236589,-0.426006,0.637622,1.462935,0.48439,0.913114,66.833496,9.155273,-505.310059,0,0
16021,2024 10 07,05:26:23.494,0.590168,-0.23621,-0.415146,0.650815,2.550859,5.021149,1.870663,132.69043,58.105469,-26.000977,0,0
16022,2024 10 07,05:26:23.502,0.590168,-0.23621,-0.415146,0.650815,2.550859,5.021149,1.870663,132.69043,58.105469,-26.000977,0,0
16023,2024 10 07,05:26:23.511,0.598115,-0.222882,-0.426021,0.641161,-1.480514,2.171453,0.255379,-46.813965,64.39209,281.005859,0,0
16024,2024 10 07,05:26:23.519,0.615065,-0.209215,-0.440186,0.619807,-1.761284,1.979553,0.821314,-106.323242,79.833984,376.159668,0,0
16025,2024 10 07,05:26:23.527,0.628903,-0.19812,-0.457409,0.596663,-1.080599,1.23246,1.425336,-131.652832,54.992676,334.533691,0,0
16026,2024 10 07,05:26:23.536,0.637534,-0.189179,-0.475088,0.57624,-0.222175,0.6133,1.104038,-135.986328,116.210938,271.972656,0,0
16027,2024 10 07,05:26:23.544,0.640019,-0.177536,-0.49503,0.56018,0.202155,0.697775,0.846217,-122.375488,188.293457,231.811523,0,0
16028,2024 10 07,05:26:23.552,0.640019,-0.177536,-0.49503,0.56018,0.202155,0.697775,0.846217,-122.375488,188.293457,231.811523,0,0
16029,2024 10 07,05:26:23.561,0.638302,-0.160594,-0.518122,0.546196,-0.130375,1.010285,0.882839,-100.952148,282.592773,238.098145,0,0
16030,2024 10 07,05:26:23.569,0.63464,-0.137948,-0.544166,0.531117,-0.825709,1.253945,0.521012,-90.454102,329.89502,276.367188,0,0
16031,2024 10 07,05:26:23.577,0.632489,-0.112824,-0.56952,0.512713,-1.230506,1.311563,0.3296,-91.491699,313.110352,320.800781,0,0
16032,2024 10 07,05:26:23.586,0.63222,-0.086911,-0.593215,0.490755,-1.59331,1.24955,-0.01709,-99.121094,286.804199,355.529785,0,0
16033,2024 10 07,05:26:23.594,0.634619,-0.062363,-0.613578,0.465716,-1.695364,1.084994,-0.052248,-110.107422,226.867676,376.89209,0,0
16034,2024 10 07,05:26:23.602,0.634619,-0.062363,-0.613578,0.465716,-1.695364,1.084994,-0.052248,-110.107422,226.867676,376.89209,0,0
16035,2024 10 07,05:26:23.611,0.637989,-0.038604,-0.631806,0.43852,-1.706595,0.890652,-0.365246,-115.783691,211.669922,388.427734,0,0
16036,2024 10 07,05:26:23.619,0.642267,-0.015596,-0.647443,0.409961,-1.550829,0.708518,-0.199713,-117.1875,179.077148,397.094727,0,0
16037,2024 10 07,05:26:23.627,0.646101,0.007981,-0.661471,0.380718,-1.543992,0.591327,-0.271004,-107.23877,181.884766,405.700684,0,0
16038,2024 10 07,05:26:23.636,0.649255,0.032665,-0.673967,0.350955,-1.785699,0.536637,-0.214362,-96.130371,177.91748,416.259766,0,0
16039,2024 10 07,05:26:23.644,0.652119,0.058365,-0.684463,0.320694,-2.086489,0.524918,-0.290048,-83.862305,167.724609,427.490234,0,0
16040,2024 10 07,05:26:23.652,0.652119,0.058365,-0.684463,0.320694,-2.086489,0.524918,-0.290048,-83.862305,167.724609,427.490234,0,0
16041,2024 10 07,05:26:23.661,0.655496,0.084488,-0.692189,0.289934,-2.285714,0.480483,-0.277352,-76.049805,142.211914,438.232422,0,0
16042,2024 10 07,05:26:23.669,0.659618,0.110634,-0.696937,0.258732,-2.326243,0.434584,-0.30372,-70.3125,114.257813,447.32666,0,0
16043,2024 10 07,05:26:23.677,0.663981,0.136761,-0.699162,0.227149,-2.303781,0.373058,-0.156743,-66.040039,99.243164,455.13916,0,0
16044,2024 10 07,05:26:23.686,0.667173,0.16353,-0.700104,0.194918,-2.416578,0.253914,-0.098636,-60.60791,104.370117,466.552734,0,0
16045,2024 10 07,05:26:23.694,0.6689,0.190925,-0.69994,0.161879,-2.694418,0.087893,0.034181,-57.983398,111.206055,478.088379,0,0
16046,2024 10 07,05:26:23.702,0.6689,0.190925,-0.69994,0.161879,-2.694418,0.087893,0.034181,-57.983398,111.206055,478.088379,0,0
16047,2024 10 07,05:26:23.711,0.669246,0.218693,-0.69845,0.12826,-2.938078,-0.145512,0.191412,-55.114746,111.14502,486.938477,0,0
16048,2024 10 07,05:26:23.719,0.668096,0.246259,-0.695745,0.094569,-3.125584,-0.590838,0.294443,-50.842285,114.562988,487.365723,0,0
16049,2024 10 07,05:26:23.727,0.665205,0.272859,-0.692296,0.061447,-3.374126,-1.265175,0.417493,-48.64502,121.582031,476.623535,0,0
16050,2024 10 07,05:26:23.736,0.66065,0.297489,-0.688585,0.029878,-3.650014,-2.178777,0.462905,-47.790527,123.10791,450.256348,0,0
16051,2024 10 07,05:26:23.744,0.655615,0.318586,-0.684596,0.001021,-3.515244,-3.017182,0.438002,-54.56543,113.15918,402.770996,0,0
16052,2024 10 07,05:26:23.752,0.655615,0.318586,-0.684596,0.001021,-3.515244,-3.017182,0.438002,-54.56543,113.15918,402.770996,0,0
16053,2024 10 07,05:26:23.761,0.650845,0.333976,-0.681359,-0.024711,-3.013764,-3.647084,0.189947,-79.89502,107.421875,328.918457,0,0
16054,2024 10 07,05:26:23.769,0.64623,0.341439,-0.680823,-0.047813,-1.965392,-3.953246,-0.375011,-120.666504,128.540039,234.619141,0,0
16055,2024 10 07,05:26:23.777,0.640428,0.340176,-0.685139,-0.068676,-0.780297,-4.365856,-0.892117,-160.583496,175.292969,125.0,0,0
16056,2024 10 07,05:26:23.786,0.630917,0.329603,-0.696548,-0.090149,-2.462966,-6.441114,-1.664602,-200.012207,291.320801,46.081543,0,0
16057,2024 10 07,05:26:23.794,0.619255,0.315597,-0.711097,-0.106125,-4.215461,-6.016785,-2.024964,-171.508789,243.347168,-17.51709,0,0
16058,2024 10 07,05:26:23.802,0.619255,0.315597,-0.711097,-0.106125,-4.215461,-6.016785,-2.024964,-171.508789,243.347168,-17.51709,0,0
16059,2024 10 07,05:26:23.811,0.621969,0.299492,-0.714776,-0.112047,-2.40437,-5.12711,-1.366741,-162.475586,11.291504,-86.486816,0,0
16060,2024 10 07,05:26:23.819,0.629321,0.283045,-0.715242,-0.110767,-1.469283,-3.310648,-1.359905,-123.046875,-38.574219,-138.366699,0,0
16061,2024 10 07,05:26:23.827,0.617001,0.256657,-0.739415,-0.081868,0.806177,2.385326,-11.666861,98.266602,151.489258,-580.200195,0,1
16062,2024 10 07,05:26:23.836,0.645261,0.227395,-0.728192,-0.040811,0.786645,0.548845,7.977783,85.449219,-299.01123,-567.932129,0,0
16063,2024 10 07,05:26:23.844,0.62546,0.191898,-0.756195,-0.011959,-5.595386,-0.637226,-2.376049,-17.944336,325.256348,-563.171387,0,0
16064,2024 10 07,05:26:23.852,0.641319,0.154239,-0.751469,0.014665,-3.195898,-0.26075,-0.425794,-151.489258,-395.568848,-458.80127,0,0
16065,2024 10 07,05:26:23.861,0.641319,0.154239,-0.751469,0.014665,-3.195898,-0.26075,-0.425794,-151.489258,-395.568848,-458.80127,0,0
16066,2024 10 07,05:26:23.869,0.666666,0.120356,-0.735025,0.028445,-1.369671,-1.425825,-0.01709,-121.09375,-274.780273,-334.472656,0,0
16067,2024 10 07,05:26:23.877,0.675132,0.101387,-0.729686,0.038413,-2.878994,-1.473189,0.464858,-77.941895,-144.104004,-170.593262,0,0
16068,2024 10 07,05:26:23.886,0.688153,0.091804,-0.718468,0.042687,-1.053255,-0.413587,0.473159,-33.02002,-202.026367,-66.467285,0,0
16069,2024 10 07,05:26:23.894,0.696738,0.087092,-0.710593,0.045046,-0.492203,0.362804,0.055177,-25.57373,-125.061035,-43.762207,0,0
16070,2024 10 07,05:26:23.902,0.704271,0.080822,-0.703826,0.045822,-0.67629,-0.311533,0.052736,-47.973633,-122.680664,-47.119141,0,0
16071,2024 10 07,05:26:23.911,0.704271,0.080822,-0.703826,0.045822,-0.67629,-0.311533,0.052736,-47.973633,-122.680664,-47.119141,0,0
16072,2024 10 07,05:26:23.919,0.710172,0.076333,-0.698341,0.046356,-0.96878,-0.102054,-0.07178,-35.949707,-85.266113,-24.353027,0,0
16073,2024 10 07,05:26:23.927,0.715887,0.073081,-0.692886,0.045551,-0.823267,0.056154,-0.10303,-34.912109,-94.482422,-8.361816,0,0
16074,2024 10 07,05:26:23.936,0.720971,0.070537,-0.687924,0.044575,-0.661641,0.048341,-0.341319,-25.268555,-71.777344,-5.432129,0,0
16075,2024 10 07,05:26:23.944,0.723692,0.068575,-0.68534,0.043323,-0.915555,0.008301,-0.006348,-30.456543,-33.508301,-0.427246,0,0
16076,2024 10 07,05:26:23.952,0.725552,0.066879,-0.683618,0.042044,-0.940947,0.084475,-0.004395,-24.291992,-28.930664,-0.427246,0,0
16077,2024 10 07,05:26:23.961,0.725552,0.066879,-0.683618,0.042044,-0.940947,0.084475,-0.004395,-24.291992,-28.930664,-0.427246,0,0
16078,2024 10 07,05:26:23.969,0.727266,0.065202,-0.682031,0.040829,-0.904324,0.106449,-0.053713,-21.606445,-25.634766,-1.831055,0,0
16079,2024 10 07,05:26:23.977,0.728718,0.063631,-0.680686,0.039838,-0.927274,0.039064,-0.0918,-19.226074,-21.850586,-2.929688,0,0
16080,2024 10 07,05:26:23.986,0.730063,0.062464,-0.679382,0.039325,-0.938017,0.030763,-0.037111,-13.000488,-20.996094,-3.356934,0,0
16081,2024 10 07,05:26:23.994,0.73134,0.061735,-0.678068,0.039433,-0.881375,0.034181,-0.089358,-3.78418,-21.911621,-5.92041,0,0
16082,2024 10 07,05:26:24.002,0.732272,0.061376,-0.677059,0.040034,-0.895535,0.032228,-0.047365,3.356934,-13.73291,-6.896973,0,0
16083,2024 10 07,05:26:24.011,0.732272,0.061376,-0.677059,0.040034,-0.895535,0.032228,-0.047365,3.356934,-13.73291,-6.896973,0,0
16084,2024 10 07,05:26:24.019,0.732755,0.061428,-0.67647,0.041042,-0.905301,0.050783,-0.061525,9.94873,-8.361816,-7.568359,0,0
16085,2024 10 07,05:26:24.027,0.732961,0.061694,-0.67614,0.042383,-0.889676,0.090823,-0.074221,13.061523,-4.02832,-9.399414,0,0
16086,2024 10 07,05:26:24.036,0.732907,0.06186,-0.67609,0.043845,-0.890164,0.122074,-0.074709,12.573242,0.305176,-12.084961,0,0
16087,2024 10 07,05:26:24.044,0.732504,0.061754,-0.676436,0.045362,-0.921903,0.116214,-0.061525,10.009766,6.347656,-15.319824,0,0
16088,2024 10 07,05:26:24.052,0.732062,0.061369,-0.676846,0.046884,-0.926786,0.089846,-0.060549,8.666992,4.699707,-17.028809,0,0
16089,2024 10 07,05:26:24.061,0.732062,0.061369,-0.676846,0.046884,-0.926786,0.089846,-0.060549,8.666992,4.699707,-17.028809,0,0
16090,2024 10 07,05:26:24.069,0.731728,0.060884,-0.677139,0.048484,-0.936552,0.088382,-0.018555,8.117676,3.845215,-18.432617,0,0
16091,2024 10 07,05:26:24.077,0.731444,0.060217,-0.677401,0.04991,-0.951201,0.04297,-0.02588,4.882813,2.197266,-17.63916,0,0
16092,2024 10 07,05:26:24.086,0.7315,0.05952,-0.677303,0.05124,-0.937529,0.04297,-0.014649,4.02832,-4.455566,-15.991211,0,0
16093,2024 10 07,05:26:24.094,0.731955,0.058765,-0.676792,0.05235,-0.914579,0.046388,-0.058107,1.586914,-10.742188,-14.160156,0,0
16094,2024 10 07,05:26:24.102,0.732784,0.057911,-0.6759,0.053226,-0.876492,0.038575,-0.089358,-0.793457,-15.930176,-12.390137,0,0
16095,2024 10 07,05:26:24.111,0.732784,0.057911,-0.6759,0.053226,-0.876492,0.038575,-0.089358,-0.793457,-15.930176,-12.390137,0,0
16096,2024 10 07,05:26:24.119,0.733628,0.057055,-0.675001,0.053922,-0.858913,0.033692,-0.115726,-2.563477,-14.587402,-11.047363,0,0
16097,2024 10 07,05:26:24.127,0.734415,0.056231,-0.674169,0.05449,-0.865749,0.050295,-0.121097,-2.441406,-13.366699,-10.070801,0,0
16098,2024 10 07,05:26:24.136,0.735141,0.055385,-0.67341,0.054955,-0.918485,0.055177,-0.070315,-4.02832,-12.451172,-9.70459,0,0
16099,2024 10 07,05:26:24.144,0.735951,0.054385,-0.672581,0.055258,-0.948271,0.032228,-0.073244,-6.774902,-15.258789,-9.399414,0,0
16100,2024 10 07,05:26:24.152,0.737075,0.053275,-0.671417,0.05552,-0.942412,0.069338,-0.024903,-8.361816,-20.385742,-9.70459,0,0
16101,2024 10 07,05:26:24.161,0.737075,0.053275,-0.671417,0.05552,-0.942412,0.069338,-0.024903,-8.361816,-20.385742,-9.70459,0,0
16102,2024 10 07,05:26:24.169,0.738189,0.051922,-0.670288,0.055632,-0.947295,0.044923,-0.06299,-11.108398,-18.981934,-10.498047,0,0
16103,2024 10 07,05:26:24.177,0.739338,0.050461,-0.669125,0.055727,-0.926786,0.028809,-0.116214,-11.291504,-19.836426,-10.742188,0,0
16104,2024 10 07,05:26:24.186,0.740472,0.048994,-0.667959,0.055961,-0.917508,0.043458,-0.064455,-10.559082,-18.920898,-12.512207,0,0
16105,2024 10 07,05:26:24.194,0.741254,0.047376,-0.667182,0.056267,-0.987823,0.033692,-0.07178,-11.59668,-12.878418,-15.014648,0,0
16106,2024 10 07,05:26:24.202,0.74218,0.045546,-0.666242,0.05671,-0.937529,0.045412,-0.110843,-12.268066,-17.578125,-17.39502,0,0
16107,2024 10 07,05:26:24.211,0.74218,0.045546,-0.666242,0.05671,-0.937529,0.045412,-0.110843,-12.268066,-17.578125,-17.39502,0,0
16108,2024 10 07,05:26:24.219,0.742903,0.043541,-0.665515,0.057353,-0.988311,0.097659,-0.1377,-12.756348,-10.681152,-21.30127,0,0
16109,2024 10 07,05:26:24.227,0.743243,0.040915,-0.665234,0.058138,-1.039582,0.094729,-0.119144,-17.150879,-5.981445,-29.11377,0,0
16110,2024 10 07,05:26:24.236,0.743055,0.037747,-0.665503,0.059583,-1.17777,0.156743,-0.196295,-15.930176,4.211426,-40.893555,0,0
16111,2024 10 07,05:26:24.244,0.742167,0.033794,-0.666464,0.062231,-1.306192,0.144536,-0.21485,-12.573242,13.916016,-59.570313,0,0
16112,2024 10 07,05:26:24.252,0.740765,0.029066,-0.667823,0.0666,-1.448286,0.119144,-0.199225,-6.103516,17.944336,-81.420898,0,0
16113,2024 10 07,05:26:24.261,0.739178,0.023615,-0.669109,0.073148,-1.569384,0.159185,-0.159673,5.310059,15.380859,-106.140137,0,0
16114,2024 10 07,05:26:24.269,0.739178,0.023615,-0.669109,0.073148,-1.569384,0.159185,-0.159673,5.310059,15.380859,-106.140137,0,0
16115,2024 10 07,05:26:24.277,0.737817,0.01712,-0.669796,0.081892,-1.569872,0.170904,-0.072756,13.366699,6.164551,-133.178711,0,0
16116,2024 10 07,05:26:24.286,0.736395,0.009441,-0.670107,0.092684,-1.727103,0.150884,0.036622,20.385742,3.356934,-160.461426,0,0
16117,2024 10 07,05:26:24.294,0.734998,0.000459,-0.669759,0.105828,-1.786676,0.235359,0.089358,25.085449,-8.239746,-191.040039,0,0
16118,2024 10 07,05:26:24.302,0.734098,-0.01043,-0.66815,0.120698,-2.05475,0.333995,0.221686,24.047852,-25.634766,-220.397949,0,0
16119,2024 10 07,05:26:24.311,0.732891,-0.023619,-0.665709,0.138365,-2.541581,0.575701,0.059572,29.541016,-31.799316,-269.958496,0,0
16120,2024 10 07,05:26:24.319,0.732891,-0.023619,-0.665709,0.138365,-2.541581,0.575701,0.059572,29.541016,-31.799316,-269.958496,0,0
16121,2024 10 07,05:26:24.327,0.73172,-0.040264,-0.661381,0.159812,-2.945402,0.597674,0.454115,29.785156,-59.692383,-332.641602,0,0
16122,2024 10 07,05:26:24.336,0.731675,-0.061117,-0.653243,0.184903,-3.30723,0.803735,0.520035,29.846191,-116.210938,-396.179199,0,0
16123,2024 10 07,05:26:24.344,0.733866,-0.08744,-0.639193,0.212666,-3.872189,0.74514,0.708029,14.892578,-194.091797,-462.158203,0,0
16124,2024 10 07,05:26:24.352,0.736333,-0.118542,-0.620247,0.243012,-4.735496,0.76516,0.450209,8.850098,-242.492676,-524.780273,0,0
16125,2024 10 07,05:26:24.361,0.739898,-0.15411,-0.594682,0.274142,-4.568499,0.197272,0.472182,-4.821777,-332.275391,-563.354492,0,0
16126,2024 10 07,05:26:24.369,0.739898,-0.15411,-0.594682,0.274142,-4.568499,0.197272,0.472182,-4.821777,-332.275391,-563.354492,0,0
16127,2024 10 07,05:26:24.377,0.744163,-0.1919,-0.562537,0.304873,-3.204199,0.132328,1.023469,-2.258301,-369.750977,-575.683594,1,0
16128,2024 10 07,05:26:24.386,0.743131,-0.225768,-0.532827,0.335976,-4.196906,0.439955,0.92581,21.606445,-304.56543,-561.096191,0,0
16129,2024 10 07,05:26:24.394,0.744036,-0.260346,-0.497142,0.362602,-3.124119,1.207068,1.850154,12.756348,-404.296875,-540.588379,0,0
16130,2024 10 07,05:26:24.402,0.742036,-0.292292,-0.46174,0.388257,-3.029878,1.911679,1.727592,16.418457,-339.294434,-527.770996,0,0
16131,2024 10 07,05:26:24.411,0.736874,-0.322653,-0.427375,0.412628,-2.646077,2.527909,2.213446,15.319824,-326.965332,-522.827148,0,0
16132,2024 10 07,05:26:24.419,0.736874,-0.322653,-0.427375,0.412628,-2.646077,2.527909,2.213446,15.319824,-326.965332,-522.827148,0,0
16133,2024 10 07,05:26:24.427,0.730821,-0.349482,-0.393728,0.434443,-0.83694,3.082614,3.079684,20.690918,-318.786621,-461.486816,0,0
16134,2024 10 07,05:26:24.436,0.731527,-0.378097,-0.35926,0.439139,4.260384,3.150487,1.314005,-70.19043,-430.297852,-238.830566,0,0
16135,2024 10 07,05:26:24.444,0.732012,-0.387876,-0.353592,0.434376,0.798852,2.471267,-0.496597,-62.683105,-34.301758,71.044922,0,0
16136,2024 10 07,05:26:24.452,0.739308,-0.386973,-0.366454,0.411567,-0.850124,2.248116,1.794977,-136.291504,11.108398,349.365234,0,0
16137,2024 10 07,05:26:24.461,0.748656,-0.378693,-0.390578,0.378886,-2.200751,1.88287,0.666524,-153.625488,31.738281,480.041504,0,0
16138,2024 10 07,05:26:24.469,0.748656,-0.378693,-0.390578,0.378886,-2.200751,1.88287,0.666524,-153.625488,31.738281,480.041504,0,0
16139,2024 10 07,05:26:24.477,0.760929,-0.372499,-0.410225,0.337559,-1.374065,0.947783,1.663625,-153.930664,-46.99707,511.230469,0,0
16140,2024 10 07,05:26:24.486,0.770373,-0.361888,-0.431213,0.299362,-0.928739,0.648946,1.202185,-111.816406,25.085449,497.375488,0,0
16141,2024 10 07,05:26:24.494,0.77738,-0.346926,-0.452842,0.265059,-0.764672,0.521989,1.368694,-64.758301,75.683594,482.727051,0,0
16142,2024 10 07,05:26:24.502,0.782838,-0.327259,-0.474865,0.233598,-1.175817,0.668966,1.182653,-20.629883,96.008301,482.421875,0,0
16143,2024 10 07,05:26:24.511,0.788067,-0.305158,-0.494868,0.202326,-1.471236,0.704611,0.835963,2.624512,85.632324,482.421875,0,0
16144,2024 10 07,05:26:24.519,0.788067,-0.305158,-0.494868,0.202326,-1.471236,0.704611,0.835963,2.624512,85.632324,482.421875,0,0
16145,2024 10 07,05:26:24.527,0.793112,-0.28165,-0.512103,0.171454,-1.655324,0.753929,0.612323,19.165039,58.47168,473.876953,0,0
16146,2024 10 07,05:26:24.536,0.798557,-0.258438,-0.52533,0.1398,-1.364299,0.54152,0.697287,16.723633,18.249512,468.078613,0,0
16147,2024 10 07,05:26:24.544,0.803369,-0.235667,-0.536163,0.107648,-1.212439,0.255379,0.95706,11.657715,3.417969,464.416504,0,0
16148,2024 10 07,05:26:24.552,0.806252,-0.213021,-0.546588,0.076302,-1.087924,0.222175,1.033235,14.038086,21.728516,452.270508,0,0
16149,2024 10 07,05:26:24.561,0.806295,-0.190453,-0.558135,0.045838,-0.983917,0.170904,1.213416,7.751465,54.199219,447.20459,0,0
16150,2024 10 07,05:26:24.569,0.806295,-0.190453,-0.558135,0.045838,-0.983917,0.170904,1.213416,7.751465,54.199219,447.20459,0,0
16151,2024 10 07,05:26:24.577,0.80241,-0.168637,-0.572235,0.015686,-1.276894,0.249519,1.106967,-9.643555,106.689453,443.42041,0,0
16152,2024 10 07,05:26:24.586,0.794999,-0.148324,-0.588014,-0.014669,-1.574267,0.197272,1.175329,-34.606934,139.709473,436.096191,0,0
16153,2024 10 07,05:26:24.594,0.783889,-0.130177,-0.605436,-0.044944,-1.963439,0.061037,1.116733,-60.241699,180.419922,423.950195,0,0
16154,2024 10 07,05:26:24.602,0.769766,-0.114222,-0.623519,-0.075081,-2.271554,-0.080569,1.214881,-81.481934,205.078125,411.315918,0,0
16155,2024 10 07,05:26:24.611,0.752996,-0.100062,-0.641834,-0.10504,-2.462966,-0.356945,1.24662,-97.900391,226.44043,401.611328,0,0
16156,2024 10 07,05:26:24.619,0.752996,-0.100062,-0.641834,-0.10504,-2.462966,-0.356945,1.24662,-97.900391,226.44043,401.611328,0,0
16157,2024 10 07,05:26:24.627,0.733645,-0.086901,-0.660429,-0.134333,-2.570391,-0.72219,1.337931,-101.013184,252.624512,395.629883,0,0
16158,2024 10 07,05:26:24.636,0.711147,-0.073944,-0.679961,-0.162651,-2.989837,-1.080599,1.330607,-96.496582,285.15625,396.179199,0,0
16159,2024 10 07,05:26:24.644,0.686796,-0.060901,-0.698959,-0.189889,-3.451277,-1.632862,1.234413,-90.698242,287.353516,392.456055,0,0
16160,2024 10 07,05:26:24.652,0.662967,-0.048091,-0.71544,-0.215193,-3.628529,-2.382397,1.201209,-80.749512,261.535645,372.558594,0,0
16161,2024 10 07,05:26:24.661,0.640735,-0.036193,-0.729384,-0.236954,-3.362407,-3.109958,1.132847,-63.537598,235.839844,333.068848,0,0
16162,2024 10 07,05:26:24.669,0.619684,-0.026094,-0.7421,-0.254164,-2.852138,-3.538682,1.031281,-42.175293,232.055664,282.714844,0,0
16163,2024 10 07,05:26:24.677,0.619684,-0.026094,-0.7421,-0.254164,-2.852138,-3.538682,1.031281,-42.175293,232.055664,282.714844,0,0
16164,2024 10 07,05:26:24.686,0.598207,-0.019044,-0.755176,-0.267385,-2.523515,-3.65392,0.594745,-33.569336,254.02832,230.773926,0,0
16165,2024 10 07,05:26:24.694,0.576185,-0.016135,-0.768498,-0.277779,-2.256417,-3.695914,-0.113285,-40.161133,275.20752,176.025391,0,0
16166,2024 10 07,05:26:24.702,0.554301,-0.018293,-0.781463,-0.285886,-1.928282,-3.594836,-1.411664,-56.091309,296.325684,113.28125,0,0
16167,2024 10 07,05:26:24.711,0.532487,-0.025764,-0.794406,-0.291053,-2.200263,-3.568957,-2.388745,-62.438965,310.241699,43.09082,0,0
16168,2024 10 07,05:26:24.719,0.513432,-0.036353,-0.805053,-0.294883,-4.351695,-4.894192,-2.700278,-57.373047,275.634766,15.563965,0,0
16169,2024 10 07,05:26:24.727,0.513432,-0.036353,-0.805053,-0.294883,-4.351695,-4.894192,-2.700278,-57.373047,275.634766,15.563965,0,0
16170,2024 10 07,05:26:24.736,0.507814,-0.041762,-0.807972,-0.295909,-3.554796,-4.925443,-2.349681,-29.174805,43.518066,4.760742,0,0
16171,2024 10 07,05:26:24.744,0.516553,-0.042118,-0.803414,-0.29313,-1.763237,-4.590961,-1.452681,24.291992,-120.239258,-31.860352,0,0
16172,2024 10 07,05:26:24.752,0.52789,-0.041574,-0.79936,-0.283948,-1.209998,-3.354106,-1.145054,88.562012,-106.994629,-75.683594,0,0
16173,2024 10 07,05:26:24.761,0.528643,-0.049435,-0.813487,-0.23734,-4.842921,3.828242,-10.19367,446.105957,130.67627,-435.546875,1,0
16174,2024 10 07,05:26:24.769,0.598164,-0.053361,-0.766133,-0.228888,3.490829,1.867733,9.366009,86.303711,-983.398438,-333.374023,0,0
16175,2024 10 07,05:26:24.777,0.598164,-0.053361,-0.766133,-0.228888,3.490829,1.867733,9.366009,86.303711,-983.398438,-333.374023,0,0
16176,2024 10 07,05:26:24.786,0.600021,-0.083624,-0.766009,-0.21497,-2.136784,-1.15482,-4.723777,-219.482422,329.833984,-383.300781,0,0
16177,2024 10 07,05:26:24.794,0.607201,-0.116834,-0.759105,-0.203508,-4.234504,0.232917,0.612812,-184.814453,-210.327148,-364.746094,0,0
16178,2024 10 07,05:26:24.802,0.630123,-0.141708,-0.73375,-0.210888,-1.147984,-1.925352,-0.54152,-191.589355,-263.85498,-214.233398,0,0
16179,2024 10 07,05:26:24.811,0.642361,-0.152457,-0.721719,-0.20797,-1.853572,-0.315439,-0.525407,-61.523438,-166.931152,-128.295898,0,0
16180,2024 10 07,05:26:24.819,0.655298,-0.15966,-0.707604,-0.210688,-0.819849,-0.395032,0.543474,-91.369629,-174.072266,-82.214355,0,0
16181,2024 10 07,05:26:24.827,0.655298,-0.15966,-0.707604,-0.210688,-0.819849,-0.395032,0.543474,-91.369629,-174.072266,-82.214355,0,0
16182,2024 10 07,05:26:24.836,0.660844,-0.165755,-0.700454,-0.212546,-1.112339,-0.06006,-0.124027,-63.171387,-79.650879,-55.480957,0,0
16183,2024 10 07,05:26:24.844,0.667296,-0.169862,-0.692714,-0.214499,-0.660665,-0.186529,0.034181,-41.687012,-104.370117,-46.99707,0,0
16184,2024 10 07,05:26:24.852,0.672473,-0.1722,-0.687014,-0.2148,-1.00882,0.007813,0.026856,-25.57373,-74.768066,-35.644531,0,0
16185,2024 10 07,05:26:24.861,0.676986,-0.174164,-0.681595,-0.216299,-0.79397,-0.077639,-0.11182,-30.578613,-73.730469,-22.644043,0,0
16186,2024 10 07,05:26:24.869,0.680206,-0.175297,-0.678053,-0.216413,-0.674825,-0.018555,-0.423841,-4.150391,-39.489746,-23.010254,0,0
16187,2024 10 07,05:26:24.877,0.680206,-0.175297,-0.678053,-0.216413,-0.674825,-0.018555,-0.423841,-4.150391,-39.489746,-23.010254,0,0
16188,2024 10 07,05:26:24.886,0.681803,-0.17588,-0.676694,-0.215166,-0.764183,0.049318,-0.059572,4.394531,-9.277344,-19.226074,0,0
16189,2024 10 07,05:26:24.894,0.681637,-0.176768,-0.676982,-0.214054,-0.896023,0.059572,-0.107913,1.403809,10.803223,-13.427734,0,0
16190,2024 10 07,05:26:24.902,0.68104,-0.177652,-0.677687,-0.212989,-0.914579,0.081545,-0.057131,2.929688,17.883301,-12.634277,0,0
16191,2024 10 07,05:26:24.911,0.680035,-0.178628,-0.678938,-0.211395,-1.004913,0.079592,0.002441,5.554199,23.376465,-16.357422,0,0
16192,2024 10 07,05:26:24.919,0.679242,-0.179628,-0.680114,-0.209306,-1.001495,0.126957,0.039552,10.437012,22.155762,-20.874023,0,0
16193,2024 10 07,05:26:24.927,0.679242,-0.179628,-0.680114,-0.209306,-1.001495,0.126957,0.039552,10.437012,22.155762,-20.874023,0,0
