frame,date,time,quaternion_x,quaternion_y,quaternion_z,quaternion_w,accel_x,accel_y,accel_z,gyro_x,gyro_y,gyro_z,HS,TO
15287,2024 10 07,05:26:17.378,-0.634994,-0.509456,-0.216271,-0.538947,1.737846,1.043489,-1.66802,3.662109,68.54248,-118.530273,0,0
15288,2024 10 07,05:26:17.386,-0.634867,-0.509248,-0.213279,-0.540483,-0.280282,1.648976,-0.097659,-23.55957,-21.66748,81.970215,0,0
15289,2024 10 07,05:26:17.394,-0.626921,-0.513506,-0.203135,-0.549562,-0.575701,1.77398,-0.701682,0.854492,-33.996582,206.115723,0,0
15290,2024 10 07,05:26:17.403,-0.626921,-0.513506,-0.203135,-0.549562,-0.575701,1.77398,-0.701682,0.854492,-33.996582,206.115723,0,0
15291,2024 10 07,05:26:17.411,-0.613678,-0.522118,-0.189575,-0.561119,-1.037629,1.461959,-0.361827,34.790039,-51.330566,273.681641,0,0
15292,2024 10 07,05:26:17.419,-0.597651,-0.531831,-0.175542,-0.573719,-0.981964,1.177282,-0.69631,49.987793,-49.133301,291.381836,0,0
15293,2024 10 07,05:26:17.428,-0.581088,-0.54222,-0.16079,-0.585218,-0.78225,0.992706,-0.685568,50.537109,-67.016602,291.809082,0,0
15294,2024 10 07,05:26:17.436,-0.564582,-0.552825,-0.144542,-0.5956,-0.621601,0.881863,-0.690939,40.649414,-86.608887,296.386719,0,0
15295,2024 10 07,05:26:17.444,-0.548088,-0.563608,-0.125709,-0.605097,-0.595721,0.888699,-0.574725,24.414063,-111.14502,310.302734,0,0
15296,2024 10 07,05:26:17.453,-0.548088,-0.563608,-0.125709,-0.605097,-0.595721,0.888699,-0.574725,24.414063,-111.14502,310.302734,0,0
15297,2024 10 07,05:26:17.461,-0.531158,-0.574533,-0.103684,-0.61403,-0.668477,0.921415,-0.492691,7.446289,-135.437012,332.15332,0,0
15298,2024 10 07,05:26:17.469,-0.513283,-0.585564,-0.078504,-0.622489,-0.823267,0.937529,-0.303232,-5.615234,-155.395508,356.384277,0,0
15299,2024 10 07,05:26:17.478,-0.494206,-0.595919,-0.051142,-0.630893,-0.954131,0.900906,-0.227058,-15.808105,-159.667969,376.708984,0,0
15300,2024 10 07,05:26:17.486,-0.474162,-0.605306,-0.022374,-0.638964,-1.11771,0.796899,-0.12891,-23.55957,-162.414551,388.122559,0,0
15301,2024 10 07,05:26:17.494,-0.453606,-0.613552,0.007257,-0.646331,-1.186071,0.721213,-0.086428,-32.836914,-163.696289,392.150879,0,0
15302,2024 10 07,05:26:17.503,-0.43277,-0.620879,0.037627,-0.652536,-1.274941,0.654805,-0.0459,-41.564941,-170.654297,393.493652,0,0
15303,2024 10 07,05:26:17.511,-0.43277,-0.620879,0.037627,-0.652536,-1.274941,0.654805,-0.0459,-41.564941,-170.654297,393.493652,0,0
15304,2024 10 07,05:26:17.519,-0.411668,-0.627409,0.068818,-0.657383,-1.460982,0.609394,0.01709,-49.987793,-177.91748,395.263672,0,0
15305,2024 10 07,05:26:17.528,-0.390202,-0.632922,0.100601,-0.661084,-1.717338,0.529801,0.092776,-57.678223,-180.969238,397.888184,0,0
15306,2024 10 07,05:26:17.536,-0.368439,-0.637169,0.132682,-0.663825,-1.871151,0.479507,0.156255,-64.147949,-179.443359,399.597168,0,0
15307,2024 10 07,05:26:17.544,-0.346246,-0.640263,0.164871,-0.665578,-2.042054,0.46437,0.224128,-66.955566,-180.603027,402.099609,0,0
15308,2024 10 07,05:26:17.553,-0.323223,-0.642472,0.19686,-0.666335,-2.243232,0.412122,0.411145,-62.866211,-181.884766,405.395508,0,0
15309,2024 10 07,05:26:17.561,-0.323223,-0.642472,0.19686,-0.666335,-2.243232,0.412122,0.411145,-62.866211,-181.884766,405.395508,0,0
15310,2024 10 07,05:26:17.569,-0.299025,-0.643811,0.228177,-0.666353,-2.43611,0.222663,0.454604,-52.856445,-182.617188,410.217285,0,0
15311,2024 10 07,05:26:17.578,-0.273258,-0.644336,0.258708,-0.665756,-2.650471,-0.161138,0.471206,-38.757324,-181.70166,419.677734,0,0
15312,2024 10 07,05:26:17.586,-0.246094,-0.643775,0.288399,-0.664694,-2.84286,-0.810572,0.433607,-28.686523,-178.649902,428.894043,0,0
15313,2024 10 07,05:26:17.594,-0.218325,-0.642189,0.317178,-0.662816,-3.093356,-1.613819,0.443373,-25.024414,-176.818848,430.114746,0,0
15314,2024 10 07,05:26:17.603,-0.191608,-0.639798,0.344268,-0.659867,-3.317484,-2.484451,0.460952,-26.428223,-170.166016,409.118652,0,0
15315,2024 10 07,05:26:17.611,-0.191608,-0.639798,0.344268,-0.659867,-3.317484,-2.484451,0.460952,-26.428223,-170.166016,409.118652,0,0
15316,2024 10 07,05:26:17.619,-0.168127,-0.637764,0.368193,-0.655305,-3.335551,-3.186132,0.688009,-31.982422,-165.771484,353.33252,0,0
15317,2024 10 07,05:26:17.628,-0.149332,-0.637138,0.387391,-0.649372,-3.089938,-3.536729,0.938994,-32.165527,-158.630371,274.230957,0,0
15318,2024 10 07,05:26:17.636,-0.134967,-0.638136,0.401043,-0.643219,-2.648518,-3.878048,1.28666,-17.51709,-141.967773,196.350098,0,0
15319,2024 10 07,05:26:17.644,-0.124007,-0.640555,0.409258,-0.637824,-2.252022,-4.188604,1.561571,4.516602,-125.671387,130.432129,0,0
15320,2024 10 07,05:26:17.653,-0.115476,-0.644288,0.412641,-0.633471,-1.932676,-4.213508,1.692434,30.334473,-109.49707,75.561523,0,0
15321,2024 10 07,05:26:17.661,-0.115476,-0.644288,0.412641,-0.633471,-1.932676,-4.213508,1.692434,30.334473,-109.49707,75.561523,0,0
15322,2024 10 07,05:26:17.669,-0.109218,-0.649057,0.412001,-0.63012,-1.814508,-4.271126,1.703665,45.166016,-95.52002,25.939941,0,0
15323,2024 10 07,05:26:17.678,-0.105886,-0.654607,0.407811,-0.627669,-1.955626,-4.183233,1.614307,51.696777,-72.20459,-24.291992,0,0
15324,2024 10 07,05:26:17.686,-0.115333,-0.671427,0.398448,-0.614104,-4.201788,-2.506912,8.592059,-41.992188,-235.229492,-294.372559,1,0
15325,2024 10 07,05:26:17.694,-0.142083,-0.664118,0.379067,-0.628544,-0.485855,0.534684,-2.778893,-112.304688,413.879395,-273.254395,0,0
15326,2024 10 07,05:26:17.703,-0.158126,-0.664943,0.362205,-0.633762,-1.051302,1.245643,-0.122074,60.974121,-1.403809,-231.689453,0,0
15327,2024 10 07,05:26:17.711,-0.158126,-0.664943,0.362205,-0.633762,-1.051302,1.245643,-0.122074,60.974121,-1.403809,-231.689453,0,0
15328,2024 10 07,05:26:17.719,-0.169876,-0.671812,0.348882,-0.630946,-2.298898,0.11475,1.327677,30.517578,63.110352,-218.444824,0,0
15329,2024 10 07,05:26:17.728,-0.184975,-0.667204,0.330318,-0.641493,-1.089389,-0.470229,-0.337413,47.912598,213.378906,-207.458496,0,0
15330,2024 10 07,05:26:17.736,-0.196233,-0.665734,0.315238,-0.647237,-1.835505,-0.269051,0.797388,36.621094,116.271973,-162.780762,0,0
15331,2024 10 07,05:26:17.744,-0.206602,-0.658204,0.303854,-0.657082,-1.11185,-0.08301,-0.540544,23.986816,211.120605,-94.787598,0,0
15332,2024 10 07,05:26:17.753,-0.21009,-0.652517,0.293766,-0.666172,-1.089877,0.056154,-0.350597,81.970215,121.398926,-50.90332,0,0
15333,2024 10 07,05:26:17.761,-0.21009,-0.652517,0.293766,-0.666172,-1.089877,0.056154,-0.350597,81.970215,121.398926,-50.90332,0,0
15334,2024 10 07,05:26:17.769,-0.209091,-0.649223,0.284249,-0.67379,-1.172887,-0.187017,0.334971,99.609375,107.727051,-28.808594,0,0
15335,2024 10 07,05:26:17.778,-0.209217,-0.643681,0.276025,-0.682432,-0.822291,-0.095218,0.121586,64.575195,126.525879,-20.874023,0,0
15336,2024 10 07,05:26:17.786,-0.209626,-0.639621,0.270302,-0.688389,-0.990265,0.039552,-0.186041,51.025391,75.317383,-15.625,0,0
15337,2024 10 07,05:26:17.794,-0.208606,-0.63696,0.265281,-0.693103,-1.071322,0.004883,0.195807,56.45752,68.29834,-6.835938,0,0
15338,2024 10 07,05:26:17.803,-0.208082,-0.633137,0.260661,-0.698495,-0.820826,-0.065432,0.009278,40.95459,78.125,-4.882813,0,0
15339,2024 10 07,05:26:17.811,-0.208082,-0.633137,0.260661,-0.698495,-0.820826,-0.065432,0.009278,40.95459,78.125,-4.882813,0,0
15340,2024 10 07,05:26:17.819,-0.208278,-0.630693,0.257821,-0.701694,-0.863796,0.02588,0.161626,21.057129,40.100098,-6.958008,0,0
15341,2024 10 07,05:26:17.828,-0.208242,-0.6294,0.255898,-0.703567,-0.907254,-0.026368,0.166509,16.845703,25.939941,-4.577637,0,0
15342,2024 10 07,05:26:17.836,-0.208678,-0.628662,0.254888,-0.704464,-0.941923,0.023438,0.050783,2.563477,10.742188,-6.652832,0,0
15343,2024 10 07,05:26:17.844,-0.209349,-0.628726,0.254568,-0.704323,-1.013214,0.044435,0.091311,-3.967285,-0.183105,-8.422852,0,0
15344,2024 10 07,05:26:17.853,-0.210288,-0.628865,0.254495,-0.703947,-0.990265,0.042482,0.050783,-8.178711,-1.953125,-9.58252,0,0
15345,2024 10 07,05:26:17.861,-0.210288,-0.628865,0.254495,-0.703947,-0.990265,0.042482,0.050783,-8.178711,-1.953125,-9.58252,0,0
15346,2024 10 07,05:26:17.869,-0.21148,-0.629327,0.254697,-0.703103,-1.044465,0.062502,0.046388,-12.512207,-8.117676,-11.962891,0,0
15347,2024 10 07,05:26:17.878,-0.212904,-0.629749,0.254827,-0.702247,-1.100131,0.089358,0.013672,-12.390137,-4.150391,-14.343262,0,0
15348,2024 10 07,05:26:17.886,-0.214483,-0.629869,0.254513,-0.701773,-1.126987,0.094729,-0.036622,-8.972168,3.295898,-17.272949,0,0
15349,2024 10 07,05:26:17.894,-0.216232,-0.629597,0.253611,-0.701807,-1.128452,0.115238,-0.009766,-4.760742,12.878418,-20.629883,0,0
15350,2024 10 07,05:26:17.903,-0.217982,-0.62891,0.25201,-0.702458,-1.078646,0.051759,0.035646,2.13623,21.850586,-22.399902,0,0
15351,2024 10 07,05:26:17.911,-0.217982,-0.62891,0.25201,-0.702458,-1.078646,0.051759,0.035646,2.13623,21.850586,-22.399902,0,0
15352,2024 10 07,05:26:17.919,-0.21981,-0.627945,0.250179,-0.703406,-0.989776,0.017579,0.055177,0.671387,24.902344,-22.644043,0,0
15353,2024 10 07,05:26:17.928,-0.221808,-0.627093,0.248708,-0.704059,-0.981964,0.023927,0.072756,-3.78418,19.470215,-22.399902,0,0
15354,2024 10 07,05:26:17.936,-0.223908,-0.626461,0.247455,-0.704399,-1.001984,0.028321,0.069826,-6.347656,16.174316,-23.376465,0,0
15355,2024 10 07,05:26:17.944,-0.226188,-0.625955,0.246338,-0.704512,-1.001984,0.056154,0.084475,-8.850098,13.549805,-24.963379,0,0
15356,2024 10 07,05:26:17.953,-0.228367,-0.625595,0.245127,-0.704551,-1.035676,0.018555,0.079104,-6.103516,12.451172,-25.20752,0,0
15357,2024 10 07,05:26:17.961,-0.230508,-0.625208,0.243733,-0.704681,-1.015656,0.037111,0.053224,-3.78418,13.793945,-26.000977,0,0
15358,2024 10 07,05:26:17.969,-0.230508,-0.625208,0.243733,-0.704681,-1.015656,0.037111,0.053224,-3.78418,13.793945,-26.000977,0,0
15359,2024 10 07,05:26:17.978,-0.232507,-0.624851,0.242205,-0.704867,-0.985382,-0.006348,0.107913,-2.685547,13.671875,-25.57373,0,0
15360,2024 10 07,05:26:17.986,-0.234572,-0.624607,0.240852,-0.704863,-1.004425,0.008301,0.051759,-4.211426,10.009766,-25.634766,0,0
15361,2024 10 07,05:26:17.994,-0.236477,-0.62475,0.239413,-0.70459,-1.01175,0.007324,0.135746,-1.159668,5.310059,-26.977539,0,0
15362,2024 10 07,05:26:18.003,-0.238427,-0.624904,0.237832,-0.704332,-0.95706,0.039552,0.161138,-0.671387,6.408691,-28.320313,0,0
15363,2024 10 07,05:26:18.011,-0.240216,-0.625324,0.236039,-0.703954,-0.961943,0.017579,0.205084,3.234863,1.831055,-29.846191,0,0
15364,2024 10 07,05:26:18.019,-0.240216,-0.625324,0.236039,-0.703954,-0.961943,0.017579,0.205084,3.234863,1.831055,-29.846191,0,0
15365,2024 10 07,05:26:18.028,-0.24194,-0.626198,0.234136,-0.703223,-1.104038,-0.001465,0.035157,1.831055,-4.699707,-32.897949,0,0
15366,2024 10 07,05:26:18.036,-0.244325,-0.627248,0.232353,-0.702052,-1.167028,0.006836,0.06006,-4.638672,-3.540039,-39.550781,0,0
15367,2024 10 07,05:26:18.044,-0.247532,-0.627797,0.230345,-0.701099,-1.151891,-0.010743,0.076174,-8.483887,4.943848,-46.203613,0,0
15368,2024 10 07,05:26:18.053,-0.251793,-0.628225,0.228054,-0.699947,-1.260292,-0.021485,0.021973,-17.456055,5.310059,-58.59375,0,0
15369,2024 10 07,05:26:18.061,-0.257367,-0.628776,0.225706,-0.698183,-1.328166,0.02002,0.033692,-26.855469,5.615234,-71.105957,0,0
15370,2024 10 07,05:26:18.069,-0.257367,-0.628776,0.225706,-0.698183,-1.328166,0.02002,0.033692,-26.855469,5.615234,-71.105957,0,0
15371,2024 10 07,05:26:18.078,-0.263958,-0.629093,0.222899,-0.696337,-1.202673,0.018067,0.028809,-28.747559,10.986328,-81.970215,0,0
15372,2024 10 07,05:26:18.086,-0.271042,-0.629696,0.219629,-0.694105,-1.268105,0.11182,0.287606,-27.893066,6.530762,-91.186523,0,0
15373,2024 10 07,05:26:18.094,-0.278497,-0.630022,0.215309,-0.692209,-1.35844,0.115238,0.195318,-20.507813,18.188477,-100.463867,0,0
15374,2024 10 07,05:26:18.103,-0.286336,-0.630511,0.209861,-0.690237,-1.457076,0.079592,0.096683,-16.052246,18.188477,-113.830566,0,0
15375,2024 10 07,05:26:18.111,-0.294923,-0.631194,0.203216,-0.687981,-1.49028,0.135746,0.195318,-11.352539,22.460938,-130.310059,0,0
15376,2024 10 07,05:26:18.119,-0.294923,-0.631194,0.203216,-0.687981,-1.49028,0.135746,0.195318,-11.352539,22.460938,-130.310059,0,0
15377,2024 10 07,05:26:18.128,-0.304101,-0.631977,0.195007,-0.685639,-1.472701,0.193365,0.247566,-1.403809,26.916504,-146.972656,0,0
15378,2024 10 07,05:26:18.136,-0.313284,-0.63328,0.18482,-0.683119,-1.581103,0.267586,0.278817,17.456055,26.245117,-164.733887,0,0
15379,2024 10 07,05:26:18.144,-0.322753,-0.635564,0.172422,-0.679823,-1.822321,0.284677,0.235359,33.569336,22.949219,-190.551758,0,0
15380,2024 10 07,05:26:18.153,-0.33336,-0.63786,0.157343,-0.676202,-2.006897,0.316904,0.112308,42.724609,36.92627,-223.327637,0,0
15381,2024 10 07,05:26:18.161,-0.346418,-0.640151,0.139795,-0.671311,-2.41316,0.383312,0.013672,41.503906,40.161133,-268.249512,0,0
15382,2024 10 07,05:26:18.169,-0.346418,-0.640151,0.139795,-0.671311,-2.41316,0.383312,0.013672,41.503906,40.161133,-268.249512,0,0
15383,2024 10 07,05:26:18.178,-0.362349,-0.642314,0.119191,-0.664777,-2.95468,0.476089,-0.311533,39.978027,46.386719,-323.791504,0,0
15384,2024 10 07,05:26:18.186,-0.382301,-0.643837,0.095378,-0.655914,-3.606067,0.657247,-0.281747,23.681641,59.997559,-391.906738,0,0
15385,2024 10 07,05:26:18.194,-0.406245,-0.64231,0.066314,-0.646533,-4.420545,0.814966,-0.169927,20.812988,115.844727,-463.989258,0,0
15386,2024 10 07,05:26:18.203,-0.433235,-0.636922,0.03094,-0.636931,-4.412732,0.482925,-0.271981,33.203125,177.490234,-531.860352,0,0
15387,2024 10 07,05:26:18.211,-0.461733,-0.628204,-0.00961,-0.626155,-4.003052,-0.216315,-0.47853,44.799805,202.270508,-578.613281,0,0
15388,2024 10 07,05:26:18.219,-0.461733,-0.628204,-0.00961,-0.626155,-4.003052,-0.216315,-0.47853,44.799805,202.270508,-578.613281,0,0
15389,2024 10 07,05:26:18.228,-0.491488,-0.617486,-0.050789,-0.612022,-3.47618,0.205573,-0.159673,8.728027,198.181152,-602.783203,0,1
15390,2024 10 07,05:26:18.236,-0.52104,-0.604062,-0.089992,-0.596262,-3.934202,0.853053,-0.538102,3.540039,192.260742,-590.087891,0,0
15391,2024 10 07,05:26:18.244,-0.54723,-0.589568,-0.127857,-0.580173,-3.361919,1.047395,-0.972198,5.249023,193.17627,-566.345215,0,0
15392,2024 10 07,05:26:18.253,-0.57208,-0.574755,-0.163036,-0.561961,-2.173406,1.560106,-1.123081,-8.544922,155.883789,-553.100586,0,0
15393,2024 10 07,05:26:18.261,-0.596437,-0.560528,-0.192942,-0.541151,-1.336467,1.661672,-1.426801,-33.02002,92.834473,-518.005371,0,0
15394,2024 10 07,05:26:18.269,-0.596437,-0.560528,-0.192942,-0.541151,-1.336467,1.661672,-1.426801,-33.02002,92.834473,-518.005371,0,0
15395,2024 10 07,05:26:18.278,-0.62098,-0.545631,-0.212872,-0.520919,2.455641,2.886318,-2.335521,-126.708984,41.19873,-423.706055,0,0
15396,2024 10 07,05:26:18.286,-0.636097,-0.537292,-0.216942,-0.509542,1.494186,1.995666,-1.896054,-85.449219,-93.444824,-127.01416,0,0
15397,2024 10 07,05:26:18.294,-0.639294,-0.538843,-0.200114,-0.51079,-1.04593,3.214942,0.729514,-93.383789,-99.182129,168.395996,0,0
15398,2024 10 07,05:26:18.303,-0.628207,-0.543164,-0.182155,-0.526448,-1.215369,2.734458,-0.811548,-14.099121,-44.311523,317.504883,0,0
15399,2024 10 07,05:26:18.311,-0.610299,-0.552748,-0.163757,-0.543313,-1.308145,1.919981,-0.168462,45.227051,-27.648926,357.60498,0,0
15400,2024 10 07,05:26:18.319,-0.610299,-0.552748,-0.163757,-0.543313,-1.308145,1.919981,-0.168462,45.227051,-27.648926,357.60498,0,0
15401,2024 10 07,05:26:18.328,-0.59089,-0.560957,-0.14832,-0.560516,-0.688009,1.408734,-1.142125,54.870605,-18.676758,339.294434,0,0
15402,2024 10 07,05:26:18.336,-0.572423,-0.570731,-0.131736,-0.573798,-0.354015,1.214881,-0.761254,51.452637,-62.011719,322.32666,0,0
15403,2024 10 07,05:26:18.344,-0.554845,-0.580593,-0.113206,-0.585015,-0.209967,1.153844,-1.005402,34.545898,-94.299316,322.021484,0,0
15404,2024 10 07,05:26:18.353,-0.537401,-0.591621,-0.090586,-0.594121,-0.474624,1.180212,-0.600604,16.479492,-140.50293,340.820313,0,0
15405,2024 10 07,05:26:18.361,-0.518986,-0.601925,-0.064912,-0.603429,-0.720237,1.14066,-0.554704,-1.403809,-142.822266,368.713379,0,0
15406,2024 10 07,05:26:18.369,-0.518986,-0.601925,-0.064912,-0.603429,-0.720237,1.14066,-0.554704,-1.403809,-142.822266,368.713379,0,0
15407,2024 10 07,05:26:18.378,-0.499238,-0.610894,-0.036786,-0.613365,-0.930692,1.013703,-0.40968,-16.357422,-142.883301,396.118164,0,0
15408,2024 10 07,05:26:18.386,-0.478392,-0.61795,-0.006794,-0.623884,-1.02298,0.864284,-0.365734,-33.508301,-133.544922,417.541504,0,0
15409,2024 10 07,05:26:18.394,-0.456987,-0.62312,0.024897,-0.634243,-1.037141,0.750023,-0.311045,-52.124023,-134.155273,430.969238,0,0
15410,2024 10 07,05:26:18.403,-0.43535,-0.627104,0.058346,-0.643278,-1.183142,0.646992,-0.260262,-69.152832,-147.155762,437.561035,0,0
15411,2024 10 07,05:26:18.411,-0.413682,-0.629916,0.093208,-0.650681,-1.38432,0.559099,-0.174322,-86.181641,-154.11377,440.063477,0,0
15412,2024 10 07,05:26:18.419,-0.392033,-0.631513,0.128834,-0.656432,-1.662648,0.442396,-0.22071,-98.022461,-164.245605,437.988281,0,0
15413,2024 10 07,05:26:18.428,-0.392033,-0.631513,0.128834,-0.656432,-1.662648,0.442396,-0.22071,-98.022461,-164.245605,437.988281,0,0
15414,2024 10 07,05:26:18.436,-0.370444,-0.632277,0.165069,-0.660113,-1.953673,0.422376,-0.055177,-110.473633,-172.058105,434.387207,0,0
15415,2024 10 07,05:26:18.444,-0.348654,-0.63182,0.201676,-0.662246,-2.158757,0.471206,-0.058596,-118.469238,-178.710938,436.340332,0,0
15416,2024 10 07,05:26:18.453,-0.325966,-0.630566,0.238705,-0.662685,-2.475173,0.556658,0.097659,-120.666504,-188.171387,442.138672,0,0
15417,2024 10 07,05:26:18.461,-0.302018,-0.628792,0.275455,-0.661461,-2.879971,0.463881,0.206061,-114.074707,-202.575684,443.725586,0,0
15418,2024 10 07,05:26:18.469,-0.276915,-0.62701,0.311116,-0.658318,-3.305765,-0.052736,0.347179,-102.539063,-214.782715,438.415527,0,0
15419,2024 10 07,05:26:18.478,-0.276915,-0.62701,0.311116,-0.658318,-3.305765,-0.052736,0.347179,-102.539063,-214.782715,438.415527,0,0
15420,2024 10 07,05:26:18.486,-0.251483,-0.625215,0.344911,-0.653375,-3.65392,-0.896023,0.344737,-93.688965,-224.304199,424.194336,0,0
15421,2024 10 07,05:26:18.494,-0.226622,-0.623866,0.376229,-0.646441,-3.766228,-1.806696,0.558123,-86.364746,-233.215332,397.583008,0,0
15422,2024 10 07,05:26:18.503,-0.2031,-0.623492,0.404304,-0.637609,-3.872677,-2.64803,0.811548,-75.98877,-241.333008,358.459473,0,0
15423,2024 10 07,05:26:18.511,-0.181667,-0.624599,0.427801,-0.627582,-3.773553,-3.316019,1.3726,-57.128906,-239.013672,300.170898,0,0
15424,2024 10 07,05:26:18.519,-0.163676,-0.627615,0.444621,-0.617755,-3.054781,-3.775994,2.073305,-25.146484,-221.984863,215.820313,0,0
15425,2024 10 07,05:26:18.528,-0.163676,-0.627615,0.444621,-0.617755,-3.054781,-3.775994,2.073305,-25.146484,-221.984863,215.820313,0,0
15426,2024 10 07,05:26:18.536,-0.148644,-0.63329,0.45378,-0.609042,-2.521073,-4.243782,2.700766,20.385742,-206.604004,131.774902,0,0
15427,2024 10 07,05:26:18.544,-0.135805,-0.640368,0.45565,-0.603215,-2.627033,-4.552873,3.105564,75.927734,-164.855957,67.932129,0,0
15428,2024 10 07,05:26:18.553,-0.126281,-0.645537,0.451507,-0.60289,-2.563066,-5.01529,2.596271,108.947754,-78.857422,26.428223,0,0
15429,2024 10 07,05:26:18.561,-0.12146,-0.648256,0.444068,-0.606477,-2.217841,-5.355144,2.129948,108.825684,-2.197266,-10.314941,0,0
15430,2024 10 07,05:26:18.569,-0.12379,-0.650656,0.435441,-0.609683,-10.771813,-1.997131,-6.323436,37.353516,11.169434,-81.176758,0,0
15431,2024 10 07,05:26:18.578,-0.12379,-0.650656,0.435441,-0.609683,-10.771813,-1.997131,-6.323435,37.353516,11.169434,-81.176758,0,0
15432,2024 10 07,05:26:18.586,-0.1433,-0.659248,0.415539,-0.610069,-1.046906,-4.583636,0.184576,209.716797,311.950684,-287.04834,0,0
15433,2024 10 07,05:26:18.594,-0.185656,-0.643279,0.397781,-0.627291,1.729545,4.001586,-3.307718,-26.062012,378.662109,-309.448242,1,0
15434,2024 10 07,05:26:18.603,-0.191735,-0.657441,0.378758,-0.622536,-2.903409,1.846736,4.458143,43.945313,-93.994141,-283.508301,0,0
15435,2024 10 07,05:26:18.611,-0.208771,-0.655195,0.35443,-0.633651,-0.782739,-0.427259,0.108402,95.703125,262.023926,-270.446777,0,0
15436,2024 10 07,05:26:18.619,-0.21995,-0.658024,0.331805,-0.639165,-2.253975,-0.815455,1.928282,99.67041,75.561523,-229.370117,0,0
15437,2024 10 07,05:26:18.628,-0.21995,-0.658024,0.331805,-0.639165,-2.253975,-0.815455,1.928282,99.67041,75.561523,-229.370117,0,0
15438,2024 10 07,05:26:18.636,-0.233035,-0.651415,0.317089,-0.648697,-1.517624,-0.331553,-0.569353,-1.586914,251.953125,-128.356934,0,0
15439,2024 10 07,05:26:18.644,-0.240303,-0.643869,0.30668,-0.65851,-0.978057,0.234382,-0.949736,57.434082,139.648438,-63.598633,0,0
15440,2024 10 07,05:26:18.653,-0.237855,-0.64303,0.296723,-0.66475,-1.340373,-0.31251,0.804712,131.286621,77.453613,-25.756836,0,0
15441,2024 10 07,05:26:18.661,-0.23749,-0.637636,0.287651,-0.674,-0.539567,-0.396008,0.072756,59.570313,134.765625,-19.287109,0,0
15442,2024 10 07,05:26:18.669,-0.240018,-0.635135,0.284416,-0.676833,-1.009308,0.137211,-0.2378,4.02832,28.442383,-25.634766,0,0
15443,2024 10 07,05:26:18.678,-0.240018,-0.635135,0.284416,-0.676833,-1.009308,0.137211,-0.2378,4.02832,28.442383,-25.634766,0,0
15444,2024 10 07,05:26:18.686,-0.240236,-0.634461,0.28138,-0.678654,-1.28959,0.062014,0.18067,36.560059,41.442871,-13.793945,0,0
15445,2024 10 07,05:26:18.694,-0.240727,-0.631007,0.276834,-0.683552,-0.815455,-0.105472,-0.140141,31.677246,78.857422,-12.756348,0,0
15446,2024 10 07,05:26:18.703,-0.242337,-0.628887,0.274442,-0.685898,-0.900906,0.033204,0.24366,3.234863,35.03418,-16.113281,0,0
15447,2024 10 07,05:26:18.711,-0.243368,-0.627697,0.272762,-0.687292,-0.916532,0.000977,0.094729,8.178711,24.719238,-11.413574,0,0
15448,2024 10 07,05:26:18.719,-0.244468,-0.627093,0.271624,-0.687902,-1.025422,0.049318,0.006348,-1.708984,12.939453,-13.85498,0,0
15449,2024 10 07,05:26:18.728,-0.244468,-0.627093,0.271624,-0.687902,-1.025422,0.049318,0.006348,-1.708984,12.939453,-13.85498,0,0
15450,2024 10 07,05:26:18.736,-0.245635,-0.626835,0.270637,-0.688111,-1.1348,0.054689,0.025391,0.12207,10.742188,-14.953613,0,0
15451,2024 10 07,05:26:18.744,-0.246865,-0.626171,0.269171,-0.688851,-1.189489,0.105472,-0.051271,4.760742,22.521973,-16.723633,0,0
15452,2024 10 07,05:26:18.753,-0.248141,-0.624929,0.266773,-0.69045,-1.187048,0.08594,-0.093753,13.977051,35.583496,-19.836426,0,0
15453,2024 10 07,05:26:18.761,-0.249339,-0.623239,0.263558,-0.692777,-1.097201,-0.014161,-0.009766,19.836426,46.875,-21.240234,0,0
15454,2024 10 07,05:26:18.769,-0.251021,-0.621022,0.260274,-0.695397,-0.908231,-0.005371,0.102542,14.953613,51.147461,-22.521973,0,0
15455,2024 10 07,05:26:18.778,-0.251021,-0.621022,0.260274,-0.695397,-0.908231,-0.005371,0.102542,14.953613,51.147461,-22.521973,0,0
15456,2024 10 07,05:26:18.786,-0.252617,-0.619077,0.257291,-0.69766,-0.912137,-0.009766,0.130863,14.099121,42.297363,-20.935059,0,0
15457,2024 10 07,05:26:18.794,-0.254077,-0.617495,0.254577,-0.699525,-0.98001,0.019044,0.111332,12.512207,36.987305,-20.507813,0,0
15458,2024 10 07,05:26:18.803,-0.255408,-0.616073,0.251791,-0.7013,-0.981964,0.002441,0.123539,13.73291,35.461426,-20.996094,0,0
15459,2024 10 07,05:26:18.811,-0.256813,-0.614865,0.24919,-0.702775,-1.025422,0.035157,0.08594,11.169434,30.334473,-22.033691,0,0
15460,2024 10 07,05:26:18.819,-0.258246,-0.613835,0.246514,-0.704093,-1.105014,0.031251,0.009766,10.864258,30.151367,-24.291992,0,0
15461,2024 10 07,05:26:18.828,-0.25989,-0.612848,0.243781,-0.705298,-1.064974,0.005371,0.035157,10.864258,29.907227,-26.489258,0,0
15462,2024 10 07,05:26:18.836,-0.25989,-0.612848,0.243781,-0.705298,-1.064974,0.005371,0.035157,10.864258,29.907227,-26.489258,0,0
15463,2024 10 07,05:26:18.844,-0.261848,-0.611986,0.241035,-0.706266,-1.053255,0.0,0.116214,6.958008,26.428223,-30.883789,0,0
15464,2024 10 07,05:26:18.853,-0.263921,-0.611713,0.238248,-0.706676,-1.059114,-0.02295,0.137211,7.507324,17.089844,-35.522461,0,0
15465,2024 10 07,05:26:18.861,-0.266127,-0.611742,0.235186,-0.706849,-1.146031,0.014649,0.136723,8.605957,14.953613,-40.283203,0,0
15466,2024 10 07,05:26:18.869,-0.268957,-0.611906,0.232012,-0.706685,-1.106967,-0.02295,0.232917,4.02832,17.089844,-48.034668,0,0
15467,2024 10 07,05:26:18.878,-0.272707,-0.611927,0.228599,-0.706342,-1.326701,0.031251,0.032228,-0.305176,14.892578,-58.47168,0,0
15468,2024 10 07,05:26:18.886,-0.272707,-0.611927,0.228599,-0.706342,-1.326701,0.031251,0.032228,-0.305176,14.892578,-58.47168,0,0
15469,2024 10 07,05:26:18.894,-0.277944,-0.612963,0.22546,-0.704409,-1.326212,0.08887,0.394055,-15.075684,0.610352,-78.735352,0,0
15470,2024 10 07,05:26:18.903,-0.284671,-0.613644,0.221427,-0.702406,-1.470748,0.06885,0.08301,-20.263672,10.437012,-95.947266,0,0
15471,2024 10 07,05:26:18.911,-0.293134,-0.614728,0.217026,-0.699343,-1.482955,0.177252,0.331065,-28.320313,6.408691,-118.164063,0,0
15472,2024 10 07,05:26:18.919,-0.302837,-0.616206,0.211355,-0.695636,-1.539598,0.15479,0.24366,-28.320313,3.173828,-141.235352,0,0
15473,2024 10 07,05:26:18.928,-0.313947,-0.61815,0.204552,-0.691003,-1.697806,0.276864,0.282235,-26.245117,1.708984,-165.222168,0,0
15474,2024 10 07,05:26:18.936,-0.313947,-0.61815,0.204552,-0.691003,-1.697806,0.276864,0.282235,-26.245117,1.708984,-165.222168,0,0
15475,2024 10 07,05:26:18.944,-0.326045,-0.620655,0.195753,-0.685685,-1.913144,0.221686,0.140141,-18.066406,3.662109,-193.17627,0,0
15476,2024 10 07,05:26:18.953,-0.339667,-0.622915,0.184516,-0.680116,-2.011292,0.270516,-0.024903,-9.216309,20.996094,-223.083496,0,0
15477,2024 10 07,05:26:18.961,-0.354182,-0.624857,0.170184,-0.674645,-2.200263,0.403821,0.074221,9.399414,38.085938,-251.464844,0,0
15478,2024 10 07,05:26:18.969,-0.370119,-0.626266,0.152028,-0.669096,-2.661214,0.684103,0.282723,24.414063,61.828613,-297.302246,0,0
15479,2024 10 07,05:26:18.978,-0.389059,-0.627531,0.129424,-0.661882,-3.108493,0.856471,0.140629,35.15625,74.035645,-365.234375,0,0
15480,2024 10 07,05:26:18.986,-0.389059,-0.627531,0.129424,-0.661882,-3.108493,0.856471,0.140629,35.15625,74.035645,-365.234375,0,0
15481,2024 10 07,05:26:18.994,-0.411083,-0.62857,0.101583,-0.652373,-3.409772,0.916044,-0.037111,49.194336,80.749512,-440.246582,0,0
15482,2024 10 07,05:26:19.003,-0.436874,-0.628855,0.068687,-0.639503,-4.44789,1.048372,0.298349,50.598145,102.905273,-525.085449,0,0
15483,2024 10 07,05:26:19.011,-0.465784,-0.625928,0.029096,-0.62483,-4.877102,1.030305,0.337901,57.189941,155.578613,-605.163574,0,0
15484,2024 10 07,05:26:19.019,-0.49581,-0.619574,-0.016376,-0.608302,-4.912747,0.387219,-0.063967,80.810547,188.964844,-658.14209,0,0
15485,2024 10 07,05:26:19.028,-0.526398,-0.609444,-0.064427,-0.589349,-4.091922,1.099643,-0.087893,52.79541,218.87207,-689.941406,0,0
15486,2024 10 07,05:26:19.036,-0.526398,-0.609444,-0.064427,-0.589349,-4.091922,1.099643,-0.087893,52.79541,218.87207,-689.941406,0,0
15487,2024 10 07,05:26:19.044,-0.555866,-0.596523,-0.112456,-0.567914,-4.213996,1.46733,-0.522477,63.598633,210.9375,-691.223145,0,1
15488,2024 10 07,05:26:19.053,-0.581028,-0.583072,-0.158505,-0.54526,-3.627552,1.62212,-0.598651,72.509766,195.3125,-651.733398,0,0
15489,2024 10 07,05:26:19.061,-0.601463,-0.569753,-0.201559,-0.522491,-2.844325,1.71099,-0.933134,78.308105,182.617188,-598.022461,0,0
15490,2024 10 07,05:26:19.069,-0.618903,-0.555089,-0.235666,-0.503286,0.477554,2.40144,-2.4073,5.92041,160.217285,-459.777832,0,0
15491,2024 10 07,05:26:19.078,-0.625329,-0.541494,-0.2574,-0.499492,2.264229,2.508377,-2.366771,35.15625,199.035645,-151.916504,0,0
15492,2024 10 07,05:26:19.086,-0.625329,-0.541494,-0.2574,-0.499492,2.264229,2.508377,-2.366771,35.15625,199.035645,-151.916504,0,0
15493,2024 10 07,05:26:19.094,-0.621276,-0.541185,-0.254995,-0.506075,-1.507859,3.262795,0.951689,-93.62793,6.164551,168.945313,0,0
15494,2024 10 07,05:26:19.103,-0.603585,-0.542082,-0.245967,-0.530408,-1.743217,2.228095,-1.416547,18.676758,173.950195,344.116211,0,0
15495,2024 10 07,05:26:19.111,-0.58221,-0.544772,-0.237212,-0.554964,-1.780328,1.29252,-0.562029,43.762207,129.882813,350.830078,0,0
15496,2024 10 07,05:26:19.119,-0.561364,-0.545542,-0.230295,-0.578116,-1.165075,0.91702,-1.343303,21.911621,163.208008,310.72998,0,0
15497,2024 10 07,05:26:19.128,-0.542431,-0.545352,-0.222852,-0.598913,-0.238777,0.746117,-1.696829,-3.356934,121.765137,299.499512,0,0
15498,2024 10 07,05:26:19.136,-0.542431,-0.545352,-0.222852,-0.598913,-0.238777,0.746117,-1.696829,-3.356934,121.765137,299.499512,0,0
15499,2024 10 07,05:26:19.144,-0.52487,-0.546082,-0.209903,-0.61826,-0.065432,0.786645,-1.517136,-38.696289,75.561523,330.993652,0,0
15500,2024 10 07,05:26:19.153,-0.506794,-0.547715,-0.190745,-0.637797,-0.325205,0.944365,-1.28959,-72.998047,30.334473,379.333496,0,0
15501,2024 10 07,05:26:19.161,-0.487049,-0.550162,-0.165996,-0.657685,-0.746605,1.024934,-1.030305,-94.848633,8.178711,427.91748,0,0
15502,2024 10 07,05:26:19.169,-0.464431,-0.551821,-0.138129,-0.678762,-1.043977,0.925321,-0.903348,-101.257324,14.831543,471.008301,0,0
15503,2024 10 07,05:26:19.178,-0.438818,-0.552044,-0.108841,-0.700599,-1.113804,0.759301,-0.758324,-100.280762,30.273438,500.671387,0,0
15504,2024 10 07,05:26:19.186,-0.438818,-0.552044,-0.108841,-0.700599,-1.113804,0.759301,-0.758324,-100.280762,30.273438,500.671387,0,0
15505,2024 10 07,05:26:19.194,-0.410936,-0.551152,-0.078797,-0.72191,-0.874538,0.614277,-0.881863,-96.862793,26.550293,517.39502,0,0
15506,2024 10 07,05:26:19.203,-0.381404,-0.551044,-0.047606,-0.740686,-0.746605,0.518571,-0.85403,-89.477539,-2.807617,526.916504,0,0
15507,2024 10 07,05:26:19.211,-0.350718,-0.552352,-0.015317,-0.756088,-0.803247,0.526383,-0.89407,-82.03125,-45.10498,528.625488,0,0
15508,2024 10 07,05:26:19.219,-0.31917,-0.555657,0.017546,-0.767508,-1.243202,0.400403,-0.875515,-72.20459,-86.975098,520.874023,0,0
15509,2024 10 07,05:26:19.228,-0.287465,-0.560669,0.04972,-0.774946,-1.683157,0.241707,-0.855983,-59.509277,-122.253418,500.671387,0,0
15510,2024 10 07,05:26:19.236,-0.287465,-0.560669,0.04972,-0.774946,-1.683157,0.241707,-0.855983,-59.509277,-122.253418,500.671387,0,0
15511,2024 10 07,05:26:19.244,-0.25599,-0.566837,0.080594,-0.77889,-1.942442,0.178228,-0.978057,-46.875,-147.888184,479.125977,0,0
15512,2024 10 07,05:26:19.253,-0.224401,-0.574505,0.110022,-0.779412,-2.279366,0.200201,-0.826197,-30.578613,-180.603027,460.876465,0,0
15513,2024 10 07,05:26:19.261,-0.192041,-0.583931,0.13746,-0.776691,-2.685141,0.222663,-0.654317,-4.638672,-214.050293,445.556641,0,0
15514,2024 10 07,05:26:19.269,-0.158045,-0.595056,0.162595,-0.771034,-3.111911,-0.032228,-0.63039,28.137207,-247.131348,439.147949,0,0
15515,2024 10 07,05:26:19.278,-0.121745,-0.607879,0.185175,-0.762477,-3.473251,-0.706565,-0.651387,63.964844,-281.494141,437.5,0,0
15516,2024 10 07,05:26:19.286,-0.083678,-0.622022,0.205439,-0.75092,-3.62804,-1.675344,-0.829615,87.097168,-315.368652,434.692383,0,0
15517,2024 10 07,05:26:19.294,-0.083678,-0.622022,0.205439,-0.75092,-3.62804,-1.675344,-0.829615,87.097168,-315.368652,434.692383,0,0
15518,2024 10 07,05:26:19.303,-0.045474,-0.637865,0.223583,-0.735575,-3.548448,-2.745689,-0.553728,95.092773,-356.140137,413.208008,0,0
15519,2024 10 07,05:26:19.311,-0.011204,-0.656373,0.237883,-0.715864,-3.579699,-3.52208,-0.127445,84.777832,-410.644531,332.275391,0,0
15520,2024 10 07,05:26:19.319,0.016809,-0.679889,0.246228,-0.690536,-4.632954,-4.102664,1.049837,73.181152,-468.078613,224.365234,0,0
15521,2024 10 07,05:26:19.328,0.037877,-0.700199,0.24854,-0.668217,-4.491836,-4.418592,2.124577,79.406738,-368.225098,145.629883,0,0
15522,2024 10 07,05:26:19.336,0.053686,-0.71013,0.247957,-0.656773,-4.653462,-4.968413,1.857479,98.388672,-177.429199,119.934082,0,0
15523,2024 10 07,05:26:19.344,0.053686,-0.71013,0.247957,-0.656773,-4.653462,-4.968413,1.857479,98.388672,-177.429199,119.934082,0,0
15524,2024 10 07,05:26:19.353,0.060901,-0.714177,0.24168,-0.65409,-3.292581,-6.507034,2.821375,92.224121,-51.391602,-0.549316,0,0
15525,2024 10 07,05:26:19.361,0.056308,-0.717016,0.22868,-0.656066,-3.10654,-7.655995,1.993713,59.814453,-25.32959,-148.010254,0,0
15526,2024 10 07,05:26:19.369,0.039153,-0.724159,0.207777,-0.656422,-2.606037,-7.146702,3.319926,-1.220703,-19.836426,-315.673828,0,0
15527,2024 10 07,05:26:19.378,0.012004,-0.726805,0.180232,-0.662667,-1.359905,-2.964446,0.120121,-15.808105,97.473145,-422.180176,1,0
15528,2024 10 07,05:26:19.386,-0.014877,-0.728898,0.159244,-0.665679,-3.664663,2.354564,0.53029,1.464844,19.165039,-334.472656,0,0
15529,2024 10 07,05:26:19.394,-0.014877,-0.728898,0.159244,-0.665679,-3.664663,2.354564,0.53029,1.464844,19.165039,-334.472656,0,0
15530,2024 10 07,05:26:19.403,-0.02224,-0.726159,0.140025,-0.672749,-2.801355,-0.807642,1.582568,78.613281,148.620605,-191.52832,0,0
15531,2024 10 07,05:26:19.411,-0.03138,-0.711174,0.126588,-0.690813,-0.956572,0.094729,0.66213,48.64502,293.701172,-134.216309,0,0
15532,2024 10 07,05:26:19.419,-0.032972,-0.700609,0.115149,-0.70342,-0.885769,-0.57033,-2.023011,108.947754,140.869141,-68.786621,0,0
15533,2024 10 07,05:26:19.428,-0.03209,-0.700265,0.108425,-0.704871,-1.327677,0.284188,0.684591,52.490234,9.033203,-37.719727,0,0
15534,2024 10 07,05:26:19.436,-0.028802,-0.693641,0.100733,-0.712661,-1.210486,-0.203619,0.156743,104.309082,152.160645,-23.193359,0,0
15535,2024 10 07,05:26:19.444,-0.028802,-0.693641,0.100733,-0.712661,-1.210486,-0.203619,0.156743,104.309082,152.160645,-23.193359,0,0
15536,2024 10 07,05:26:19.453,-0.027217,-0.683658,0.09379,-0.723239,-0.730979,-0.250984,-0.352062,68.603516,149.475098,-24.841309,0,0
15537,2024 10 07,05:26:19.461,-0.026558,-0.678732,0.090037,-0.728362,-0.958525,0.008789,0.264168,34.606934,67.016602,-11.84082,0,0
15538,2024 10 07,05:26:19.469,-0.025599,-0.674512,0.087337,-0.732632,-0.9888,-0.018067,0.049318,31.677246,70.495605,-7.385254,0,0
15539,2024 10 07,05:26:19.478,-0.02609,-0.670883,0.085151,-0.736196,-0.897,0.010254,-0.060549,11.413574,51.574707,-18.554688,0,0
15540,2024 10 07,05:26:19.486,-0.027677,-0.669449,0.083882,-0.737588,-0.935087,0.014649,0.224616,-4.516602,18.615723,-21.240234,0,0
15541,2024 10 07,05:26:19.494,-0.027677,-0.669449,0.083882,-0.737588,-0.935087,0.014649,0.224616,-4.516602,18.615723,-21.240234,0,0
15542,2024 10 07,05:26:19.503,-0.029912,-0.66849,0.08314,-0.738454,-0.90286,0.026856,0.179205,-12.390137,16.601563,-23.864746,0,0
15543,2024 10 07,05:26:19.511,-0.032828,-0.668167,0.082824,-0.738657,-0.960967,0.04004,0.020508,-22.338867,1.342773,-27.404785,0,0
15544,2024 10 07,05:26:19.519,-0.036204,-0.669023,0.082884,-0.737718,-1.068392,0.080569,0.119144,-28.381348,-12.939453,-29.724121,0,0
15545,2024 10 07,05:26:19.528,-0.039664,-0.669582,0.082738,-0.737049,-1.149937,0.050783,-0.051271,-24.047852,-3.540039,-31.616211,0,0
15546,2024 10 07,05:26:19.536,-0.043403,-0.669576,0.082391,-0.736883,-1.171422,0.073244,-0.076662,-27.099609,5.187988,-35.339355,0,0
15547,2024 10 07,05:26:19.544,-0.043403,-0.669576,0.082391,-0.736883,-1.171422,0.073244,-0.076662,-27.099609,5.187988,-35.339355,0,0
15548,2024 10 07,05:26:19.553,-0.047152,-0.668831,0.081673,-0.737409,-1.165075,0.029786,-0.027833,-20.568848,19.287109,-36.376953,0,0
15549,2024 10 07,05:26:19.561,-0.050813,-0.667059,0.080512,-0.738897,-1.144078,-0.000977,-0.112796,-16.296387,34.118652,-37.17041,0,0
15550,2024 10 07,05:26:19.569,-0.054465,-0.664877,0.079101,-0.740753,-1.191931,0.02002,-0.138676,-15.136719,39.428711,-38.574219,0,0
15551,2024 10 07,05:26:19.578,-0.058084,-0.662112,0.07736,-0.743135,-1.066927,0.014649,0.077639,-10.742188,50.170898,-39.978027,0,0
15552,2024 10 07,05:26:19.586,-0.06156,-0.658894,0.075176,-0.745934,-0.934599,0.018067,0.175787,-6.774902,52.612305,-41.931152,0,0
15553,2024 10 07,05:26:19.594,-0.06156,-0.658894,0.075176,-0.745934,-0.934599,0.018067,0.175787,-6.774902,52.612305,-41.931152,0,0
15554,2024 10 07,05:26:19.603,-0.065056,-0.656295,0.072654,-0.748175,-0.932646,0.081545,0.245125,-1.647949,40.161133,-45.837402,0,0
15555,2024 10 07,05:26:19.611,-0.068168,-0.654523,0.069508,-0.749747,-0.955596,0.057131,0.283212,4.272461,28.869629,-49.072266,0,0
15556,2024 10 07,05:26:19.619,-0.071401,-0.653446,0.065946,-0.750707,-1.058626,-0.071291,0.014161,5.493164,18.432617,-54.504395,0,0
15557,2024 10 07,05:26:19.628,-0.07586,-0.653403,0.062773,-0.75058,-1.172399,0.010743,0.163091,-9.82666,2.990723,-64.51416,0,0
15558,2024 10 07,05:26:19.636,-0.081154,-0.653183,0.059398,-0.750492,-1.184118,-0.000488,0.220222,-12.939453,10.437012,-73.364258,0,0
15559,2024 10 07,05:26:19.644,-0.081154,-0.653183,0.059398,-0.750492,-1.184118,-0.000488,0.220222,-12.939453,10.437012,-73.364258,0,0
15560,2024 10 07,05:26:19.653,-0.087579,-0.65298,0.055793,-0.750223,-1.353069,0.0918,0.208502,-18.493652,1.831055,-86.364746,0,0
15561,2024 10 07,05:26:19.661,-0.095646,-0.653767,0.051802,-0.748837,-1.53618,0.012696,0.249031,-27.038574,-6.286621,-106.872559,0,0
15562,2024 10 07,05:26:19.669,-0.105807,-0.65357,0.047174,-0.747947,-1.53325,0.028809,-0.048341,-43.823242,6.958008,-129.272461,0,0
15563,2024 10 07,05:26:19.678,-0.118495,-0.653706,0.042465,-0.746207,-1.505905,0.120121,0.306162,-56.640625,-1.831055,-152.46582,0,0
15564,2024 10 07,05:26:19.686,-0.132538,-0.653387,0.03668,-0.744429,-1.513718,0.343272,0.485366,-55.847168,5.187988,-172.668457,0,0
15565,2024 10 07,05:26:19.694,-0.132538,-0.653387,0.03668,-0.744429,-1.513718,0.343272,0.485366,-55.847168,5.187988,-172.668457,0,0
15566,2024 10 07,05:26:19.703,-0.146396,-0.652718,0.028312,-0.742782,-1.669973,0.447768,0.536637,-23.55957,11.352539,-191.223145,0,0
15567,2024 10 07,05:26:19.711,-0.159656,-0.652875,0.016153,-0.740273,-1.861873,0.449232,0.353038,14.282227,2.563477,-219.482422,0,0
15568,2024 10 07,05:26:19.719,-0.171966,-0.652945,-0.0003,-0.737625,-1.92291,0.463393,0.292001,62.5,17.456055,-241.760254,0,0
15569,2024 10 07,05:26:19.728,-0.184295,-0.653723,-0.0206,-0.73366,-2.380444,0.563494,0.400403,84.16748,-0.427246,-281.37207,0,0
15570,2024 10 07,05:26:19.736,-0.19978,-0.654217,-0.044388,-0.728091,-2.696371,0.715354,0.325205,87.524414,-1.281738,-343.994141,0,0
15571,2024 10 07,05:26:19.744,-0.219343,-0.653344,-0.072149,-0.720988,-2.986419,0.806665,0.391125,85.266113,13.977051,-415.100098,0,0
15572,2024 10 07,05:26:19.753,-0.219343,-0.653344,-0.072149,-0.720988,-2.986419,0.806665,0.391125,85.266113,13.977051,-415.100098,0,0
15573,2024 10 07,05:26:19.761,-0.243403,-0.650301,-0.104123,-0.712054,-3.715934,0.83401,0.536149,85.388184,22.094727,-494.506836,0,0
15574,2024 10 07,05:26:19.769,-0.271196,-0.644047,-0.141059,-0.701255,-4.383435,0.843776,0.581561,95.88623,46.936035,-573.730469,0,0
15575,2024 10 07,05:26:19.778,-0.301164,-0.634254,-0.182706,-0.688216,-4.703757,0.548845,0.159185,107.849121,71.716309,-636.59668,0,0
15576,2024 10 07,05:26:19.786,-0.333218,-0.619849,-0.22678,-0.673293,-4.587054,0.843776,-0.026368,93.75,97.53418,-686.706543,0,0
15577,2024 10 07,05:26:19.794,-0.366058,-0.601689,-0.271036,-0.656133,-4.466933,1.101596,-0.314463,82.580566,109.191895,-706.481934,0,1
15578,2024 10 07,05:26:19.803,-0.366058,-0.601689,-0.271036,-0.656133,-4.466933,1.101596,-0.314463,82.580566,109.191895,-706.481934,0,0
15579,2024 10 07,05:26:19.811,-0.397239,-0.582048,-0.312744,-0.636876,-3.984985,0.928739,-0.5215,71.716309,90.820313,-675.90332,0,0
15580,2024 10 07,05:26:19.819,-0.426366,-0.563613,-0.349778,-0.614986,-3.400983,1.044954,-0.984893,57.067871,40.710449,-641.662598,0,0
15581,2024 10 07,05:26:19.828,-0.455459,-0.544666,-0.375004,-0.596044,0.752953,3.270608,-2.053285,-82.458496,36.193848,-492.553711,0,0
15582,2024 10 07,05:26:19.836,-0.467348,-0.529176,-0.388903,-0.591872,0.572283,3.815546,-1.308145,-0.061035,102.722168,-175.170898,0,0
15583,2024 10 07,05:26:19.844,-0.462973,-0.535148,-0.383112,-0.593716,-2.672445,4.362438,1.781304,-72.509766,-72.265625,183.288574,0,0
15584,2024 10 07,05:26:19.853,-0.462973,-0.535148,-0.383112,-0.593716,-2.672445,4.362438,1.781304,-72.509766,-72.265625,183.288574,0,0
15585,2024 10 07,05:26:19.861,-0.441253,-0.542463,-0.374637,-0.608832,-1.613819,2.452223,-2.098697,71.472168,157.287598,294.616699,0,0
15586,2024 10 07,05:26:19.869,-0.422372,-0.551414,-0.365501,-0.61964,-1.375042,1.399945,-1.149937,67.321777,-17.944336,268.066406,0,0
15587,2024 10 07,05:26:19.878,-0.408434,-0.561355,-0.353152,-0.627173,-0.583026,1.511765,-0.871609,-8.972168,6.164551,242.553711,0,0
15588,2024 10 07,05:26:19.886,-0.394083,-0.569808,-0.337257,-0.637398,0.021973,1.800348,-1.522996,-39.245605,-40.710449,299.804688,0,0
15589,2024 10 07,05:26:19.894,-0.379466,-0.584551,-0.312272,-0.645595,-1.194372,1.669973,-0.208991,-59.875488,-107.421875,377.075195,0,0
15590,2024 10 07,05:26:19.903,-0.379466,-0.584551,-0.312272,-0.645595,-1.194372,1.669973,-0.208991,-59.875488,-107.421875,377.075195,0,0
15591,2024 10 07,05:26:19.911,-0.360326,-0.595632,-0.283655,-0.659491,-1.165075,1.411664,-0.602557,-92.773438,-24.841309,437.316895,0,0
15592,2024 10 07,05:26:19.919,-0.338537,-0.604526,-0.251254,-0.675879,-0.987823,1.109897,-0.522477,-123.10791,-15.686035,484.436035,0,0
15593,2024 10 07,05:26:19.928,-0.315765,-0.6113,-0.214742,-0.693174,-0.844264,0.886746,-0.532243,-159.729004,-2.990723,514.465332,0,0
15594,2024 10 07,05:26:19.936,-0.29389,-0.61651,-0.17461,-0.709264,-0.71926,0.845729,-0.546403,-196.289063,-25.634766,520.080566,0,0
15595,2024 10 07,05:26:19.944,-0.273915,-0.621667,-0.131738,-0.721904,-0.815943,0.897977,-0.375011,-222.595215,-62.37793,508.789063,0,0
15596,2024 10 07,05:26:19.953,-0.273915,-0.621667,-0.131738,-0.721904,-0.815943,0.897977,-0.375011,-222.595215,-62.37793,508.789063,0,0
15597,2024 10 07,05:26:19.961,-0.255509,-0.626642,-0.08767,-0.730992,-0.872585,0.922391,-0.359386,-234.802246,-93.078613,491.943359,0,0
15598,2024 10 07,05:26:19.969,-0.238088,-0.632223,-0.042897,-0.736049,-1.005402,1.02298,-0.302255,-238.464355,-130.92041,477.966309,0,0
15599,2024 10 07,05:26:19.978,-0.221114,-0.638771,0.002253,-0.736936,-1.192419,0.943388,-0.239753,-240.783691,-171.75293,466.430664,0,0
15600,2024 10 07,05:26:19.986,-0.204375,-0.646768,0.048021,-0.733223,-1.786187,0.934111,-0.147465,-244.812012,-221.557617,458.618164,0,0
15601,2024 10 07,05:26:19.994,-0.186934,-0.655382,0.093877,-0.725752,-2.371166,0.990753,0.165044,-238.40332,-245.422363,457.397461,0,0
15602,2024 10 07,05:26:20.003,-0.186934,-0.655382,0.093877,-0.725752,-2.371166,0.990753,0.165044,-238.40332,-245.422363,457.397461,0,0
15603,2024 10 07,05:26:20.011,-0.168751,-0.662775,0.138771,-0.716236,-2.173894,0.120121,0.231941,-229.431152,-252.563477,452.575684,0,0
15604,2024 10 07,05:26:20.019,-0.151679,-0.671198,0.183402,-0.702033,-2.990326,-0.766625,0.521989,-249.755859,-302.79541,434.082031,0,0
15605,2024 10 07,05:26:20.028,-0.137611,-0.679532,0.228112,-0.683567,-3.644154,-1.188025,1.482467,-284.301758,-325.256348,405.700684,0,0
15606,2024 10 07,05:26:20.036,-0.126983,-0.686539,0.271017,-0.662639,-4.326792,-1.90875,2.75106,-301.879883,-319.458008,366.088867,0,0
15607,2024 10 07,05:26:20.044,-0.120436,-0.691173,0.309784,-0.641723,-4.50209,-2.447829,4.045045,-301.330566,-286.254883,312.194824,0,0
15608,2024 10 07,05:26:20.053,-0.120436,-0.691173,0.309784,-0.641723,-4.50209,-2.447829,4.045045,-301.330566,-286.254883,312.194824,0,0
15609,2024 10 07,05:26:20.061,-0.116386,-0.692849,0.342754,-0.623646,-4.674947,-3.001068,4.856105,-262.878418,-222.412109,270.141602,0,0
15610,2024 10 07,05:26:20.069,-0.113326,-0.688885,0.368378,-0.613915,-4.245735,-4.183722,4.953764,-182.189941,-88.745117,245.483398,0,0
15611,2024 10 07,05:26:20.078,-0.110727,-0.681876,0.385561,-0.61166,-3.133885,-5.235511,4.325816,-102.416992,-22.338867,194.335938,0,0
15612,2024 10 07,05:26:20.086,-0.108336,-0.676583,0.392939,-0.613268,-2.388257,-5.401044,3.78283,-15.50293,15.014648,108.398438,0,0
15613,2024 10 07,05:26:20.094,-0.106508,-0.674357,0.390546,-0.617554,-1.899472,-5.031892,2.961516,71.411133,23.193359,19.042969,0,0
15614,2024 10 07,05:26:20.103,-0.106508,-0.674357,0.390546,-0.617554,-1.899472,-5.031892,2.961516,71.411133,23.193359,19.042969,0,0
15615,2024 10 07,05:26:20.111,-0.111642,-0.683668,0.382475,-0.61143,-9.262978,-3.519639,16.0,-93.566895,-203.857422,-218.75,0,0
15616,2024 10 07,05:26:20.119,-0.139424,-0.672502,0.353587,-0.635042,3.441023,0.456069,-3.87463,-176.269531,570.983887,-312.133789,1,0
15617,2024 10 07,05:26:20.128,-0.145521,-0.686006,0.33364,-0.630002,-4.027467,3.420026,8.883572,227.661133,-255.187988,-254.638672,0,0
15618,2024 10 07,05:26:20.136,-0.151864,-0.685321,0.310407,-0.64103,-2.137761,1.498093,-0.414075,77.087402,206.90918,-207.946777,0,0
15619,2024 10 07,05:26:20.144,-0.154256,-0.68487,0.284513,-0.652848,-1.857479,-2.175848,2.467849,214.111328,145.324707,-199.035645,0,0
15620,2024 10 07,05:26:20.153,-0.154256,-0.68487,0.284513,-0.652848,-1.857479,-2.175848,2.467849,214.111328,145.324707,-199.035645,0,0
15621,2024 10 07,05:26:20.161,-0.166321,-0.679436,0.267887,-0.662526,-0.917508,-0.443861,-0.087405,54.260254,151.306152,-158.630371,0,0
15622,2024 10 07,05:26:20.169,-0.171293,-0.677323,0.256576,-0.667878,-1.150914,0.076174,0.089846,39.245605,96.740723,-92.651367,0,0
15623,2024 10 07,05:26:20.178,-0.17378,-0.67559,0.246608,-0.672728,-1.129429,-0.096683,-0.153813,86.791992,64.819336,-81.420898,0,0
15624,2024 10 07,05:26:20.186,-0.177004,-0.673622,0.23722,-0.677222,-0.911161,-0.147954,0.064455,41.564941,83.740234,-79.345703,0,0
15625,2024 10 07,05:26:20.194,-0.179777,-0.671378,0.230588,-0.681,-0.96878,-0.124516,0.003418,34.851074,60.72998,-49.926758,0,0
15626,2024 10 07,05:26:20.203,-0.181982,-0.669083,0.22609,-0.684174,-1.016633,-0.028809,-0.006836,16.662598,56.884766,-36.376953,0,0
15627,2024 10 07,05:26:20.211,-0.181982,-0.669083,0.22609,-0.684174,-1.016633,-0.028809,-0.006836,16.662598,56.884766,-36.376953,0,0
15628,2024 10 07,05:26:20.219,-0.18455,-0.666811,0.222611,-0.68684,-0.817896,0.044435,0.202155,8.850098,48.217773,-34.423828,0,0
15629,2024 10 07,05:26:20.228,-0.18637,-0.665724,0.219648,-0.688355,-0.898953,0.036622,0.121097,11.535645,24.841309,-30.029297,0,0
15630,2024 10 07,05:26:20.236,-0.187955,-0.665414,0.217052,-0.689046,-0.977081,0.061525,0.069338,9.155273,14.831543,-30.456543,0,0
15631,2024 10 07,05:26:20.244,-0.1895,-0.665749,0.214536,-0.689088,-1.057649,0.038087,0.015625,7.69043,4.333496,-32.897949,0,0
15632,2024 10 07,05:26:20.253,-0.191536,-0.666128,0.212193,-0.688884,-1.086459,0.016114,-0.053713,2.01416,6.835938,-36.193848,0,0
15633,2024 10 07,05:26:20.261,-0.191536,-0.666128,0.212193,-0.688884,-1.086459,0.016114,-0.053713,2.01416,6.835938,-36.193848,0,0
15634,2024 10 07,05:26:20.269,-0.19403,-0.666246,0.210025,-0.688736,-1.035188,-0.009766,-0.02002,-2.807617,9.643555,-36.682129,0,0
15635,2024 10 07,05:26:20.278,-0.196625,-0.666001,0.208189,-0.688795,-1.038118,-0.02002,-0.041017,-7.019043,14.038086,-32.531738,0,0
15636,2024 10 07,05:26:20.286,-0.199173,-0.665513,0.20664,-0.689001,-1.049348,-0.015625,-0.104495,-7.8125,15.136719,-29.35791,0,0
15637,2024 10 07,05:26:20.294,-0.20154,-0.664978,0.205179,-0.689266,-1.059114,0.009278,0.022462,-6.408691,16.601563,-27.404785,0,0
15638,2024 10 07,05:26:20.303,-0.203773,-0.664058,0.203378,-0.69003,-1.116245,0.04004,-0.015137,-1.159668,24.108887,-27.832031,0,0
15639,2024 10 07,05:26:20.311,-0.203773,-0.664058,0.203378,-0.69003,-1.116245,0.04004,-0.015137,-1.159668,24.108887,-27.832031,0,0
15640,2024 10 07,05:26:20.319,-0.205849,-0.663015,0.200873,-0.691149,-1.198279,-0.001953,-0.018067,6.04248,29.541016,-31.799316,0,0
15641,2024 10 07,05:26:20.328,-0.208057,-0.661649,0.19753,-0.692759,-1.205115,-0.025391,-0.110843,10.253906,38.513184,-37.109375,0,0
15642,2024 10 07,05:26:20.336,-0.210908,-0.659999,0.193936,-0.694484,-1.17777,-0.080081,-0.15772,5.249023,43.029785,-43.518066,0,0
15643,2024 10 07,05:26:20.344,-0.214679,-0.658303,0.190205,-0.695968,-1.154332,-0.185553,-0.229011,-1.77002,43.640137,-53.405762,0,0
15644,2024 10 07,05:26:20.353,-0.219633,-0.65703,0.186474,-0.696635,-1.466353,-0.164068,-0.1919,-13.122559,33.935547,-65.246582,0,0
15645,2024 10 07,05:26:20.361,-0.219633,-0.65703,0.186474,-0.696635,-1.466353,-0.164068,-0.1919,-13.122559,33.935547,-65.246582,0,0
15646,2024 10 07,05:26:20.369,-0.226628,-0.655398,0.18306,-0.696837,-1.255409,-0.10303,-0.08887,-35.400391,42.663574,-81.787109,0,0
15647,2024 10 07,05:26:20.378,-0.235037,-0.653692,0.17966,-0.696539,-1.452681,0.077639,0.239753,-40.588379,37.536621,-91.85791,0,0
15648,2024 10 07,05:26:20.386,-0.244347,-0.651663,0.175889,-0.696199,-1.344279,0.081545,0.109867,-47.180176,43.273926,-103.149414,0,0
15649,2024 10 07,05:26:20.394,-0.254176,-0.649927,0.17115,-0.695484,-1.499069,0.028321,0.090823,-40.649414,41.137695,-116.760254,0,0
15650,2024 10 07,05:26:20.403,-0.265234,-0.648267,0.165785,-0.694202,-1.274941,0.01709,0.013184,-48.583984,40.039063,-133.911133,0,0
15651,2024 10 07,05:26:20.411,-0.265234,-0.648267,0.165785,-0.694202,-1.274941,0.01709,0.013184,-48.583984,40.039063,-133.911133,0,0
15652,2024 10 07,05:26:20.419,-0.276856,-0.647167,0.159537,-0.692152,-1.432173,0.231452,0.310068,-41.625977,34.423828,-147.216797,0,0
15653,2024 10 07,05:26:20.428,-0.2887,-0.64649,0.151854,-0.689669,-1.546434,0.295907,0.308115,-29.846191,30.578613,-165.283203,0,0
15654,2024 10 07,05:26:20.436,-0.300714,-0.646659,0.141856,-0.686499,-1.809137,0.28077,0.189947,-6.958008,27.832031,-189.086914,0,0
15655,2024 10 07,05:26:20.444,-0.313149,-0.647608,0.128953,-0.682578,-2.00885,0.333018,0.040529,10.864258,29.296875,-220.581055,0,0
15656,2024 10 07,05:26:20.453,-0.327057,-0.648702,0.113099,-0.677812,-2.221259,0.300302,-0.059572,17.76123,37.04834,-260.925293,0,0
15657,2024 10 07,05:26:20.461,-0.327057,-0.648702,0.113099,-0.677812,-2.221259,0.300302,-0.059572,17.76123,37.04834,-260.925293,0,0
15658,2024 10 07,05:26:20.469,-0.343777,-0.649674,0.09462,-0.671408,-2.393139,0.292001,-0.203131,15.441895,36.621094,-311.035156,0,0
15659,2024 10 07,05:26:20.478,-0.363889,-0.650727,0.073133,-0.662413,-2.817957,0.484878,-0.208502,5.92041,34.362793,-373.901367,0,0
15660,2024 10 07,05:26:20.486,-0.388175,-0.650831,0.048166,-0.650707,-3.210547,0.483902,-0.236335,-2.258301,41.381836,-448.730469,0,0
15661,2024 10 07,05:26:20.494,-0.417499,-0.649974,0.019245,-0.634711,-3.356548,0.540544,-0.261238,-21.057129,31.921387,-537.780762,0,0
15662,2024 10 07,05:26:20.503,-0.450872,-0.648327,-0.013423,-0.613356,-4.4391,0.581072,0.385754,-25.939941,19.104004,-619.018555,0,0
15663,2024 10 07,05:26:20.511,-0.450872,-0.648327,-0.013423,-0.613356,-4.4391,0.581072,0.385754,-25.939941,19.104004,-619.018555,0,0
15664,2024 10 07,05:26:20.519,-0.485728,-0.6437,-0.049082,-0.589329,-4.612445,0.737327,0.473647,-25.45166,42.358398,-662.109375,0,0
15665,2024 10 07,05:26:20.528,-0.520889,-0.636325,-0.087156,-0.562289,-4.16126,1.162145,0.280282,-24.597168,41.381836,-704.223633,0,0
15666,2024 10 07,05:26:20.536,-0.555552,-0.628214,-0.125537,-0.530046,-4.052858,0.926786,-0.448256,-17.822266,2.624512,-730.895996,0,1
15667,2024 10 07,05:26:20.544,-0.589262,-0.62037,-0.159723,-0.49234,-3.595813,0.618183,-0.906278,-40.83252,-68.908691,-715.026855,0,0
15668,2024 10 07,05:26:20.553,-0.622896,-0.612251,-0.185536,-0.45025,-3.541612,0.949248,-0.727561,-91.003418,-157.470703,-684.936523,0,0
15669,2024 10 07,05:26:20.561,-0.622896,-0.612251,-0.185536,-0.45025,-3.541612,0.949248,-0.727561,-91.003418,-157.470703,-684.936523,0,0
15670,2024 10 07,05:26:20.569,-0.656263,-0.600804,-0.201533,-0.409557,0.189947,3.863399,-1.260781,-197.20459,-168.945313,-572.265625,0,0
15671,2024 10 07,05:26:20.578,-0.676009,-0.590543,-0.209204,-0.387948,-0.066897,5.235511,0.158696,28.686523,-82.885742,-238.098145,0,0
15672,2024 10 07,05:26:20.586,-0.665885,-0.603994,-0.207065,-0.385892,-1.869686,4.407361,2.057192,129.211426,-19.53125,164.245605,0,0
15673,2024 10 07,05:26:20.594,-0.63718,-0.620707,-0.204993,-0.408291,-0.931669,2.518631,-2.412183,301.879883,134.58252,367.858887,0,0
15674,2024 10 07,05:26:20.603,-0.607093,-0.643696,-0.194783,-0.423265,-1.123081,0.579119,-1.169469,277.34375,-28.259277,362.060547,0,0
15675,2024 10 07,05:26:20.611,-0.607093,-0.643696,-0.194783,-0.423265,-1.123081,0.579119,-1.169469,277.34375,-28.259277,362.060547,0,0
15676,2024 10 07,05:26:20.619,-0.584566,-0.661805,-0.180618,-0.433213,0.256844,-0.029298,-2.019593,160.522461,-83.129883,303.771973,0,0
15677,2024 10 07,05:26:20.628,-0.572839,-0.679317,-0.155264,-0.431598,-0.019044,0.426283,-1.101596,47.485352,-295.166016,274.597168,0,0
15678,2024 10 07,05:26:20.636,-0.567425,-0.695474,-0.119188,-0.424428,-1.511277,0.786645,-0.336924,-44.616699,-364.440918,293.640137,0,0
15679,2024 10 07,05:26:20.644,-0.564059,-0.704554,-0.07986,-0.423159,-2.339427,1.05179,0.688009,-121.154785,-275.390625,334.777832,0,0
15680,2024 10 07,05:26:20.653,-0.560873,-0.703971,-0.042244,-0.433661,-1.928282,1.07474,1.002472,-178.283691,-114.929199,387.023926,0,0
15681,2024 10 07,05:26:20.661,-0.557178,-0.69576,-0.005612,-0.453254,-1.103061,1.042024,0.864772,-220.336914,-21.42334,436.767578,0,0
15682,2024 10 07,05:26:20.669,-0.557178,-0.69576,-0.005612,-0.453254,-1.103061,1.042024,0.864772,-220.336914,-21.42334,436.767578,0,0
15683,2024 10 07,05:26:20.678,-0.553318,-0.683906,0.033835,-0.474306,-0.729026,1.124546,0.827174,-256.347656,-33.447266,466.85791,0,0
15684,2024 10 07,05:26:20.686,-0.548933,-0.670907,0.077167,-0.492546,-0.906766,1.404828,1.018586,-276.733398,-75.134277,479.003906,0,0
15685,2024 10 07,05:26:20.694,-0.543185,-0.656949,0.121643,-0.508499,-1.139195,1.701224,1.256386,-274.353027,-87.82959,476.68457,0,0
15686,2024 10 07,05:26:20.703,-0.534682,-0.643379,0.16535,-0.522339,-1.373089,1.787652,1.495163,-244.506836,-113.40332,470.703125,0,0
15687,2024 10 07,05:26:20.711,-0.523063,-0.630202,0.206482,-0.535365,-1.567431,1.749077,1.397015,-199.707031,-101.501465,463.745117,0,0
15688,2024 10 07,05:26:20.719,-0.523063,-0.630202,0.206482,-0.535365,-1.567431,1.749077,1.397015,-199.707031,-101.501465,463.745117,0,0
15689,2024 10 07,05:26:20.728,-0.508188,-0.61801,0.244817,-0.547606,-1.614307,1.723197,1.379437,-156.738281,-111.755371,457.458496,0,0
15690,2024 10 07,05:26:20.736,-0.489533,-0.607204,0.281281,-0.559054,-1.792047,1.629444,1.237342,-113.708496,-125.366211,462.890625,0,0
15691,2024 10 07,05:26:20.744,-0.46701,-0.597434,0.316383,-0.569979,-2.126041,1.464888,1.103549,-76.538086,-139.953613,473.083496,0,0
15692,2024 10 07,05:26:20.753,-0.44117,-0.588106,0.350077,-0.58047,-2.432691,1.290567,0.991241,-46.75293,-147.949219,482.055664,0,0
15693,2024 10 07,05:26:20.761,-0.412272,-0.578868,0.382281,-0.590597,-2.824793,1.210486,0.969756,-16.784668,-156.555176,492.858887,0,0
15694,2024 10 07,05:26:20.769,-0.412272,-0.578868,0.382281,-0.590597,-2.824793,1.210486,0.969756,-16.784668,-156.555176,492.858887,0,0
15695,2024 10 07,05:26:20.778,-0.380017,-0.569075,0.412653,-0.601215,-3.255959,0.741722,0.853542,17.150879,-149.047852,511.59668,0,0
15696,2024 10 07,05:26:20.786,-0.346148,-0.558005,0.440605,-0.61211,-3.134373,-0.313486,0.869167,36.132813,-142.028809,513.183594,0,0
15697,2024 10 07,05:26:20.794,-0.311121,-0.549313,0.46681,-0.619312,-4.114872,-1.917539,0.867702,41.625977,-189.39209,483.520508,0,0
15698,2024 10 07,05:26:20.803,-0.278861,-0.541782,0.489799,-0.623542,-4.933744,-3.471297,0.782739,29.724121,-169.616699,433.71582,0,0
15699,2024 10 07,05:26:20.811,-0.253983,-0.532456,0.509297,-0.626578,-4.507462,-4.819971,0.646504,-9.58252,-105.957031,373.352051,0,0
15700,2024 10 07,05:26:20.819,-0.253983,-0.532456,0.509297,-0.626578,-4.507462,-4.819971,0.646504,-9.58252,-105.957031,373.352051,0,0
15701,2024 10 07,05:26:20.828,-0.236999,-0.522304,0.52665,-0.627432,-3.50499,-5.800958,0.416028,-55.358887,-71.716309,306.945801,0,0
15702,2024 10 07,05:26:20.836,-0.225505,-0.514774,0.542703,-0.624203,-3.114353,-6.250191,1.400433,-93.688965,-86.425781,232.60498,0,0
15703,2024 10 07,05:26:20.844,-0.219096,-0.511031,0.554596,-0.619086,-2.849208,-6.116397,2.024476,-87.280273,-83.984375,139.282227,0,0
15704,2024 10 07,05:26:20.853,-0.217253,-0.51105,0.559992,-0.614847,-2.290597,-5.796564,2.503494,-37.353516,-47.363281,49.987793,0,0
15705,2024 10 07,05:26:20.861,-0.220975,-0.52092,0.562846,-0.602509,-7.196997,-8.096438,7.543199,-173.278809,-247.497559,-160.095215,0,0
15706,2024 10 07,05:26:20.869,-0.220975,-0.52092,0.562846,-0.602509,-7.196997,-8.096438,7.543199,-173.278809,-247.497559,-160.095215,0,0
15707,2024 10 07,05:26:20.878,-0.251468,-0.538226,0.544955,-0.591692,-1.086459,-5.40202,2.346263,-162.719727,177.734375,-462.158203,1,0
15708,2024 10 07,05:26:20.886,-0.29504,-0.543677,0.522799,-0.586556,-0.609882,1.410199,-3.025483,-39.123535,185.180664,-457.458496,0,0
15709,2024 10 07,05:26:20.894,-0.310024,-0.566585,0.503751,-0.573673,-5.495285,1.620655,1.340373,60.180664,-59.265137,-389.953613,0,0
15710,2024 10 07,05:26:20.903,-0.333199,-0.571097,0.475315,-0.580432,-1.830622,-0.777367,1.285684,75.561523,309.387207,-327.880859,0,0
15711,2024 10 07,05:26:20.911,-0.349485,-0.573876,0.450951,-0.587511,-1.963927,-1.287149,0.759301,85.388184,165.588379,-217.529297,0,0
15712,2024 10 07,05:26:20.919,-0.349485,-0.573876,0.450951,-0.587511,-1.963927,-1.287149,0.759301,85.388184,165.588379,-217.529297,0,0
15713,2024 10 07,05:26:20.928,-0.363268,-0.568559,0.435311,-0.596055,-1.394574,0.035646,-0.911649,36.010742,242.858887,-99.853516,0,0
15714,2024 10 07,05:26:20.936,-0.367177,-0.564823,0.421522,-0.607021,-1.061556,0.136235,-0.24073,137.329102,149.597168,-42.114258,0,0
15715,2024 10 07,05:26:20.944,-0.366376,-0.563008,0.407733,-0.618502,-0.815943,-0.541032,0.61037,139.099121,149.475098,-22.583008,0,0
15716,2024 10 07,05:26:20.953,-0.36956,-0.558207,0.397628,-0.627472,-0.861354,0.089846,-0.307138,58.898926,136.352539,-25.024414,0,0
15717,2024 10 07,05:26:20.961,-0.36998,-0.555557,0.389786,-0.634458,-1.062532,-0.115238,-0.058596,79.528809,95.275879,-6.591797,0,0
15718,2024 10 07,05:26:20.969,-0.36998,-0.555557,0.389786,-0.634458,-1.062532,-0.115238,-0.058596,79.528809,95.275879,-6.591797,0,0
15719,2024 10 07,05:26:20.978,-0.370761,-0.552531,0.383244,-0.640601,-0.872585,-0.049806,0.19483,44.677734,92.102051,-8.911133,0,0
15720,2024 10 07,05:26:20.986,-0.372729,-0.549826,0.378727,-0.644461,-0.815455,0.107913,0.234382,24.658203,62.744141,-15.075684,0,0
15721,2024 10 07,05:26:20.994,-0.373589,-0.548755,0.374941,-0.647084,-0.916532,-0.006836,0.122074,31.494141,39.428711,-14.099121,0,0
15722,2024 10 07,05:26:21.003,-0.374727,-0.5481,0.372,-0.648677,-0.941435,0.050295,0.096683,11.535645,29.418945,-18.127441,0,0
15723,2024 10 07,05:26:21.011,-0.376153,-0.547977,0.369929,-0.64914,-1.061068,0.048341,0.081545,6.713867,16.540527,-22.766113,0,0
15724,2024 10 07,05:26:21.019,-0.376153,-0.547977,0.369929,-0.64914,-1.061068,0.048341,0.081545,6.713867,16.540527,-22.766113,0,0
15725,2024 10 07,05:26:21.028,-0.378159,-0.548196,0.367978,-0.648898,-1.081088,0.094729,0.049318,3.356934,13.977051,-30.822754,0,0
15726,2024 10 07,05:26:21.036,-0.380578,-0.54839,0.36582,-0.64854,-1.052278,0.086917,0.044923,-2.380371,16.967773,-34.790039,0,0
15727,2024 10 07,05:26:21.044,-0.382988,-0.548685,0.363655,-0.64809,-1.105014,0.004883,-0.013184,0.671387,14.526367,-35.03418,0,0
15728,2024 10 07,05:26:21.053,-0.385433,-0.548855,0.361459,-0.647725,-1.076205,0.02002,-0.036134,-0.244141,18.493652,-33.508301,0,0
15729,2024 10 07,05:26:21.061,-0.387928,-0.54864,0.359293,-0.647622,-0.972198,0.032716,0.134281,-2.075195,22.705078,-31.677246,0,0
15730,2024 10 07,05:26:21.069,-0.390272,-0.54827,0.357068,-0.647758,-1.015656,0.019044,0.074709,2.197266,22.338867,-28.747559,0,0
15731,2024 10 07,05:26:21.078,-0.390272,-0.54827,0.357068,-0.647758,-1.015656,0.019044,0.074709,2.197266,22.338867,-28.747559,0,0
15732,2024 10 07,05:26:21.086,-0.392355,-0.548138,0.354797,-0.647859,-1.053743,0.058107,0.110843,3.540039,20.568848,-29.052734,0,0
15733,2024 10 07,05:26:21.094,-0.394249,-0.548136,0.352091,-0.648187,-1.083041,-0.057619,0.08301,10.620117,22.705078,-29.846191,0,0
15734,2024 10 07,05:26:21.103,-0.396515,-0.547954,0.34938,-0.648426,-1.079623,-0.011231,0.066408,6.103516,24.719238,-32.287598,0,0
15735,2024 10 07,05:26:21.111,-0.399038,-0.547836,0.346548,-0.648497,-1.039094,-0.015625,0.130375,5.432129,25.146484,-36.437988,0,0
15736,2024 10 07,05:26:21.119,-0.401898,-0.547909,0.343587,-0.648246,-1.148473,-0.016602,0.110843,1.159668,20.874023,-42.907715,0,0
15737,2024 10 07,05:26:21.128,-0.401898,-0.547909,0.343587,-0.648246,-1.148473,-0.016602,0.110843,1.159668,20.874023,-42.907715,0,0
15738,2024 10 07,05:26:21.136,-0.405723,-0.548228,0.34105,-0.646931,-1.124058,0.078616,0.31251,-6.652832,17.150879,-53.771973,0,0
15739,2024 10 07,05:26:21.144,-0.410148,-0.548568,0.337967,-0.645469,-1.121616,0.038087,0.223151,-11.962891,18.676758,-63.537598,0,0
15740,2024 10 07,05:26:21.153,-0.415277,-0.549312,0.33486,-0.643172,-1.170934,0.016114,0.113285,-17.028809,12.939453,-73.852539,0,0
15741,2024 10 07,05:26:21.161,-0.421121,-0.550462,0.33195,-0.639889,-1.307169,-0.031251,0.123051,-24.353027,6.835938,-84.655762,0,0
15742,2024 10 07,05:26:21.169,-0.428361,-0.551229,0.328816,-0.636029,-1.323771,-0.024903,0.012696,-36.682129,15.50293,-97.961426,0,0
15743,2024 10 07,05:26:21.178,-0.428361,-0.551229,0.328816,-0.636029,-1.323771,-0.024903,0.012696,-36.682129,15.50293,-97.961426,0,0
15744,2024 10 07,05:26:21.186,-0.436895,-0.55178,0.32557,-0.6314,-1.33549,0.027345,0.131352,-46.75293,14.831543,-111.083984,0,0
15745,2024 10 07,05:26:21.194,-0.446199,-0.552488,0.321828,-0.626171,-1.517624,0.06592,0.158696,-47.119141,17.272949,-124.023438,0,0
15746,2024 10 07,05:26:21.203,-0.456699,-0.55292,0.31692,-0.6207,-1.574267,0.12891,0.155766,-50.109863,29.907227,-141.906738,0,0
15747,2024 10 07,05:26:21.211,-0.468259,-0.553819,0.310717,-0.614388,-1.814997,0.285653,0.221686,-46.020508,27.587891,-166.07666,0,0
15748,2024 10 07,05:26:21.219,-0.480734,-0.555603,0.302386,-0.607258,-1.969787,0.321787,0.301279,-31.921387,35.827637,-196.289063,0,0
15749,2024 10 07,05:26:21.228,-0.480734,-0.555603,0.302386,-0.607258,-1.969787,0.321787,0.301279,-31.921387,35.827637,-196.289063,0,0
15750,2024 10 07,05:26:21.236,-0.494902,-0.557069,0.290706,-0.600197,-1.742729,0.557146,0.26368,-18.432617,65.429688,-228.637695,0,0
15751,2024 10 07,05:26:21.244,-0.508363,-0.560727,0.275821,-0.592516,-1.956114,0.846217,0.826685,20.019531,58.776855,-254.089355,0,0
15752,2024 10 07,05:26:21.253,-0.521214,-0.566766,0.25648,-0.584235,-2.478103,0.744652,0.484878,64.880371,52.429199,-298.583984,0,0
15753,2024 10 07,05:26:21.261,-0.535859,-0.575187,0.234333,-0.571929,-2.932218,0.761254,0.200201,70.739746,36.865234,-365.478516,0,0
15754,2024 10 07,05:26:21.269,-0.553818,-0.583805,0.208031,-0.556041,-3.556261,0.897,-0.039552,65.124512,56.091309,-441.345215,0,0
15755,2024 10 07,05:26:21.278,-0.553818,-0.583805,0.208031,-0.556041,-3.556261,0.897,-0.039552,65.124512,56.091309,-441.345215,0,0
15756,2024 10 07,05:26:21.286,-0.575314,-0.59163,0.176068,-0.536644,-4.699851,1.040071,0.189947,63.964844,90.332031,-528.930664,0,0
15757,2024 10 07,05:26:21.294,-0.600226,-0.596828,0.136342,-0.514718,-5.308756,1.026887,0.328135,72.387695,149.658203,-618.164063,0,0
15758,2024 10 07,05:26:21.303,-0.626109,-0.599676,0.089336,-0.490301,-4.938627,0.43849,-0.146489,86.669922,195.43457,-682.250977,0,0
15759,2024 10 07,05:26:21.311,-0.653048,-0.599076,0.039273,-0.46162,-4.210089,1.296426,-0.21778,49.01123,198.791504,-733.276367,0,0
15760,2024 10 07,05:26:21.319,-0.678569,-0.596904,-0.010712,-0.427942,-4.016236,1.687551,-0.80813,66.101074,166.625977,-753.540039,0,1
15761,2024 10 07,05:26:21.328,-0.678569,-0.596904,-0.010712,-0.427942,-4.016236,1.687551,-0.80813,66.101074,166.625977,-753.540039,0,0
15762,2024 10 07,05:26:21.336,-0.69895,-0.596404,-0.057299,-0.390496,-3.50206,0.998077,-0.853053,88.867188,94.177246,-722.53418,0,0
15763,2024 10 07,05:26:21.344,-0.717025,-0.594681,-0.096036,-0.350722,-3.49913,1.156774,-0.458022,49.194336,26.550293,-668.457031,0,0
15764,2024 10 07,05:26:21.353,-0.734093,-0.586976,-0.12422,-0.318019,0.726584,3.436628,-1.987854,-86.181641,38.696289,-494.934082,0,0
15765,2024 10 07,05:26:21.361,-0.741021,-0.577026,-0.142872,-0.312276,1.482955,2.941984,-1.812067,50.90332,157.836914,-101.5625,0,0
15766,2024 10 07,05:26:21.369,-0.734026,-0.580519,-0.134841,-0.325609,-2.568926,4.35023,1.835505,-49.987793,10.009766,289.978027,0,0
15767,2024 10 07,05:26:21.378,-0.734026,-0.580519,-0.134841,-0.325609,-2.568926,4.35023,1.835505,-49.987793,10.009766,289.978027,0,0
15768,2024 10 07,05:26:21.386,-0.713115,-0.584351,-0.129411,-0.365039,-2.608478,2.070864,-1.12064,120.178223,304.077148,445.43457,0,0
15769,2024 10 07,05:26:21.394,-0.689841,-0.589381,-0.124538,-0.401547,-2.026429,0.634785,-0.702658,123.474121,189.27002,411.315918,0,0
15770,2024 10 07,05:26:21.403,-0.669428,-0.591296,-0.119868,-0.433436,-0.357433,0.297372,-1.903378,66.955566,204.284668,359.436035,0,0
15771,2024 10 07,05:26:21.411,-0.653214,-0.592507,-0.10878,-0.458709,-0.151372,0.247078,-1.867733,1.77002,66.589355,350.952148,0,0
15772,2024 10 07,05:26:21.419,-0.640319,-0.59344,-0.08747,-0.479759,-0.903348,0.5215,-1.169958,-66.040039,-11.047363,377.01416,0,0
15773,2024 10 07,05:26:21.428,-0.640319,-0.59344,-0.08747,-0.479759,-0.903348,0.5215,-1.169958,-66.040039,-11.047363,377.01416,0,0
15774,2024 10 07,05:26:21.436,-0.627779,-0.590918,-0.061644,-0.502901,-1.367229,0.751976,-0.843287,-112.670898,3.967285,415.527344,0,0
15775,2024 10 07,05:26:21.444,-0.614006,-0.584177,-0.034337,-0.529674,-1.485885,0.694357,-0.435072,-138.183594,52.978516,453.491211,0,0
15776,2024 10 07,05:26:21.453,-0.598218,-0.572592,-0.007606,-0.560549,-1.216346,0.549821,-0.513199,-154.35791,111.26709,487.915039,0,0
15777,2024 10 07,05:26:21.461,-0.580494,-0.557989,0.019404,-0.592704,-0.789087,0.440931,-0.510758,-162.963867,126.586914,508.850098,0,0
15778,2024 10 07,05:26:21.469,-0.561186,-0.543952,0.048898,-0.621929,-0.611835,0.526872,-0.400891,-164.123535,65.063477,514.160156,0,0
15779,2024 10 07,05:26:21.478,-0.561186,-0.543952,0.048898,-0.621929,-0.611835,0.526872,-0.400891,-164.123535,65.063477,514.160156,0,0
15780,2024 10 07,05:26:21.486,-0.539828,-0.531654,0.080273,-0.647677,-0.648457,0.821314,-0.18067,-151.245117,28.625488,516.601563,0,0
15781,2024 10 07,05:26:21.494,-0.515287,-0.521909,0.111549,-0.670558,-1.146519,0.977569,0.06885,-107.727051,-11.474609,518.432617,0,0
15782,2024 10 07,05:26:21.503,-0.486819,-0.514542,0.140346,-0.691779,-1.539109,1.020539,0.069338,-49.01123,-23.4375,519.226074,0,0
15783,2024 10 07,05:26:21.511,-0.454213,-0.509337,0.165783,-0.711886,-1.683157,0.93704,-0.130375,11.230469,-34.057617,523.4375,0,0
15784,2024 10 07,05:26:21.519,-0.417523,-0.506518,0.188325,-0.730512,-1.755913,0.711936,-0.412122,64.880371,-58.288574,528.503418,0,0
15785,2024 10 07,05:26:21.528,-0.377397,-0.506404,0.209399,-0.746511,-2.08063,0.491714,-0.675802,98.510742,-97.900391,531.616211,0,0
15786,2024 10 07,05:26:21.536,-0.377397,-0.506404,0.209399,-0.746511,-2.08063,0.491714,-0.675802,98.510742,-97.900391,531.616211,0,0
15787,2024 10 07,05:26:21.544,-0.33457,-0.508693,0.229864,-0.759247,-2.482498,0.233406,-0.783715,118.469238,-138.793945,532.348633,0,0
15788,2024 10 07,05:26:21.553,-0.289616,-0.512801,0.249812,-0.768604,-2.984466,-0.116703,-0.727073,132.8125,-176.147461,532.165527,0,0
15789,2024 10 07,05:26:21.561,-0.243339,-0.517936,0.268309,-0.774944,-3.329203,-0.650411,-0.646992,147.644043,-196.960449,522.705078,0,0
15790,2024 10 07,05:26:21.569,-0.197328,-0.523146,0.284282,-0.778822,-3.242775,-1.178259,-0.61623,159.240723,-201.049805,498.901367,0,0
15791,2024 10 07,05:26:21.578,-0.152761,-0.528847,0.297831,-0.779924,-3.053804,-1.657765,-0.846706,161.499023,-218.261719,465.515137,0,0
15792,2024 10 07,05:26:21.586,-0.152761,-0.528847,0.297831,-0.779924,-3.053804,-1.657765,-0.846706,161.499023,-218.261719,465.515137,0,0
15793,2024 10 07,05:26:21.594,-0.110051,-0.536636,0.310037,-0.777037,-3.098239,-2.256417,-1.032746,146.606445,-255.065918,428.710938,0,0
15794,2024 10 07,05:26:21.603,-0.071017,-0.546965,0.32143,-0.76972,-3.581652,-3.115818,-1.162633,116.149902,-289.0625,375.732422,0,0
15795,2024 10 07,05:26:21.611,-0.03819,-0.559402,0.331257,-0.758868,-3.964476,-3.828242,-0.446791,78.613281,-297.119141,302.124023,0,0
15796,2024 10 07,05:26:21.619,-0.012494,-0.570839,0.338625,-0.747877,-3.960082,-3.814569,0.200201,58.59375,-254.821777,235.961914,0,0
15797,2024 10 07,05:26:21.628,0.008656,-0.579802,0.342951,-0.739012,-3.480575,-3.696402,1.293008,70.251465,-201.660156,191.345215,0,0
15798,2024 10 07,05:26:21.636,0.008656,-0.579802,0.342951,-0.739012,-3.480575,-3.696402,1.293008,70.251465,-201.660156,191.345215,0,0
15799,2024 10 07,05:26:21.644,0.025849,-0.583869,0.342845,-0.73545,-2.062075,-3.684683,1.916074,102.416992,-112.426758,139.282227,0,0
15800,2024 10 07,05:26:21.653,0.04046,-0.589258,0.337412,-0.733001,-2.941008,-4.607074,1.184606,129.760742,-135.131836,74.829102,0,0
15801,2024 10 07,05:26:21.661,0.049618,-0.592359,0.329283,-0.733636,-2.961028,-5.12125,0.74221,124.023438,-24.902344,31.311035,0,0
15802,2024 10 07,05:26:21.669,0.051111,-0.589434,0.32164,-0.739259,-1.939024,-4.786279,-0.915555,78.857422,58.71582,-13.61084,0,0
15803,2024 10 07,05:26:21.678,0.036087,-0.60998,0.30049,-0.732344,1.127476,-7.647206,3.872188,106.872559,-257.751465,-433.349609,0,0
15804,2024 10 07,05:26:21.686,0.036087,-0.60998,0.30049,-0.732344,1.127476,-7.647206,3.872189,106.872559,-257.751465,-433.349609,0,0
15805,2024 10 07,05:26:21.694,-0.005746,-0.625164,0.280131,-0.728467,0.058107,-0.047853,-3.116306,-88.745117,-41.564941,-535.827637,0,0
15806,2024 10 07,05:26:21.703,-0.029634,-0.659663,0.250836,-0.707847,-3.91467,1.044465,-2.46736,-163.757324,-424.133301,-553.894043,1,0
15807,2024 10 07,05:26:21.711,-0.061454,-0.698355,0.227951,-0.675694,-6.26191,-1.333048,-0.493179,-22.766113,-420.776367,-528.442383,0,0
15808,2024 10 07,05:26:21.719,-0.089796,-0.707438,0.20055,-0.67175,-3.487899,1.277383,5.358562,-31.616211,164.306641,-415.893555,0,0
15809,2024 10 07,05:26:21.728,-0.096318,-0.680389,0.166799,-0.707087,-1.371624,-2.337473,-3.959594,318.481445,558.044434,-153.747559,0,0
15810,2024 10 07,05:26:21.736,-0.096318,-0.680389,0.166799,-0.707087,-1.371624,-2.337474,-3.959594,318.481445,558.044434,-153.747559,0,0
15811,2024 10 07,05:26:21.744,-0.096353,-0.676542,0.156346,-0.713136,-0.978545,-1.086459,-3.812128,-22.399902,-77.026367,-48.278809,0,0
15812,2024 10 07,05:26:21.753,-0.103137,-0.689617,0.159903,-0.698729,-1.949278,1.135777,3.97473,-33.630371,-118.591309,-59.875488,0,0
15813,2024 10 07,05:26:21.761,-0.100772,-0.67767,0.15064,-0.712683,-0.539079,-0.829127,-1.510788,113.098145,244.506836,-10.192871,0,0
15814,2024 10 07,05:26:21.769,-0.101528,-0.673303,0.147901,-0.717273,-0.639668,-0.014649,-0.734886,-11.413574,16.601563,-13.61084,0,0
15815,2024 10 07,05:26:21.778,-0.102436,-0.675656,0.148795,-0.714742,-1.373089,0.287606,0.986358,-7.385254,-19.65332,-4.943848,0,0
15816,2024 10 07,05:26:21.786,-0.102436,-0.675656,0.148795,-0.714742,-1.373089,0.287606,0.986358,-7.385254,-19.65332,-4.943848,0,0
15817,2024 10 07,05:26:21.794,-0.101562,-0.671435,0.146709,-0.719261,-0.924833,-0.065432,-0.244148,28.320313,83.068848,4.577637,0,0
15818,2024 10 07,05:26:21.803,-0.101102,-0.668922,0.145743,-0.72186,-1.003449,0.024903,-0.159673,9.82666,24.047852,4.211426,0,0
15819,2024 10 07,05:26:21.811,-0.100299,-0.668185,0.145419,-0.722719,-1.122105,0.06592,0.21778,11.047363,16.906738,7.507324,0,0
15820,2024 10 07,05:26:21.819,-0.099533,-0.666045,0.144827,-0.724915,-1.036164,0.024903,-0.031251,9.277344,35.827637,7.385254,0,0
15821,2024 10 07,05:26:21.828,-0.099507,-0.664518,0.144765,-0.726332,-1.004913,0.025391,0.030763,-1.464844,19.470215,2.807617,0,0
15822,2024 10 07,05:26:21.836,-0.099507,-0.664518,0.144765,-0.726332,-1.004913,0.025391,0.030763,-1.464844,19.470215,2.807617,0,0
15823,2024 10 07,05:26:21.844,-0.100313,-0.663662,0.145163,-0.726924,-1.016144,0.050783,0.084475,-11.352539,11.230469,-2.624512,0,0
15824,2024 10 07,05:26:21.853,-0.101748,-0.663043,0.14587,-0.727147,-1.038606,0.027345,-0.006348,-19.836426,7.080078,-6.164551,0,0
15825,2024 10 07,05:26:21.861,-0.103945,-0.662727,0.146965,-0.726904,-1.02884,0.083987,0.104495,-27.770996,2.990723,-10.559082,0,0
15826,2024 10 07,05:26:21.869,-0.106359,-0.662307,0.147911,-0.726745,-1.030305,0.097659,0.030763,-26.062012,5.493164,-13.122559,0,0
15827,2024 10 07,05:26:21.878,-0.108858,-0.662014,0.148552,-0.726512,-1.045442,0.11182,0.012207,-24.963379,3.967285,-17.028809,0,0
15828,2024 10 07,05:26:21.886,-0.108858,-0.662014,0.148552,-0.726512,-1.045442,0.11182,0.012207,-24.963379,3.967285,-17.028809,0,0
15829,2024 10 07,05:26:21.894,-0.111521,-0.661705,0.148822,-0.726334,-1.043001,0.10596,0.074221,-22.338867,6.652832,-21.179199,0,0
15830,2024 10 07,05:26:21.903,-0.114412,-0.661157,0.148577,-0.726434,-1.004913,0.118168,0.057619,-19.470215,11.108398,-26.550293,0,0
15831,2024 10 07,05:26:21.911,-0.117395,-0.660631,0.147821,-0.726591,-0.990753,0.119144,0.094241,-15.441895,12.023926,-30.517578,0,0
15832,2024 10 07,05:26:21.919,-0.120182,-0.659975,0.146564,-0.726986,-0.980499,0.0918,0.079592,-9.643555,15.686035,-31.677246,0,0
15833,2024 10 07,05:26:21.928,-0.122769,-0.659269,0.144846,-0.727538,-1.010285,0.103519,0.115238,-3.479004,17.028809,-33.447266,0,0
15834,2024 10 07,05:26:21.936,-0.122769,-0.659269,0.144846,-0.727538,-1.010285,0.103519,0.115238,-3.479004,17.028809,-33.447266,0,0
15835,2024 10 07,05:26:21.944,-0.124904,-0.658508,0.142567,-0.728314,-0.966338,0.004883,0.093265,4.02832,19.470215,-32.775879,0,0
15836,2024 10 07,05:26:21.953,-0.127189,-0.658,0.140262,-0.728825,-0.977081,0.050783,0.105472,1.525879,12.756348,-35.705566,0,0
15837,2024 10 07,05:26:21.961,-0.129277,-0.657783,0.137761,-0.72913,-0.984405,0.033692,0.12598,6.347656,11.047363,-35.400391,0,0
15838,2024 10 07,05:26:21.969,-0.131273,-0.657678,0.135067,-0.729372,-1.029817,0.057619,0.124027,7.385254,9.399414,-37.109375,0,0
15839,2024 10 07,05:26:21.978,-0.13306,-0.657605,0.132057,-0.729666,-0.96878,-0.093753,0.112308,15.319824,10.864258,-36.254883,0,0
15840,2024 10 07,05:26:21.986,-0.135399,-0.657566,0.129469,-0.729734,-0.890164,-0.006348,0.093265,0.793457,5.67627,-39.367676,0,0
15841,2024 10 07,05:26:21.994,-0.135399,-0.657566,0.129469,-0.729734,-0.890164,-0.006348,0.093265,0.793457,5.67627,-39.367676,0,0
15842,2024 10 07,05:26:22.003,-0.13826,-0.658415,0.127498,-0.728779,-0.901883,-0.032228,0.16895,-7.751465,-10.681152,-42.358398,0,0
15843,2024 10 07,05:26:22.011,-0.141537,-0.659888,0.125941,-0.727086,-1.007355,-0.003418,0.096683,-13.549805,-20.812988,-44.372559,0,0
15844,2024 10 07,05:26:22.019,-0.145111,-0.661927,0.124529,-0.724767,-1.115757,0.012207,0.17188,-15.441895,-28.808594,-48.400879,0,0
15845,2024 10 07,05:26:22.028,-0.149212,-0.664024,0.122867,-0.722296,-1.207556,0.024903,0.08887,-18.310547,-26.733398,-56.152344,0,0
15846,2024 10 07,05:26:22.036,-0.154,-0.666133,0.120795,-0.719694,-1.35551,0.038575,0.070315,-20.690918,-28.259277,-66.28418,0,0
15847,2024 10 07,05:26:22.044,-0.154,-0.666133,0.120795,-0.719694,-1.35551,0.038575,0.070315,-20.690918,-28.259277,-66.28418,0,0
15848,2024 10 07,05:26:22.053,-0.160069,-0.668234,0.118145,-0.716857,-1.490768,0.093265,0.107425,-24.597168,-24.230957,-83.068848,0,0
15849,2024 10 07,05:26:22.061,-0.167683,-0.670268,0.114432,-0.713812,-1.685598,0.079592,0.029786,-30.578613,-22.338867,-106.872559,0,0
15850,2024 10 07,05:26:22.069,-0.177675,-0.67182,0.109763,-0.710663,-1.853572,0.075198,-0.047365,-43.640137,-10.864258,-133.239746,0,0
15851,2024 10 07,05:26:22.078,-0.190251,-0.672235,0.103944,-0.707884,-1.768609,0.226081,0.161138,-52.734375,9.521484,-162.109375,0,0
15852,2024 10 07,05:26:22.086,-0.203708,-0.671465,0.095662,-0.706036,-1.677297,0.254891,0.081545,-34.790039,29.602051,-183.47168,0,0
15853,2024 10 07,05:26:22.094,-0.203708,-0.671465,0.095662,-0.706036,-1.677297,0.254891,0.081545,-34.790039,29.602051,-183.47168,0,0
15854,2024 10 07,05:26:22.103,-0.217207,-0.670819,0.084761,-0.704016,-2.023011,0.368664,0.130375,-14.038086,28.930664,-206.298828,0,0
15855,2024 10 07,05:26:22.111,-0.23222,-0.670275,0.070994,-0.701259,-2.540117,0.566912,0.15186,-6.04248,36.376953,-250.183105,0,0
15856,2024 10 07,05:26:22.119,-0.249854,-0.668525,0.05302,-0.698453,-3.027925,0.794946,-0.113773,5.79834,61.584473,-309.020996,0,0
15857,2024 10 07,05:26:22.128,-0.27048,-0.66591,0.029892,-0.69463,-3.675405,0.961943,-0.259285,18.920898,76.23291,-380.126953,0,0
15858,2024 10 07,05:26:22.136,-0.295223,-0.660695,0.000937,-0.690163,-4.170537,1.190466,-0.12891,25.878906,126.098633,-464.294434,0,0
15859,2024 10 07,05:26:22.144,-0.295223,-0.660695,0.000937,-0.690163,-4.170537,1.190466,-0.12891,25.878906,126.098633,-464.294434,0,0
15860,2024 10 07,05:26:22.153,-0.323711,-0.650698,-0.034946,-0.68599,-4.237922,1.005402,-0.165044,36.071777,184.692383,-546.630859,0,0
15861,2024 10 07,05:26:22.161,-0.354909,-0.637292,-0.076007,-0.679795,-4.476699,0.815943,0.204596,46.875,211.181641,-610.595703,0,0
15862,2024 10 07,05:26:22.169,-0.386203,-0.621569,-0.120887,-0.670735,-4.392712,0.182623,-0.377941,73.791504,205.810547,-647.094727,0,0
15863,2024 10 07,05:26:22.178,-0.418474,-0.602881,-0.165342,-0.658844,-3.555773,0.873562,-0.1377,31.37207,225.708008,-662.231445,0,1
15864,2024 10 07,05:26:22.186,-0.450283,-0.580864,-0.207568,-0.645568,-3.740837,1.657765,-0.819849,20.202637,214.294434,-650.817871,0,0
15865,2024 10 07,05:26:22.194,-0.450283,-0.580864,-0.207568,-0.645568,-3.740837,1.657765,-0.819849,20.202637,214.294434,-650.817871,0,0
15866,2024 10 07,05:26:22.203,-0.47906,-0.559483,-0.247875,-0.629316,-3.317484,1.689993,-0.598163,38.452148,198.181152,-633.178711,0,0
15867,2024 10 07,05:26:22.211,-0.50509,-0.538136,-0.286254,-0.611025,-2.190008,2.023988,-1.059603,42.602539,162.353516,-605.407715,0,0
15868,2024 10 07,05:26:22.219,-0.53074,-0.520057,-0.315527,-0.590168,0.364269,1.827204,-2.512772,-18.737793,75.439453,-523.803711,0,0
15869,2024 10 07,05:26:22.228,-0.547309,-0.500046,-0.332252,-0.583109,3.534287,4.168584,-1.999084,-78.24707,152.160645,-246.459961,0,0
15870,2024 10 07,05:26:22.236,-0.550438,-0.502376,-0.326056,-0.581655,-0.378918,2.568926,-0.201666,-115.905762,-160.827637,111.26709,0,0
15871,2024 10 07,05:26:22.244,-0.550438,-0.502376,-0.326056,-0.581655,-0.378918,2.568926,-0.201666,-115.905762,-160.827637,111.26709,0,0
15872,2024 10 07,05:26:22.253,-0.539299,-0.510994,-0.304712,-0.595979,-2.005921,2.521073,-0.247566,-9.887695,8.972168,358.032227,0,0
15873,2024 10 07,05:26:22.261,-0.517397,-0.517264,-0.287958,-0.617915,-1.423872,1.895566,-1.174841,-18.859863,33.874512,398.864746,0,0
15874,2024 10 07,05:26:22.269,-0.496428,-0.526922,-0.270306,-0.634702,-1.38432,1.105991,0.036134,-5.004883,16.906738,359.191895,0,0
15875,2024 10 07,05:26:22.278,-0.477161,-0.53072,-0.256441,-0.651838,-0.074221,0.71926,-1.612354,-20.507813,50.048828,318.969727,0,0
15876,2024 10 07,05:26:22.286,-0.461284,-0.538671,-0.23752,-0.663803,0.013672,0.873074,-0.701682,-48.706055,-62.561035,325.500488,0,0
15877,2024 10 07,05:26:22.294,-0.461284,-0.538671,-0.23752,-0.663803,0.013672,0.873074,-0.701682,-48.706055,-62.561035,325.500488,0,0
15878,2024 10 07,05:26:22.303,-0.444749,-0.54786,-0.21389,-0.675498,-0.266121,1.052278,-0.857448,-67.382813,-80.932617,367.06543,0,0
15879,2024 10 07,05:26:22.311,-0.426471,-0.559427,-0.185376,-0.686148,-0.897488,1.242225,-0.305673,-75.561523,-130.737305,407.775879,0,0
15880,2024 10 07,05:26:22.319,-0.405371,-0.570432,-0.154937,-0.697335,-1.298868,1.131382,-0.268563,-71.594238,-107.421875,437.866211,0,0
15881,2024 10 07,05:26:22.328,-0.381721,-0.579412,-0.124489,-0.709277,-1.349162,0.903836,-0.195318,-65.795898,-86.05957,454.284668,0,0
15882,2024 10 07,05:26:22.336,-0.356586,-0.586403,-0.094364,-0.721161,-1.169469,0.69924,-0.253426,-63.781738,-66.589355,459.533691,0,0
15883,2024 10 07,05:26:22.344,-0.356586,-0.586403,-0.094364,-0.721161,-1.169469,0.69924,-0.253426,-63.781738,-66.589355,459.533691,0,0
15884,2024 10 07,05:26:22.353,-0.331347,-0.592413,-0.064015,-0.731545,-1.001984,0.503433,-0.382336,-70.068359,-79.284668,453.735352,0,0
15885,2024 10 07,05:26:22.361,-0.306948,-0.598976,-0.032712,-0.738878,-1.171911,0.38966,-0.391614,-80.627441,-111.328125,441.833496,0,0
15886,2024 10 07,05:26:22.369,-0.283621,-0.606179,-0.000619,-0.743038,-1.394086,0.416517,-0.295419,-90.270996,-139.282227,427.124023,0,0
15887,2024 10 07,05:26:22.378,-0.260904,-0.613552,0.03159,-0.744637,-1.597217,0.536149,-0.17774,-92.834473,-156.860352,415.100098,0,0
15888,2024 10 07,05:26:22.386,-0.237861,-0.621087,0.063345,-0.744083,-1.799371,0.703635,0.024903,-83.496094,-172.241211,409.362793,0,0
15889,2024 10 07,05:26:22.394,-0.237861,-0.621087,0.063345,-0.744083,-1.799371,0.703635,0.024903,-83.496094,-172.241211,409.362793,0,0
15890,2024 10 07,05:26:22.403,-0.21351,-0.628516,0.094081,-0.741977,-1.946837,0.802759,0.087893,-64.086914,-179.626465,410.095215,0,0
15891,2024 10 07,05:26:22.411,-0.18737,-0.636377,0.123549,-0.738006,-2.133366,0.855007,0.151372,-41.015625,-200.805664,410.949707,0,0
15892,2024 10 07,05:26:22.419,-0.15946,-0.645123,0.151454,-0.731744,-2.424879,0.862331,0.202643,-15.686035,-224.365234,407.531738,0,0
15893,2024 10 07,05:26:22.428,-0.129958,-0.654686,0.17747,-0.723188,-2.744713,0.761254,0.259285,9.216309,-248.10791,402.282715,0,0
15894,2024 10 07,05:26:22.436,-0.098648,-0.66476,0.201692,-0.712519,-3.214942,0.457533,0.353526,33.630371,-267.883301,403.747559,0,0
15895,2024 10 07,05:26:22.444,-0.065763,-0.67359,0.224301,-0.701171,-3.567003,-0.250984,0.471206,53.894043,-256.958008,410.583496,0,0
15896,2024 10 07,05:26:22.453,-0.065763,-0.67359,0.224301,-0.701171,-3.567003,-0.250984,0.471206,53.894043,-256.958008,410.583496,0,0
15897,2024 10 07,05:26:22.461,-0.033165,-0.680068,0.24505,-0.690187,-3.829218,-1.353069,0.416028,62.133789,-234.619141,400.512695,0,0
15898,2024 10 07,05:26:22.469,-0.00347,-0.685063,0.263326,-0.679217,-4.077273,-2.413648,0.502945,54.931641,-210.571289,363.220215,0,0
15899,2024 10 07,05:26:22.478,0.02061,-0.687842,0.27871,-0.669902,-3.525498,-3.125095,0.711936,36.376953,-161.193848,305.236816,0,0
15900,2024 10 07,05:26:22.486,0.039316,-0.690375,0.291092,-0.661137,-2.797937,-3.438581,1.130406,20.507813,-152.038574,243.652344,0,0
15901,2024 10 07,05:26:22.494,0.054978,-0.694625,0.300126,-0.651458,-2.541581,-3.574816,1.990783,21.42334,-167.236328,191.040039,0,0
15902,2024 10 07,05:26:22.503,0.054978,-0.694625,0.300126,-0.651458,-2.541581,-3.574816,1.990783,21.42334,-167.236328,191.040039,0,0
15903,2024 10 07,05:26:22.511,0.068506,-0.69819,0.305139,-0.643994,-2.728111,-3.947386,2.42439,49.255371,-127.624512,145.812988,0,0
15904,2024 10 07,05:26:22.519,0.079174,-0.699677,0.306127,-0.640679,-2.811121,-4.824366,2.008362,61.401367,-77.270508,97.473145,0,0
15905,2024 10 07,05:26:22.528,0.084682,-0.698858,0.304144,-0.641813,-2.551347,-5.671072,1.389203,58.959961,7.568359,43.701172,0,0
15906,2024 10 07,05:26:22.536,0.082784,-0.697187,0.30148,-0.645125,-1.962462,-5.23014,0.683126,4.150391,35.827637,-15.319824,0,0
15907,2024 10 07,05:26:22.544,0.065122,-0.709372,0.29631,-0.6362,-4.314096,-6.057314,6.332224,-232.666016,-227.905273,-295.715332,0,0
15908,2024 10 07,05:26:22.553,0.065122,-0.709372,0.29631,-0.6362,-4.314096,-6.057314,6.332224,-232.666016,-227.905273,-295.715332,0,0
15909,2024 10 07,05:26:22.561,0.020087,-0.714709,0.27986,-0.640676,-1.149449,-0.980011,-1.112339,-316.711426,256.958008,-472.839355,1,0
15910,2024 10 07,05:26:22.569,-0.023045,-0.712482,0.261766,-0.650628,-0.245613,0.906766,-1.294961,-122.98584,138.671875,-449.645996,0,0
15911,2024 10 07,05:26:22.578,-0.054594,-0.725748,0.244275,-0.640811,-3.223243,1.446821,0.062014,-92.407227,-102.478027,-405.761719,0,0
15912,2024 10 07,05:26:22.586,-0.072509,-0.728526,0.220126,-0.644622,-2.718345,-0.06885,1.794488,39.611816,160.888672,-320.19043,0,0
15913,2024 10 07,05:26:22.594,-0.084767,-0.716271,0.194892,-0.664671,-1.125034,-0.450209,-0.560076,144.775391,302.856445,-224.42627,0,0
15914,2024 10 07,05:26:22.603,-0.084767,-0.716271,0.194892,-0.664671,-1.125034,-0.450209,-0.560076,144.775391,302.856445,-224.42627,0,0
15915,2024 10 07,05:26:22.611,-0.089121,-0.709647,0.175576,-0.676485,-1.729545,-0.656758,-0.551286,127.502441,141.784668,-139.526367,0,0
15916,2024 10 07,05:26:22.619,-0.089811,-0.702384,0.161375,-0.687422,-1.511765,0.294443,0.351085,123.22998,184.204102,-79.040527,0,0
15917,2024 10 07,05:26:22.628,-0.084527,-0.691083,0.146623,-0.702681,-0.904813,-0.464858,-0.41847,184.082031,212.768555,-30.395508,0,0
15918,2024 10 07,05:26:22.636,-0.080109,-0.682729,0.136153,-0.71339,-0.909696,-0.230964,-0.127934,111.022949,136.71875,-18.249512,0,0
15919,2024 10 07,05:26:22.644,-0.076587,-0.676618,0.129084,-0.720874,-1.009308,-0.021485,0.168462,87.219238,107.36084,-5.615234,0,0
15920,2024 10 07,05:26:22.653,-0.076587,-0.676618,0.129084,-0.720874,-1.009308,-0.021485,0.168462,87.219238,107.36084,-5.615234,0,0
15921,2024 10 07,05:26:22.661,-0.072502,-0.67046,0.123024,-0.728074,-0.9429,-0.143559,0.019532,85.693359,103.149414,4.943848,0,0
15922,2024 10 07,05:26:22.669,-0.069947,-0.665378,0.118949,-0.733642,-0.752953,-0.007813,0.262703,47.790527,77.270508,1.464844,0,0
15923,2024 10 07,05:26:22.678,-0.068198,-0.662256,0.116127,-0.737075,-0.906766,-0.050295,0.070315,36.437988,44.433594,0.427246,0,0
15924,2024 10 07,05:26:22.686,-0.067207,-0.660589,0.114207,-0.738961,-0.926786,0.007324,0.157231,22.399902,23.31543,-2.807617,0,0
15925,2024 10 07,05:26:22.694,-0.067042,-0.659556,0.112909,-0.740097,-0.956572,0.093753,0.22071,10.498047,17.028809,-7.202148,0,0
15926,2024 10 07,05:26:22.703,-0.067042,-0.659556,0.112909,-0.740097,-0.956572,0.093753,0.22071,10.498047,17.028809,-7.202148,0,0
15927,2024 10 07,05:26:22.711,-0.067328,-0.65898,0.111608,-0.74078,-1.024445,0.067385,0.057131,8.178711,7.69043,-12.573242,0,0
15928,2024 10 07,05:26:22.719,-0.068331,-0.6591,0.11044,-0.740757,-1.083041,0.100101,0.187506,1.831055,0.244141,-18.859863,0,0
15929,2024 10 07,05:26:22.728,-0.069728,-0.65894,0.109073,-0.740971,-1.06888,0.046876,0.041993,-0.061035,7.446289,-22.888184,0,0
15930,2024 10 07,05:26:22.736,-0.071771,-0.658817,0.107906,-0.741057,-1.039582,0.033204,0.009766,-7.568359,3.845215,-26.855469,0,0
15931,2024 10 07,05:26:22.744,-0.074357,-0.658932,0.107034,-0.740826,-1.064486,0.079104,0.094729,-12.817383,1.708984,-29.11377,0,0
15932,2024 10 07,05:26:22.753,-0.074357,-0.658932,0.107034,-0.740826,-1.064486,0.079104,0.094729,-12.817383,1.708984,-29.11377,0,0
15933,2024 10 07,05:26:22.761,-0.076879,-0.658686,0.106056,-0.740928,-0.997101,0.081545,0.125492,-9.94873,8.544922,-28.259277,0,0
15934,2024 10 07,05:26:22.769,-0.079003,-0.658302,0.104748,-0.741232,-0.959502,0.075686,0.14893,-2.563477,8.422852,-27.038574,0,0
15935,2024 10 07,05:26:22.778,-0.080726,-0.658191,0.103115,-0.741374,-1.00589,0.04883,0.06592,1.342773,4.089355,-26.977539,0,0
15936,2024 10 07,05:26:22.786,-0.082445,-0.658429,0.101346,-0.741217,-1.072787,0.018555,-0.004883,2.075195,0.12207,-28.930664,0,0
15937,2024 10 07,05:26:22.794,-0.084436,-0.658712,0.099679,-0.740968,-1.02298,0.003906,0.080081,-3.051758,-0.061035,-30.517578,0,0
15938,2024 10 07,05:26:22.803,-0.084436,-0.658712,0.099679,-0.740968,-1.02298,0.003906,0.080081,-3.051758,-0.061035,-30.517578,0,0
15939,2024 10 07,05:26:22.811,-0.08668,-0.658972,0.098062,-0.740693,-1.001495,0.007813,0.143071,-2.685547,-0.610352,-32.043457,0,0
15940,2024 10 07,05:26:22.819,-0.088919,-0.659421,0.096275,-0.740263,-1.001007,0.043947,0.134281,-0.244141,-4.211426,-33.630371,0,0
15941,2024 10 07,05:26:22.828,-0.091089,-0.660075,0.094276,-0.739673,-0.987823,0.04004,0.172857,-0.488281,-5.859375,-35.583496,0,0
15942,2024 10 07,05:26:22.836,-0.09326,-0.660732,0.092188,-0.739079,-0.992706,-0.008789,0.10596,1.464844,-5.737305,-35.644531,0,0
15943,2024 10 07,05:26:22.844,-0.095507,-0.661443,0.090138,-0.738408,-1.014679,-0.023927,0.107913,0.183105,-7.080078,-35.949707,0,0
15944,2024 10 07,05:26:22.853,-0.097982,-0.662324,0.088246,-0.737522,-1.054231,-0.027833,0.079592,-4.150391,-9.94873,-37.353516,0,0
15945,2024 10 07,05:26:22.861,-0.097982,-0.662324,0.088246,-0.737522,-1.054231,-0.027833,0.079592,-4.150391,-9.94873,-37.353516,0,0
15946,2024 10 07,05:26:22.869,-0.100801,-0.66295,0.086425,-0.736796,-1.094272,-0.075198,0.027833,-7.263184,-3.417969,-39.428711,0,0
15947,2024 10 07,05:26:22.878,-0.104255,-0.663084,0.084844,-0.736378,-1.121128,-0.077639,0.005371,-15.136719,2.13623,-42.419434,0,0
15948,2024 10 07,05:26:22.886,-0.10866,-0.663023,0.083545,-0.735944,-1.104526,-0.038087,0.120121,-25.024414,4.333496,-48.583984,0,0
15949,2024 10 07,05:26:22.894,-0.113713,-0.662566,0.082306,-0.735732,-1.118686,-0.016602,0.118656,-30.334473,8.972168,-52.978516,0,0
15950,2024 10 07,05:26:22.903,-0.119298,-0.66185,0.080896,-0.735648,-1.152867,-0.006348,0.137211,-32.226563,14.343262,-58.959961,0,0
15951,2024 10 07,05:26:22.911,-0.119298,-0.66185,0.080896,-0.735648,-1.152867,-0.006348,0.137211,-32.226563,14.343262,-58.959961,0,0
15952,2024 10 07,05:26:22.919,-0.12555,-0.660695,0.079216,-0.735829,-1.169958,0.009766,0.163579,-35.705566,20.812988,-66.223145,0,0
15953,2024 10 07,05:26:22.928,-0.132317,-0.659613,0.077154,-0.735833,-1.179724,0.024415,0.118656,-34.484863,15.258789,-74.21875,0,0
15954,2024 10 07,05:26:22.936,-0.139601,-0.658851,0.074567,-0.735437,-1.279336,0.044923,0.21778,-33.874512,14.465332,-84.228516,0,0
15955,2024 10 07,05:26:22.944,-0.147667,-0.657945,0.071231,-0.735002,-1.359905,0.034669,0.053713,-35.522461,16.357422,-97.351074,0,0
15956,2024 10 07,05:26:22.953,-0.156935,-0.657252,0.067357,-0.734067,-1.443403,0.10596,0.195807,-40.222168,13.549805,-113.464355,0,0
15957,2024 10 07,05:26:22.961,-0.156935,-0.657252,0.067357,-0.734067,-1.443403,0.10596,0.195807,-40.222168,13.549805,-113.464355,0,0
15958,2024 10 07,05:26:22.969,-0.167023,-0.656315,0.062226,-0.733132,-1.542039,0.14893,0.297861,-33.996582,18.493652,-130.432129,0,0
15959,2024 10 07,05:26:22.978,-0.177777,-0.655128,0.055367,-0.732214,-1.557665,0.192389,0.236824,-20.629883,24.047852,-149.414063,0,0
15960,2024 10 07,05:26:22.986,-0.18863,-0.654495,0.046245,-0.730696,-1.684133,0.190924,0.155278,-2.990723,16.357422,-169.86084,0,0
15961,2024 10 07,05:26:22.994,-0.199833,-0.653759,0.03465,-0.729016,-2.190496,0.284677,0.30665,16.296387,28.869629,-194.274902,0,0
15962,2024 10 07,05:26:23.003,-0.212613,-0.651934,0.019839,-0.727588,-2.491287,0.340831,-0.058596,26.428223,46.447754,-236.022949,0,0
15963,2024 10 07,05:26:23.011,-0.212613,-0.651934,0.019839,-0.727588,-2.491287,0.340831,-0.058596,26.428223,46.447754,-236.022949,0,0
15964,2024 10 07,05:26:23.019,-0.228296,-0.649487,0.001843,-0.725289,-3.104099,0.321787,-0.133305,24.169922,59.204102,-289.794922,0,0
15965,2024 10 07,05:26:23.028,-0.247918,-0.643781,-0.020129,-0.723655,-3.233985,0.430189,-0.853542,23.132324,106.567383,-354.919434,0,0
15966,2024 10 07,05:26:23.036,-0.272234,-0.638103,-0.045438,-0.718783,-3.845332,0.579608,0.007324,11.169434,82.519531,-432.861328,0,0
15967,2024 10 07,05:26:23.044,-0.301389,-0.627331,-0.075534,-0.714083,-3.941526,0.48732,-0.471206,-6.286621,152.160645,-513.671875,0,0
15968,2024 10 07,05:26:23.053,-0.334915,-0.613924,-0.109707,-0.706324,-4.131962,0.318369,-0.349132,-0.488281,144.40918,-588.989258,0,0
15969,2024 10 07,05:26:23.061,-0.334915,-0.613924,-0.109707,-0.706324,-4.131962,0.318369,-0.349132,-0.488281,144.40918,-588.989258,0,0
15970,2024 10 07,05:26:23.069,-0.369703,-0.598382,-0.145672,-0.695728,-4.700339,0.406751,0.164068,-0.061035,158.38623,-612.854004,0,1
15971,2024 10 07,05:26:23.078,-0.403473,-0.578519,-0.181565,-0.685244,-3.554308,0.420911,-0.253914,-13.549805,189.39209,-608.093262,0,0
15972,2024 10 07,05:26:23.086,-0.435844,-0.558307,-0.213885,-0.672745,-3.188086,0.855007,-0.605487,-29.11377,151.428223,-571.105957,0,0
15973,2024 10 07,05:26:23.094,-0.465995,-0.53951,-0.240696,-0.658668,-3.016205,1.135777,-0.613788,-59.814453,117.126465,-527.648926,0,0
15974,2024 10 07,05:26:23.103,-0.49525,-0.5192,-0.261549,-0.645563,-0.453627,1.119663,-2.078188,-107.971191,98.999023,-473.754883,0,0
15975,2024 10 07,05:26:23.111,-0.49525,-0.5192,-0.261549,-0.645563,-0.453627,1.119663,-2.078188,-107.971191,98.999023,-473.754883,0,0
15976,2024 10 07,05:26:23.119,-0.522333,-0.499498,-0.270864,-0.635847,3.168066,1.735404,-4.591937,-228.69873,60.241699,-315.856934,0,0
15977,2024 10 07,05:26:23.128,-0.544424,-0.491209,-0.255867,-0.629959,-1.343303,1.785699,0.750511,-291.870117,-199.035645,-74.462891,0,0
15978,2024 10 07,05:26:23.136,-0.556047,-0.480606,-0.232658,-0.636945,-1.543016,2.843349,-1.345256,-317.687988,-0.061035,74.645996,0,0
15979,2024 10 07,05:26:23.144,-0.559214,-0.472728,-0.213505,-0.646702,-0.760277,2.547929,-0.001953,-189.208984,-29.11377,124.633789,0,0
15980,2024 10 07,05:26:23.153,-0.555942,-0.468474,-0.201118,-0.656515,0.411145,1.793023,-0.927763,-101.379395,25.32959,136.352539,0,0
15981,2024 10 07,05:26:23.161,-0.555942,-0.468474,-0.201118,-0.656515,0.411145,1.793023,-0.927763,-101.379395,25.32959,136.352539,0,0
15982,2024 10 07,05:26:23.169,-0.550702,-0.471213,-0.190871,-0.662007,1.125034,1.503464,-1.148473,-28.686523,-74.462891,136.047363,0,0
15983,2024 10 07,05:26:23.178,-0.544684,-0.482609,-0.178134,-0.662326,0.458998,1.344768,-1.182165,17.028809,-177.124023,144.348145,0,0
15984,2024 10 07,05:26:23.186,-0.537176,-0.500325,-0.162894,-0.659228,-0.265633,1.247108,-0.767602,49.560547,-240.41748,160.400391,0,0
15985,2024 10 07,05:26:23.194,-0.527287,-0.520969,-0.146475,-0.655061,-0.6592,1.04593,-0.669942,71.472168,-266.113281,182.800293,0,0
15986,2024 10 07,05:26:23.203,-0.515329,-0.542858,-0.128563,-0.650547,-0.921415,0.761742,-0.385754,76.049805,-277.160645,206.176758,0,0
15987,2024 10 07,05:26:23.211,-0.515329,-0.542858,-0.128563,-0.650547,-0.921415,0.761742,-0.385754,76.049805,-277.160645,206.176758,0,0
15988,2024 10 07,05:26:23.219,-0.502304,-0.563975,-0.108592,-0.646398,-1.002472,0.509293,-0.268075,57.189941,-280.700684,227.233887,0,0
15989,2024 10 07,05:26:23.228,-0.489475,-0.583804,-0.085428,-0.642097,-1.073275,0.346202,-0.012207,20.690918,-292.541504,242.980957,0,0
15990,2024 10 07,05:26:23.236,-0.478013,-0.601635,-0.058577,-0.637266,-1.256386,0.28956,0.271981,-28.381348,-303.710938,250.366211,0,0
15991,2024 10 07,05:26:23.244,-0.46874,-0.616983,-0.028166,-0.631522,-1.457564,0.239265,0.517594,-83.251953,-314.63623,250.488281,0,0
15992,2024 10 07,05:26:23.253,-0.461906,-0.629416,0.005653,-0.624857,-1.716849,0.377453,0.853542,-138.916016,-315.917969,251.708984,0,0
15993,2024 10 07,05:26:23.261,-0.461906,-0.629416,0.005653,-0.624857,-1.716849,0.377453,0.853542,-138.916016,-315.917969,251.708984,0,0
15994,2024 10 07,05:26:23.269,-0.45676,-0.637921,0.04181,-0.61861,-1.834529,0.588397,1.063997,-184.509277,-293.151855,259.460449,0,0
15995,2024 10 07,05:26:23.278,-0.452487,-0.642132,0.079332,-0.613701,-1.777886,0.713889,1.169958,-219.055176,-258.544922,272.460938,0,0
15996,2024 10 07,05:26:23.286,-0.448691,-0.642582,0.117563,-0.609872,-1.628468,0.749046,1.108432,-244.506836,-231.933594,282.165527,0,0
15997,2024 10 07,05:26:23.294,-0.445271,-0.640556,0.156416,-0.605769,-1.543504,0.747581,1.027863,-264.282227,-223.327637,284.851074,0,0
15998,2024 10 07,05:26:23.303,-0.442066,-0.636799,0.195833,-0.600595,-1.523972,0.852077,1.001495,-279.35791,-223.571777,285.339355,0,0
15999,2024 10 07,05:26:23.311,-0.438485,-0.63175,0.235528,-0.594263,-1.57622,0.94583,1.008332,-285.15625,-225.219727,286.987305,0,0
16000,2024 10 07,05:26:23.319,-0.438485,-0.63175,0.235528,-0.594263,-1.57622,0.94583,1.008332,-285.15625,-225.219727,286.987305,0,0
16001,2024 10 07,05:26:23.328,-0.433907,-0.62574,0.274756,-0.587097,-1.639699,0.995148,1.056185,-280.334473,-224.42627,288.574219,0,0
16002,2024 10 07,05:26:23.336,-0.428048,-0.61906,0.312825,-0.579379,-1.691458,0.980499,1.003937,-266.906738,-224.182129,287.597656,0,0
16003,2024 10 07,05:26:23.344,-0.420805,-0.612046,0.349427,-0.571159,-1.7481,0.954619,0.950224,-249.389648,-222.229004,285.27832,0,0
16004,2024 10 07,05:26:23.352,-0.411956,-0.60512,0.384452,-0.562421,-1.804254,0.946318,1.018586,-230.102539,-226.501465,282.470703,0,0
16005,2024 10 07,05:26:23.361,-0.401306,-0.598476,0.417719,-0.553435,-1.844783,0.860866,1.105991,-205.993652,-231.140137,279.846191,0,0
16006,2024 10 07,05:26:23.369,-0.401306,-0.598476,0.417719,-0.553435,-1.844783,0.860866,1.105991,-205.993652,-231.140137,279.846191,0,0
16007,2024 10 07,05:26:23.377,-0.388779,-0.59234,0.449234,-0.544218,-1.874081,0.708029,1.241737,-179.931641,-238.40332,277.770996,0,0
16008,2024 10 07,05:26:23.386,-0.373935,-0.586737,0.479089,-0.535151,-2.221259,0.32374,1.327677,-150.268555,-245.178223,282.226563,0,0
16009,2024 10 07,05:26:23.394,-0.357488,-0.580946,0.506818,-0.527104,-2.477126,-0.218268,1.412641,-122.619629,-233.215332,284.484863,0,0
16010,2024 10 07,05:26:23.402,-0.340703,-0.575049,0.531862,-0.519965,-2.638264,-1.037629,1.356487,-100.708008,-219.055176,273.31543,0,0
16011,2024 10 07,05:26:23.411,-0.324803,-0.569743,0.553953,-0.512866,-2.722739,-1.957091,1.428755,-88.012695,-205.26123,246.276855,0,0
16012,2024 10 07,05:26:23.419,-0.324803,-0.569743,0.553953,-0.512866,-2.722739,-1.957091,1.428755,-88.012695,-205.26123,246.276855,0,0
16013,2024 10 07,05:26:23.427,-0.310917,-0.56596,0.572589,-0.505136,-2.567461,-2.577227,1.837458,-78.125,-195.495605,199.523926,0,0
16014,2024 10 07,05:26:23.436,-0.299249,-0.564864,0.586809,-0.497025,-2.356517,-2.649983,2.514725,-54.016113,-184.326172,138.793945,0,0
16015,2024 10 07,05:26:23.444,-0.288673,-0.567045,0.595717,-0.490152,-2.397534,-2.702231,3.107517,-8.728027,-172.912598,82.15332,0,0
16016,2024 10 07,05:26:23.452,-0.279413,-0.571336,0.598766,-0.486809,-2.384838,-3.002533,3.306741,49.621582,-124.572754,38.085938,0,0
16017,2024 10 07,05:26:23.461,-0.272426,-0.576262,0.596402,-0.487864,-2.352611,-3.391705,2.949309,93.75,-68.29834,2.563477,0,0
16018,2024 10 07,05:26:23.469,-0.272426,-0.576262,0.596402,-0.487864,-2.352611,-3.391705,2.949309,93.75,-68.29834,2.563477,0,0
16019,2024 10 07,05:26:23.477,-0.268437,-0.581753,0.589681,-0.491712,-2.316477,-3.480575,2.61922,113.098145,-17.089844,-38.879395,0,0
16020,2024 10 07,05:26:23.486,-0.27761,-0.594623,0.582962,-0.479074,-5.32487,1.400922,9.234657,-122.680664,-86.975098,-294.677734,1,0
16021,2024 10 07,05:26:23.494,-0.315943,-0.578083,0.558443,-0.504124,3.653921,4.00647,-10.024719,-223.754883,515.991211,-193.115234,0,0
16022,2024 10 07,05:26:23.502,-0.309655,-0.590086,0.541591,-0.512437,-1.522019,-2.114323,1.372601,307.006836,119.20166,-125.915527,0,0
16023,2024 10 07,05:26:23.511,-0.323095,-0.591681,0.524713,-0.519807,-1.3184,0.123539,0.519059,125.488281,140.380859,-170.654297,0,0
16024,2024 10 07,05:26:23.519,-0.323095,-0.591681,0.524713,-0.519807,-1.3184,0.123539,0.519059,125.488281,140.380859,-170.654297,0,0
16025,2024 10 07,05:26:23.527,-0.330937,-0.597328,0.50481,-0.52806,-2.281808,-0.795434,0.705588,56.518555,179.870605,-188.171387,0,0
16026,2024 10 07,05:26:23.536,-0.348699,-0.593078,0.490887,-0.534506,-1.51323,-0.345714,0.256844,-0.732422,212.097168,-132.873535,0,0
16027,2024 10 07,05:26:23.544,-0.362703,-0.58741,0.478239,-0.542847,-0.71926,0.610859,-0.421888,23.864746,210.754395,-99.121094,0,0
16028,2024 10 07,05:26:23.552,-0.366508,-0.587259,0.464514,-0.55229,-1.152379,-0.256355,0.099124,121.826172,130.737305,-73.303223,0,0
16029,2024 10 07,05:26:23.561,-0.371883,-0.585678,0.452876,-0.559989,-0.894559,-0.187506,0.239265,46.75293,138.183594,-69.091797,0,0
16030,2024 10 07,05:26:23.569,-0.371883,-0.585678,0.452876,-0.559989,-0.894559,-0.187506,0.239265,46.75293,138.183594,-69.091797,0,0
16031,2024 10 07,05:26:23.577,-0.379574,-0.582297,0.444349,-0.565162,-0.941923,0.072268,-0.139653,11.962891,125.732422,-63.720703,0,0
16032,2024 10 07,05:26:23.586,-0.383938,-0.580168,0.43685,-0.570227,-0.923856,-0.138676,-0.079104,43.09082,95.581055,-38.94043,0,0
16033,2024 10 07,05:26:23.594,-0.386915,-0.578207,0.431374,-0.57436,-0.817896,-0.080081,0.277352,20.935059,75.317383,-24.597168,0,0
16034,2024 10 07,05:26:23.602,-0.390113,-0.575956,0.427653,-0.577234,-0.87698,0.110355,0.180181,8.178711,60.424805,-20.385742,0,0
16035,2024 10 07,05:26:23.611,-0.39135,-0.574996,0.424329,-0.579801,-0.926298,-0.046388,-0.034669,24.658203,37.04834,-12.145996,0,0
16036,2024 10 07,05:26:23.619,-0.39135,-0.574996,0.424329,-0.579801,-0.926298,-0.046388,-0.034669,24.658203,37.04834,-12.145996,0,0
16037,2024 10 07,05:26:23.627,-0.391862,-0.57459,0.422107,-0.581477,-0.950713,0.033204,0.156743,15.197754,24.353027,-7.385254,0,0
16038,2024 10 07,05:26:23.636,-0.39207,-0.574339,0.420289,-0.5829,-0.977569,0.030274,-0.02295,17.883301,16.540527,-5.310059,0,0
16039,2024 10 07,05:26:23.644,-0.391815,-0.574588,0.418917,-0.583814,-1.014679,0.0,0.004883,15.075684,8.239746,-4.02832,0,0
16040,2024 10 07,05:26:23.652,-0.391905,-0.57448,0.417919,-0.584574,-1.060091,0.008301,-0.066897,7.263184,11.535645,-2.746582,0,0
16041,2024 10 07,05:26:23.661,-0.392446,-0.573869,0.417048,-0.585433,-1.099643,0.027345,-0.098148,2.807617,19.042969,-2.380371,0,0
16042,2024 10 07,05:26:23.669,-0.392446,-0.573869,0.417048,-0.585433,-1.099643,0.027345,-0.098148,2.807617,19.042969,-2.380371,0,0
16043,2024 10 07,05:26:23.677,-0.393461,-0.57269,0.415922,-0.586705,-1.060579,0.06299,-0.099124,2.01416,28.625488,-3.234863,0,0
16044,2024 10 07,05:26:23.686,-0.394498,-0.571437,0.414447,-0.588272,-1.042512,0.067873,-0.045412,5.92041,31.005859,-4.089355,0,0
16045,2024 10 07,05:26:23.694,-0.395507,-0.570168,0.412591,-0.590128,-1.043489,0.055666,-0.046876,9.521484,35.583496,-5.065918,0,0
16046,2024 10 07,05:26:23.702,-0.396656,-0.568798,0.410481,-0.592147,-1.036164,0.041993,-0.122562,9.82666,38.024902,-6.530762,0,0
16047,2024 10 07,05:26:23.711,-0.398027,-0.56745,0.408397,-0.593959,-1.061556,0.049806,-0.052736,7.141113,38.024902,-9.094238,0,0
16048,2024 10 07,05:26:23.719,-0.398027,-0.56745,0.408397,-0.593959,-1.061556,0.049806,-0.052736,7.141113,38.024902,-9.094238,0,0
16049,2024 10 07,05:26:23.727,-0.399858,-0.565908,0.406059,-0.5958,-1.057161,0.073733,-0.057131,5.371094,43.518066,-13.427734,0,0
16050,2024 10 07,05:26:23.736,-0.401951,-0.56435,0.403242,-0.597779,-1.04886,0.054201,-0.06885,8.483887,47.546387,-17.39502,0,0
16051,2024 10 07,05:26:23.744,-0.404137,-0.562925,0.400091,-0.599763,-1.029328,0.047853,0.003418,10.375977,47.546387,-20.446777,0,0
16052,2024 10 07,05:26:23.752,-0.406262,-0.561557,0.39662,-0.601911,-1.0347,0.00586,0.036622,14.953613,49.926758,-20.996094,0,0
16053,2024 10 07,05:26:23.761,-0.408453,-0.560014,0.393008,-0.604231,-0.955107,-0.021485,0.00586,13.061523,52.734375,-20.141602,0,0
16054,2024 10 07,05:26:23.769,-0.41062,-0.558434,0.389858,-0.606262,-0.994659,-0.038575,0.047853,8.483887,47.668457,-17.822266,0,0
16055,2024 10 07,05:26:23.777,-0.41062,-0.558434,0.389858,-0.606262,-0.994659,-0.038575,0.047853,8.483887,47.668457,-17.822266,0,0
16056,2024 10 07,05:26:23.786,-0.412973,-0.55658,0.386935,-0.608238,-1.012238,0.005371,-0.077151,4.02832,50.90332,-17.456055,0,0
16057,2024 10 07,05:26:23.794,-0.415443,-0.55467,0.384474,-0.609859,-1.002472,0.001465,0.0918,-2.502441,45.715332,-16.845703,0,0
16058,2024 10 07,05:26:23.802,-0.418166,-0.552458,0.382022,-0.611544,-0.96292,0.008789,0.074221,-2.746582,50.78125,-16.784668,0,0
16059,2024 10 07,05:26:23.811,-0.420914,-0.55035,0.37975,-0.612974,-0.998077,0.056642,0.090823,-6.286621,44.616699,-17.822266,0,0
16060,2024 10 07,05:26:23.819,-0.423542,-0.548521,0.377444,-0.614226,-1.025422,0.089358,0.124516,-3.540039,43.212891,-19.897461,0,0
16061,2024 10 07,05:26:23.827,-0.423542,-0.548521,0.377444,-0.614226,-1.025422,0.089358,0.124516,-3.540039,43.212891,-19.897461,0,0
16062,2024 10 07,05:26:23.836,-0.425967,-0.546993,0.374776,-0.615543,-1.050325,0.067385,0.111332,2.319336,41.870117,-21.850586,0,0
16063,2024 10 07,05:26:23.844,-0.428142,-0.545868,0.371788,-0.616844,-1.025422,0.006348,0.138188,8.056641,39.306641,-23.681641,0,0
16064,2024 10 07,05:26:23.852,-0.430294,-0.545219,0.36891,-0.617647,-1.099643,0.002441,0.093753,7.019043,30.883789,-28.076172,0,0
16065,2024 10 07,05:26:23.861,-0.432447,-0.545144,0.366006,-0.617938,-1.09476,-0.051759,0.0918,6.713867,25.024414,-33.203125,0,0
16066,2024 10 07,05:26:23.869,-0.435138,-0.545329,0.363207,-0.617538,-1.155309,0.021973,0.049806,0.488281,19.714355,-41.748047,0,0
16067,2024 10 07,05:26:23.877,-0.435138,-0.545329,0.363207,-0.617538,-1.155309,0.021973,0.049806,0.488281,19.714355,-41.748047,0,0
16068,2024 10 07,05:26:23.886,-0.438119,-0.546221,0.360263,-0.616365,-1.242225,0.029298,0.121586,2.01416,13.183594,-51.879883,0,0
16069,2024 10 07,05:26:23.894,-0.441855,-0.547668,0.357054,-0.614277,-1.562548,0.163091,0.321299,-4.638672,5.737305,-69.152832,0,0
16070,2024 10 07,05:26:23.902,-0.447194,-0.549418,0.352809,-0.611296,-1.581103,0.149419,0.107913,-8.056641,15.014648,-93.994141,0,0
16071,2024 10 07,05:26:23.911,-0.453891,-0.55161,0.347709,-0.607296,-1.643605,0.256355,0.416028,-10.131836,12.573242,-115.661621,0,0
16072,2024 10 07,05:26:23.919,-0.461837,-0.553967,0.340639,-0.603151,-1.807184,0.242195,0.179693,-5.310059,28.198242,-139.282227,0,0
16073,2024 10 07,05:26:23.927,-0.461837,-0.553967,0.340639,-0.603151,-1.807184,0.242195,0.179693,-5.310059,28.198242,-139.282227,0,0
16074,2024 10 07,05:26:23.936,-0.471181,-0.557088,0.332183,-0.597742,-1.866756,0.081545,-0.055177,-5.310059,24.475098,-168.884277,0,0
16075,2024 10 07,05:26:23.944,-0.482256,-0.560501,0.322088,-0.591208,-1.921445,0.172369,-0.140629,-7.141113,36.865234,-197.20459,0,0
16076,2024 10 07,05:26:23.952,-0.494413,-0.564473,0.3099,-0.583856,-2.363353,0.333018,0.102054,2.075195,40.588379,-228.088379,0,0
16077,2024 10 07,05:26:23.961,-0.508818,-0.568921,0.294565,-0.575034,-2.77401,0.587909,0.014161,4.02832,59.082031,-279.968262,0,0
16078,2024 10 07,05:26:23.969,-0.525744,-0.573548,0.27442,-0.565092,-3.073336,0.747581,-0.036134,19.592285,88.500977,-339.233398,0,0
16079,2024 10 07,05:26:23.977,-0.525744,-0.573548,0.27442,-0.565092,-3.073336,0.747581,-0.036134,19.592285,88.500977,-339.233398,0,0
16080,2024 10 07,05:26:23.986,-0.545079,-0.579307,0.250027,-0.552068,-3.302347,0.924833,-0.198248,30.029297,82.275391,-409.667969,0,0
16081,2024 10 07,05:26:23.994,-0.566947,-0.586244,0.221074,-0.534804,-3.90344,0.945341,0.07178,29.968262,99.975586,-489.318848,0,0
16082,2024 10 07,05:26:24.002,-0.59213,-0.591834,0.185952,-0.514331,-3.738884,0.849635,-0.0918,35.095215,128.540039,-572.32666,0,0
16083,2024 10 07,05:26:24.011,-0.618451,-0.597189,0.146618,-0.489271,-4.040651,0.923856,0.560076,36.010742,125.12207,-629.394531,0,0
16084,2024 10 07,05:26:24.019,-0.645007,-0.599097,0.104698,-0.462695,-3.697867,1.352092,0.525407,22.460938,162.04834,-649.780273,0,1
16085,2024 10 07,05:26:24.027,-0.645007,-0.599097,0.104698,-0.462695,-3.697867,1.352092,0.525407,22.460938,162.04834,-649.780273,0,0
16086,2024 10 07,05:26:24.036,-0.668829,-0.598913,0.06049,-0.436248,-3.10947,1.168981,-0.216803,47.302246,181.45752,-639.160156,0,0
16087,2024 10 07,05:26:24.044,-0.689155,-0.598185,0.017659,-0.408569,-2.488357,0.878445,-0.482437,45.898438,153.869629,-618.591309,0,0
16088,2024 10 07,05:26:24.052,-0.707352,-0.596187,-0.021355,-0.379155,-1.903867,1.17777,-0.531754,33.325195,114.624023,-588.684082,0,0
16089,2024 10 07,05:26:24.061,-0.722069,-0.593628,-0.054749,-0.351034,-2.188543,0.852077,-0.376965,27.648926,83.984375,-512.329102,0,0
16090,2024 10 07,05:26:24.069,-0.736283,-0.584247,-0.081093,-0.331612,3.021577,4.466933,-1.084018,-92.041016,141.113281,-359.130859,0,0
16091,2024 10 07,05:26:24.077,-0.736283,-0.584247,-0.081093,-0.331612,3.021577,4.466933,-1.084018,-92.041016,141.113281,-359.130859,0,0
16092,2024 10 07,05:26:24.086,-0.739421,-0.579611,-0.095129,-0.329026,1.604053,0.482437,-4.077761,23.4375,35.522461,-40.283203,0,0
16093,2024 10 07,05:26:24.094,-0.740868,-0.576203,-0.077969,-0.336194,-1.246132,3.09238,1.485397,-90.576172,-39.489746,229.003906,0,0
16094,2024 10 07,05:26:24.102,-0.734704,-0.571999,-0.064037,-0.359062,-0.585955,2.705161,-1.194861,-65.795898,25.57373,307.678223,0,0
16095,2024 10 07,05:26:24.111,-0.723495,-0.574241,-0.046089,-0.380366,-0.984893,1.796442,0.252449,6.103516,5.92041,340.576172,0,0
16096,2024 10 07,05:26:24.119,-0.710434,-0.575567,-0.031144,-0.403776,-0.651387,1.303262,-1.095248,31.433105,26.916504,344.055176,0,0
16097,2024 10 07,05:26:24.127,-0.710434,-0.575567,-0.031144,-0.403776,-0.651387,1.303262,-1.095248,31.433105,26.916504,344.055176,0,0
16098,2024 10 07,05:26:24.136,-0.69545,-0.57902,-0.014127,-0.425307,-0.69631,1.070345,-0.61037,40.527344,-7.446289,355.407715,0,0
16099,2024 10 07,05:26:24.144,-0.679381,-0.582071,0.004008,-0.446787,-0.700217,0.873562,-0.923856,35.400391,-15.808105,368.041992,0,0
16100,2024 10 07,05:26:24.152,-0.662427,-0.584866,0.024443,-0.467466,-0.96878,0.747093,-0.652852,26.245117,-35.15625,381.408691,0,0
16101,2024 10 07,05:26:24.161,-0.645013,-0.58594,0.045795,-0.488401,-1.115757,0.533708,-0.706565,10.437012,-26.062012,391.296387,0,0
16102,2024 10 07,05:26:24.169,-0.627363,-0.584819,0.06807,-0.509675,-1.138707,0.373058,-0.642109,-10.559082,-18.127441,403.442383,0,0
16103,2024 10 07,05:26:24.177,-0.627363,-0.584819,0.06807,-0.509675,-1.138707,0.373058,-0.642109,-10.559082,-18.127441,403.442383,0,0
16104,2024 10 07,05:26:24.186,-0.609808,-0.581164,0.091474,-0.531051,-0.996612,0.254891,-0.640156,-37.29248,-13.244629,412.780762,0,0
16105,2024 10 07,05:26:24.194,-0.592648,-0.575896,0.116877,-0.550865,-0.999542,0.182134,-0.581561,-65.307617,-33.203125,413.024902,0,0
16106,2024 10 07,05:26:24.202,-0.576001,-0.56988,0.144283,-0.568015,-1.209021,0.142094,-0.527848,-88.195801,-60.791016,404.602051,0,0
16107,2024 10 07,05:26:24.211,-0.559739,-0.563297,0.173128,-0.582593,-1.41557,0.240242,-0.292978,-104.797363,-77.819824,395.690918,0,0
16108,2024 10 07,05:26:24.219,-0.543135,-0.555925,0.202308,-0.595839,-1.563524,0.396985,-0.183599,-108.703613,-83.251953,394.775391,0,0
16109,2024 10 07,05:26:24.227,-0.525232,-0.548092,0.231131,-0.608527,-1.681692,0.479019,-0.037111,-98.632813,-82.885742,399.291992,0,0
16110,2024 10 07,05:26:24.236,-0.525232,-0.548092,0.231131,-0.608527,-1.681692,0.479019,-0.037111,-98.632813,-82.885742,399.291992,0,0
16111,2024 10 07,05:26:24.244,-0.505656,-0.539961,0.259112,-0.620979,-1.660695,0.492691,-0.033204,-83.679199,-83.496094,405.395508,0,0
16112,2024 10 07,05:26:24.252,-0.483894,-0.532671,0.286598,-0.632431,-1.673879,0.511734,-0.043458,-63.415527,-105.651855,409.362793,0,0
16113,2024 10 07,05:26:24.261,-0.45976,-0.527185,0.313589,-0.642151,-1.868221,0.518082,-0.007813,-40.161133,-134.399414,406.616211,0,0
16114,2024 10 07,05:26:24.269,-0.433461,-0.523693,0.339269,-0.650195,-2.118229,0.487808,0.038575,-12.268066,-159.118652,397.827148,0,0
16115,2024 10 07,05:26:24.277,-0.405372,-0.521973,0.362983,-0.656857,-2.352611,0.402844,0.038087,17.028809,-175.537109,385.925293,0,0
16116,2024 10 07,05:26:24.286,-0.405372,-0.521973,0.362983,-0.656857,-2.352611,0.402844,0.038087,17.028809,-175.537109,385.925293,0,0
16117,2024 10 07,05:26:24.294,-0.37591,-0.521525,0.384285,-0.662592,-2.519608,0.230476,-0.009766,44.433594,-183.59375,373.596191,0,0
16118,2024 10 07,05:26:24.302,-0.345548,-0.522005,0.403327,-0.667409,-2.616779,-0.001953,-0.053224,64.941406,-190.307617,360.656738,0,0
16119,2024 10 07,05:26:24.311,-0.314609,-0.523215,0.420395,-0.671219,-2.694906,-0.265633,-0.073733,80.566406,-196.777344,348.510742,0,0
16120,2024 10 07,05:26:24.319,-0.283304,-0.52472,0.435961,-0.674052,-2.718833,-0.586932,-0.129887,88.378906,-200.561523,341.186523,0,0
16121,2024 10 07,05:26:24.327,-0.251763,-0.526039,0.450402,-0.676044,-2.854579,-1.036164,-0.158696,92.956543,-201.293945,337.524414,0,0
16122,2024 10 07,05:26:24.336,-0.251763,-0.526039,0.450402,-0.676044,-2.854579,-1.036164,-0.158696,92.956543,-201.293945,337.524414,0,0
16123,2024 10 07,05:26:24.344,-0.220701,-0.527091,0.463372,-0.677312,-3.029389,-1.575732,0.070803,97.473145,-194.152832,323.974609,0,0
16124,2024 10 07,05:26:24.352,-0.192126,-0.527971,0.473391,-0.678406,-2.853603,-2.105045,0.302255,104.309082,-173.278809,283.813477,0,0
16125,2024 10 07,05:26:24.361,-0.166581,-0.530843,0.479928,-0.678326,-2.307688,-2.553789,0.624531,110.595703,-183.105469,225.036621,0,0
16126,2024 10 07,05:26:24.369,-0.142828,-0.537061,0.483614,-0.676228,-1.972228,-3.194922,1.059114,116.210938,-208.740234,176.391602,0,0
16127,2024 10 07,05:26:24.377,-0.120285,-0.545545,0.484747,-0.673002,-2.47322,-4.142216,1.382855,125.183105,-219.482422,142.822266,0,0
16128,2024 10 07,05:26:24.386,-0.120285,-0.545545,0.484747,-0.673002,-2.47322,-4.142216,1.382855,125.183105,-219.482422,142.822266,0,0
16129,2024 10 07,05:26:24.394,-0.101666,-0.553888,0.483028,-0.67049,-2.984954,-4.604633,1.814508,124.023438,-170.776367,97.53418,0,0
16130,2024 10 07,05:26:24.402,-0.090987,-0.558977,0.477562,-0.671715,-4.213019,-4.189093,0.013184,113.891602,-71.594238,32.653809,0,0
16131,2024 10 07,05:26:24.411,-0.09933,-0.579453,0.464821,-0.66205,-1.878475,-7.119358,3.198828,-3.845215,-139.831543,-309.509277,0,0
16132,2024 10 07,05:26:24.419,-0.131344,-0.598948,0.444894,-0.652748,-0.835963,-4.746239,0.007324,-66.833496,-27.709961,-485.961914,0,0
16133,2024 10 07,05:26:24.427,-0.166603,-0.62325,0.42441,-0.635357,-2.939054,-1.190954,-2.288644,-216.369629,-116.821289,-550.354004,1,0
16134,2024 10 07,05:26:24.436,-0.166603,-0.62325,0.42441,-0.635357,-2.939054,-1.190954,-2.288644,-216.369629,-116.821289,-550.354004,0,0
16135,2024 10 07,05:26:24.444,-0.20498,-0.646667,0.414091,-0.606905,-4.114383,2.190496,-0.123539,-248.779297,-158.508301,-483.276367,0,0
16136,2024 10 07,05:26:24.452,-0.230046,-0.657986,0.395283,-0.598235,-3.149022,-0.506363,2.035218,-71.777344,104.736328,-367.1875,0,0
16137,2024 10 07,05:26:24.461,-0.254814,-0.65087,0.369109,-0.612533,-1.201697,-0.019044,0.305673,91.064453,377.624512,-263.48877,0,0
16138,2024 10 07,05:26:24.469,-0.265579,-0.644745,0.345813,-0.627842,-1.457564,-1.126987,-2.616779,145.935059,201.049805,-145.812988,0,0
16139,2024 10 07,05:26:24.477,-0.268044,-0.646778,0.334996,-0.630562,-1.6021,0.100101,1.032258,52.246094,47.119141,-80.993652,0,0
16140,2024 10 07,05:26:24.486,-0.268044,-0.646778,0.334996,-0.630562,-1.6021,0.100101,1.032258,52.246094,47.119141,-80.993652,0,0
16141,2024 10 07,05:26:24.494,-0.269881,-0.642084,0.323808,-0.640344,-0.991241,-0.162603,-0.357433,97.595215,171.813965,-39.978027,0,0
16142,2024 10 07,05:26:24.502,-0.271125,-0.637209,0.313928,-0.649542,-0.998566,-0.14893,-0.521012,79.284668,118.530273,-31.494141,0,0
16143,2024 10 07,05:26:24.511,-0.270944,-0.634599,0.306952,-0.65548,-1.102084,-0.046876,0.266121,63.476563,85.510254,-17.944336,0,0
16144,2024 10 07,05:26:24.519,-0.270828,-0.630214,0.300144,-0.662869,-0.933622,-0.031739,-0.051271,63.903809,110.717773,-8.056641,0,0
16145,2024 10 07,05:26:24.527,-0.270606,-0.626584,0.294619,-0.668853,-0.955107,0.019044,-0.129398,48.64502,76.538086,-7.141113,0,0
16146,2024 10 07,05:26:24.536,-0.270606,-0.626584,0.294619,-0.668853,-0.955107,0.019044,-0.129398,48.64502,76.538086,-7.141113,0,0
16147,2024 10 07,05:26:24.544,-0.270084,-0.624469,0.290451,-0.672853,-1.087924,0.006348,0.189947,41.015625,54.6875,-6.286621,0,0
16148,2024 10 07,05:26:24.552,-0.269972,-0.621851,0.28622,-0.677123,-0.966338,0.014649,-0.047365,39.428711,62.866211,-8.117676,0,0
16149,2024 10 07,05:26:24.561,-0.270184,-0.620306,0.282769,-0.679899,-1.067904,0.037111,0.051271,26.123047,38.146973,-13.793945,0,0
16150,2024 10 07,05:26:24.569,-0.270838,-0.618967,0.279731,-0.682112,-0.995148,0.038575,0.169439,21.54541,39.123535,-15.808105,0,0
16151,2024 10 07,05:26:24.577,-0.27203,-0.617728,0.276983,-0.683881,-0.959014,0.0459,0.030763,11.962891,29.968262,-21.484375,0,0
16152,2024 10 07,05:26:24.586,-0.27203,-0.617728,0.276983,-0.683881,-0.959014,0.0459,0.030763,11.962891,29.968262,-21.484375,0,0
16153,2024 10 07,05:26:24.594,-0.273592,-0.61793,0.274902,-0.683914,-1.017609,0.061037,0.054201,4.577637,4.577637,-29.11377,0,0
16154,2024 10 07,05:26:24.602,-0.275276,-0.61898,0.273065,-0.683025,-0.976592,0.166021,0.222663,4.272461,-5.187988,-33.447266,0,0
16155,2024 10 07,05:26:24.611,-0.276369,-0.620633,0.270588,-0.682068,-0.977081,0.157231,0.209479,15.441895,-10.742188,-35.705566,0,0
16156,2024 10 07,05:26:24.619,-0.276923,-0.623137,0.267581,-0.680746,-1.012238,0.033204,0.075198,25.085449,-20.446777,-39.245605,0,0
16157,2024 10 07,05:26:24.627,-0.277694,-0.626397,0.264564,-0.678616,-1.035676,0.034181,0.033692,21.42334,-31.188965,-45.837402,0,0
16158,2024 10 07,05:26:24.636,-0.277694,-0.626397,0.264564,-0.678616,-1.035676,0.034181,0.033692,21.42334,-31.188965,-45.837402,0,0
16159,2024 10 07,05:26:24.644,-0.278776,-0.630093,0.261713,-0.67585,-1.003937,0.086428,0.223151,17.39502,-36.804199,-49.804688,0,0
16160,2024 10 07,05:26:24.652,-0.279739,-0.633738,0.258403,-0.673313,-1.017121,-0.013672,0.138676,22.399902,-33.630371,-51.879883,0,0
16161,2024 10 07,05:26:24.661,-0.281202,-0.637689,0.255324,-0.670141,-0.965361,-0.000977,0.170904,16.052246,-41.870117,-56.274414,0,0
16162,2024 10 07,05:26:24.669,-0.282796,-0.641758,0.252294,-0.666724,-1.060091,-0.007813,0.059084,12.695313,-42.419434,-57.983398,0,0
16163,2024 10 07,05:26:24.677,-0.284809,-0.64573,0.249366,-0.663123,-1.064486,0.032716,0.240242,9.643555,-40.588379,-60.913086,0,0
16164,2024 10 07,05:26:24.686,-0.286859,-0.649013,0.245838,-0.660347,-1.009796,-0.021973,0.116703,16.113281,-25.512695,-60.241699,0,0
16165,2024 10 07,05:26:24.694,-0.286859,-0.649013,0.245838,-0.660347,-1.009796,-0.021973,0.116703,16.113281,-25.512695,-60.241699,0,0
16166,2024 10 07,05:26:24.702,-0.288863,-0.652007,0.242145,-0.657883,-1.005402,-0.037111,0.041993,15.258789,-23.864746,-58.837891,0,0
16167,2024 10 07,05:26:24.711,-0.290675,-0.654626,0.238406,-0.655847,-0.946806,-0.076174,0.059084,18.981934,-13.977051,-54.443359,0,0
16168,2024 10 07,05:26:24.719,-0.292151,-0.656502,0.234543,-0.654708,-0.839869,-0.173833,-0.074709,20.935059,-4.821777,-46.875,0,0
16169,2024 10 07,05:26:24.727,-0.293301,-0.658016,0.23133,-0.653817,-0.796899,-0.205084,-0.076662,17.456055,-2.746582,-36.193848,0,0
16170,2024 10 07,05:26:24.736,-0.294041,-0.658819,0.228818,-0.65356,-0.836451,-0.229987,-0.111332,13.549805,4.882813,-23.864746,0,0
16171,2024 10 07,05:26:24.744,-0.294041,-0.658819,0.228818,-0.65356,-0.836451,-0.229987,-0.111332,13.549805,4.882813,-23.864746,0,0
16172,2024 10 07,05:26:24.752,-0.294527,-0.65903,0.226873,-0.653806,-0.845241,-0.301767,-0.33253,9.399414,10.253906,-14.953613,0,0
16173,2024 10 07,05:26:24.761,-0.295155,-0.658821,0.226154,-0.653982,-0.967315,-0.217292,-0.112796,-0.610352,8.666992,-5.554199,0,0
16174,2024 10 07,05:26:24.769,-0.295872,-0.657582,0.225787,-0.655031,-0.996612,-0.139653,-0.078127,-5.187988,24.963379,0.305176,0,0
16175,2024 10 07,05:26:24.777,-0.29653,-0.655737,0.225557,-0.65666,-1.000519,-0.143559,-0.066897,-5.79834,29.724121,4.882813,0,0
16176,2024 10 07,05:26:24.786,-0.297261,-0.653854,0.225651,-0.658173,-1.050325,-0.030763,0.146977,-8.728027,26.367188,4.821777,0,0
16177,2024 10 07,05:26:24.794,-0.297261,-0.653854,0.225651,-0.658173,-1.050325,-0.030763,0.146977,-8.728027,26.367188,4.821777,0,0
16178,2024 10 07,05:26:24.802,-0.297949,-0.652002,0.225358,-0.659799,-1.02884,-0.027345,0.17774,-3.90625,28.991699,1.586914,0,0
16179,2024 10 07,05:26:24.811,-0.298673,-0.650496,0.224688,-0.661185,-1.062044,-0.039064,0.090335,-1.342773,23.071289,-3.723145,0,0
16180,2024 10 07,05:26:24.819,-0.299709,-0.649726,0.223937,-0.661727,-1.156774,-0.02002,0.124027,-3.723145,12.573242,-12.390137,0,0
16181,2024 10 07,05:26:24.827,-0.301253,-0.649294,0.222709,-0.661864,-1.239784,-0.014161,0.080569,-3.540039,12.145996,-22.521973,0,0
16182,2024 10 07,05:26:24.836,-0.303559,-0.649181,0.220961,-0.661507,-1.281289,-0.019044,0.063967,-5.79834,8.972168,-35.522461,0,0
16183,2024 10 07,05:26:24.844,-0.303559,-0.649181,0.220961,-0.661507,-1.281289,-0.019044,0.063967,-5.79834,8.972168,-35.522461,0,0
16184,2024 10 07,05:26:24.852,-0.306787,-0.649411,0.218641,-0.660563,-1.386273,-0.009766,0.050295,-8.666992,7.446289,-49.926758,0,0
16185,2024 10 07,05:26:24.861,-0.311093,-0.649873,0.215555,-0.659107,-1.491745,0.010254,0.025391,-11.962891,7.202148,-67.321777,0,0
16186,2024 10 07,05:26:24.869,-0.316787,-0.650519,0.211589,-0.65704,-1.545457,0.015137,0.033692,-16.174316,9.460449,-87.768555,0,0
16187,2024 10 07,05:26:24.877,-0.323896,-0.651144,0.206511,-0.654565,-1.600635,0.094241,0.065432,-18.920898,13.000488,-108.581543,0,0
