frame,date,time,quaternion_x,quaternion_y,quaternion_z,quaternion_w,accel_x,accel_y,accel_z,gyro_x,gyro_y,gyro_z,HS,TO
3510,2024 8 08,15:40:38.653,0.727971,0.118144,-0.614823,0.279452,-0.949215,-0.244127,-0.096421,-0.315103,0.463132,-0.455757,0,0
3511,2024 8 08,15:40:38.661,0.7279,0.118094,-0.614903,0.279481,-0.948873,-0.246712,-0.090379,-0.261768,0.482034,-0.617825,0,0
3512,2024 8 08,15:40:38.670,0.727829,0.118035,-0.614986,0.279508,-0.949877,-0.248435,-0.088532,-0.384689,0.441336,-0.657612,0,0
3513,2024 8 08,15:40:38.678,0.727764,0.117968,-0.615065,0.27953,-0.948339,-0.250307,-0.095951,-0.460752,0.386176,-0.533281,0,0
3514,2024 8 08,15:40:38.686,0.727747,0.11795,-0.615086,0.279537,-0.947935,-0.250798,-0.0979,-0.480735,0.371684,-0.500617,0,0
3515,2024 8 08,15:40:38.695,0.727696,0.117908,-0.615146,0.279556,-0.943971,-0.24793,-0.095464,-0.267132,0.41156,-0.44796,0,0
3516,2024 8 08,15:40:38.703,0.727627,0.117873,-0.615226,0.279574,-0.945983,-0.245914,-0.093543,-0.2075,0.595952,-0.303315,0,0
3517,2024 8 08,15:40:38.711,0.727555,0.117834,-0.615317,0.279578,-0.946904,-0.248787,-0.096089,-0.361728,0.691733,-0.218946,0,0
3518,2024 8 08,15:40:38.720,0.727481,0.117804,-0.615406,0.279588,-0.948531,-0.248279,-0.090061,-0.237731,0.719979,-0.194066,0,0
3519,2024 8 08,15:40:38.728,0.727404,0.117781,-0.615494,0.279604,-0.947347,-0.247119,-0.092931,-0.116395,0.644699,-0.270364,0,0
3520,2024 8 08,15:40:38.736,0.727325,0.117748,-0.615589,0.279614,-0.949302,-0.247754,-0.094485,-0.078786,0.621365,-0.294014,0,0
3521,2024 8 08,15:40:38.745,0.7273,0.117738,-0.615619,0.279617,-0.949922,-0.247956,-0.094977,-0.313013,0.696015,-0.26049,0,0
3522,2024 8 08,15:40:38.753,0.727234,0.117704,-0.615699,0.279627,-0.949473,-0.247372,-0.091565,-0.3078,0.801426,-0.371408,0,0
3523,2024 8 08,15:40:38.761,0.727131,0.117627,-0.615824,0.279653,-0.947998,-0.246664,-0.098217,-0.51398,0.645126,-0.687592,0,0
3524,2024 8 08,15:40:38.770,0.727042,0.117547,-0.615925,0.279695,-0.952723,-0.237957,-0.095464,-0.445598,0.76545,-1.039612,0,0
3525,2024 8 08,15:40:38.778,0.726943,0.117404,-0.616053,0.27973,-0.948745,-0.242881,-0.101239,-1.541635,0.842929,-1.602413,0,0
3526,2024 8 08,15:40:38.786,0.726817,0.117213,-0.616225,0.27976,-0.948235,-0.248068,-0.086512,-1.707541,1.352534,-1.852704,0,0
3527,2024 8 08,15:40:38.795,0.726793,0.117178,-0.616257,0.279766,-0.948269,-0.248965,-0.083252,-1.708885,1.45709,-1.889371,0,0
3528,2024 8 08,15:40:38.803,0.726684,0.117013,-0.616405,0.279791,-0.943622,-0.249413,-0.097753,-1.708976,1.318916,-1.988724,0,0
3529,2024 8 08,15:40:38.811,0.72654,0.116821,-0.616599,0.279817,-0.945965,-0.253329,-0.093181,-1.708984,1.619475,-1.820767,0,0
3530,2024 8 08,15:40:38.820,0.726386,0.11666,-0.616797,0.279848,-0.947468,-0.253156,-0.09415,-1.332412,1.746371,-1.587224,0,0
3531,2024 8 08,15:40:38.828,0.726242,0.116529,-0.616969,0.279897,-0.948859,-0.249993,-0.089089,-0.862802,1.442224,-1.579693,0,0
3532,2024 8 08,15:40:38.836,0.726105,0.116406,-0.617123,0.279965,-0.946266,-0.251356,-0.088361,-0.7497,1.264378,-1.677532,0,0
3533,2024 8 08,15:40:38.845,0.726071,0.116376,-0.617161,0.279982,-0.945475,-0.251874,-0.088379,-0.734913,1.227001,-1.704449,0,0
3534,2024 8 08,15:40:38.853,0.725968,0.116283,-0.617278,0.280031,-0.940726,-0.250521,-0.089094,-0.732809,1.266255,-1.574563,0,0
3535,2024 8 08,15:40:38.861,0.725839,0.116171,-0.617429,0.280077,-0.943153,-0.248334,-0.087555,-0.908438,1.367134,-1.446015,0,0
3536,2024 8 08,15:40:38.870,0.725698,0.116052,-0.617606,0.280104,-0.944845,-0.249786,-0.088072,-1.094735,1.701237,-1.367877,0,0
3537,2024 8 08,15:40:38.878,0.725546,0.115929,-0.6178,0.280118,-0.94902,-0.244327,-0.093506,-1.190332,1.892392,-1.34749,0,0
3538,2024 8 08,15:40:38.886,0.72539,0.115814,-0.617999,0.280132,-0.946991,-0.248214,-0.096813,-1.130037,1.941092,-1.259059,0,0
3539,2024 8 08,15:40:38.895,0.725342,0.11578,-0.618059,0.280136,-0.946071,-0.251606,-0.088023,-1.105168,1.950621,-1.228686,0,0
3540,2024 8 08,15:40:38.903,0.725221,0.115696,-0.618212,0.280146,-0.945882,-0.253153,-0.089903,-1.100057,2.035147,-1.305009,0,0
3541,2024 8 08,15:40:38.911,0.725071,0.115606,-0.618399,0.280161,-0.947147,-0.253088,-0.086699,-0.97661,1.984526,-1.171059,0,0
3542,2024 8 08,15:40:38.920,0.72492,0.115518,-0.618587,0.280171,-0.948277,-0.254907,-0.082473,-0.929981,1.839677,-0.994892,0,0
3543,2024 8 08,15:40:38.928,0.724775,0.115435,-0.618769,0.28018,-0.94673,-0.254994,-0.082311,-0.879263,1.787133,-0.935026,0,0
3544,2024 8 08,15:40:38.936,0.724639,0.115351,-0.618936,0.280197,-0.946688,-0.255861,-0.085931,-0.7821,1.577633,-0.92049,0,0
3545,2024 8 08,15:40:38.945,0.724592,0.115322,-0.618994,0.280203,-0.946775,-0.256225,-0.087377,-0.745495,1.494525,-0.916833,0,0
3546,2024 8 08,15:40:38.953,0.724505,0.115266,-0.619097,0.280223,-0.945875,-0.255397,-0.084985,-0.659078,1.280669,-0.838988,0,0
3547,2024 8 08,15:40:38.961,0.724402,0.115196,-0.619221,0.280245,-0.947011,-0.254424,-0.083915,-0.623987,1.117505,-0.806198,0,0
3548,2024 8 08,15:40:38.970,0.724309,0.115126,-0.619332,0.280268,-0.949365,-0.254662,-0.083618,-0.463932,0.797498,-0.721952,0,0
3549,2024 8 08,15:40:38.978,0.72423,0.115061,-0.619422,0.2803,-0.950017,-0.254526,-0.082345,-0.357945,0.554195,-0.686343,0,0
3550,2024 8 08,15:40:38.986,0.724162,0.114996,-0.619498,0.280335,-0.950455,-0.253557,-0.083553,-0.321191,0.355485,-0.602399,0,0
3551,2024 8 08,15:40:38.995,0.724136,0.11497,-0.619527,0.280348,-0.950633,-0.25313,-0.084188,-0.310157,0.278773,-0.565827,0,0
3552,2024 8 08,15:40:39.003,0.724096,0.114921,-0.619573,0.280369,-0.94896,-0.252711,-0.085535,-0.378713,0.147242,-0.554574,0,0
3553,2024 8 08,15:40:39.011,0.724049,0.114858,-0.61963,0.280391,-0.947882,-0.254243,-0.085283,-0.411441,0.089108,-0.515434,0,0
3554,2024 8 08,15:40:39.020,0.724,0.114799,-0.619688,0.280413,-0.947208,-0.253874,-0.085633,-0.316325,0.070376,-0.391654,0,0
3555,2024 8 08,15:40:39.028,0.723969,0.114761,-0.619725,0.280427,-0.946809,-0.253429,-0.085938,-0.244605,0.061095,-0.305733,0,0
3556,2024 8 08,15:40:39.036,0.723921,0.114702,-0.619784,0.280445,-0.949672,-0.170444,-0.153274,-0.423279,0.061036,-0.364897,0,0
3557,2024 8 08,15:40:39.045,0.723874,0.114644,-0.619841,0.280466,-0.950204,-0.256806,-0.091446,-0.19188,0.00223,-0.424968,0,0
3558,2024 8 08,15:40:39.053,0.723872,0.114642,-0.619843,0.280467,-0.950223,-0.256842,-0.091782,-0.183552,0.000114,-0.42713,0,0
3559,2024 8 08,15:40:39.061,0.723835,0.114585,-0.61989,0.280482,-0.950681,-0.255017,-0.079926,-0.297287,7e-06,-0.313086,0,0
3560,2024 8 08,15:40:39.070,0.723801,0.114532,-0.619925,0.280511,-0.94846,-0.25085,-0.085019,-0.07956,-0.168747,-0.305796,0,0
3561,2024 8 08,15:40:39.078,0.723768,0.114478,-0.619967,0.280528,-0.948732,-0.254521,-0.084525,-0.173624,-0.126345,-0.249787,0,0
3562,2024 8 08,15:40:39.086,0.723738,0.114421,-0.620002,0.280551,-0.949194,-0.251791,-0.087104,-0.127451,-0.177182,-0.299395,0,0
3563,2024 8 08,15:40:39.095,0.723707,0.114357,-0.620048,0.280555,-0.946654,-0.254529,-0.090389,-0.446137,-0.074601,-0.250594,0,0
3564,2024 8 08,15:40:39.103,0.723704,0.114349,-0.620053,0.280555,-0.946361,-0.254844,-0.090767,-0.482849,-0.062784,-0.244972,0,0
3565,2024 8 08,15:40:39.111,0.723674,0.114301,-0.62009,0.280572,-0.945485,-0.252366,-0.084941,-0.330168,-0.061281,-0.296707,0,0
3566,2024 8 08,15:40:39.120,0.723649,0.114242,-0.620124,0.280584,-0.949089,-0.252023,-0.085788,-0.308977,-0.216325,-0.200386,0,0
3567,2024 8 08,15:40:39.128,0.723615,0.114187,-0.620166,0.2806,-0.946362,-0.253605,-0.089184,-0.356866,-0.035319,-0.288067,0,0
3568,2024 8 08,15:40:39.136,0.723578,0.114131,-0.620212,0.280616,-0.949552,-0.254263,-0.083279,-0.26377,-0.00615,-0.201383,0,0
3569,2024 8 08,15:40:39.145,0.723515,0.114103,-0.620271,0.280661,-0.954479,-0.254775,-0.089031,0.647929,0.595995,-0.435286,0,0
3570,2024 8 08,15:40:39.153,0.723504,0.114097,-0.620281,0.280669,-0.955378,-0.254868,-0.090081,0.814205,0.705814,-0.477945,0,0
3571,2024 8 08,15:40:39.161,0.723464,0.114068,-0.620326,0.280684,-0.949341,-0.254886,-0.094552,-0.706321,0.047724,-0.292093,0,0
3572,2024 8 08,15:40:39.170,0.723422,0.113995,-0.620383,0.280698,-0.949268,-0.246661,-0.086695,-0.583058,0.058174,-0.446119,0,0
3573,2024 8 08,15:40:39.178,0.723382,0.113918,-0.62044,0.280704,-0.947359,-0.258195,-0.085202,-0.55689,0.013059,-0.336814,0,0
3574,2024 8 08,15:40:39.186,0.723338,0.113854,-0.620501,0.28071,-0.944691,-0.254915,-0.087638,-0.457559,0.049817,-0.265809,0,0
3575,2024 8 08,15:40:39.195,0.723303,0.113808,-0.620548,0.280716,-0.946662,-0.256006,-0.084874,-0.203573,0.012102,-0.064575,0,0
3576,2024 8 08,15:40:39.203,0.723261,0.113771,-0.620597,0.280728,-0.945309,-0.255902,-0.084941,-0.142596,0.048712,-0.153255,0,0
3577,2024 8 08,15:40:39.211,0.723251,0.113762,-0.62061,0.280731,-0.944972,-0.255876,-0.084958,-0.127418,0.057824,-0.175328,0,0
3578,2024 8 08,15:40:39.220,0.72322,0.113735,-0.620645,0.280743,-0.945242,-0.254442,-0.085676,-0.03428,0.015557,-0.091784,0,0
3579,2024 8 08,15:40:39.228,0.723183,0.113716,-0.620688,0.28075,-0.945667,-0.255119,-0.087631,-0.009507,0.004315,-0.025455,0,0
3580,2024 8 08,15:40:39.236,0.723145,0.113703,-0.620732,0.280757,-0.945783,-0.25356,-0.085027,-0.002714,0.001232,0.079958,0,0
3581,2024 8 08,15:40:39.245,0.723105,0.113695,-0.620774,0.280771,-0.945126,-0.254845,-0.088088,0.042332,0.086617,0.023459,0,0
3582,2024 8 08,15:40:39.253,0.723063,0.11369,-0.62082,0.280781,-0.9463,-0.288546,0.039951,0.012748,0.154047,0.135027,0,0
3583,2024 8 08,15:40:39.261,0.72305,0.113689,-0.620834,0.280784,-0.94665,-0.253115,-0.086583,0.003936,0.174134,0.168261,0,0
3584,2024 8 08,15:40:39.270,0.723015,0.113694,-0.620867,0.280796,-0.94442,-0.255331,-0.087145,0.084718,0.138532,0.136675,0,0
3585,2024 8 08,15:40:39.278,0.722953,0.113742,-0.620908,0.280846,-0.948347,-0.246774,-0.080714,0.729384,0.292567,0.126794,0,0
3586,2024 8 08,15:40:39.286,0.722901,0.113747,-0.620958,0.280867,-0.947969,-0.252207,-0.08552,0.281975,0.260149,0.001057,0,0
3587,2024 8 08,15:40:39.295,0.722828,0.113721,-0.621038,0.280889,-0.945254,-0.252778,-0.089997,-0.202064,0.349555,-0.166319,0,0
3588,2024 8 08,15:40:39.303,0.722764,0.113682,-0.621115,0.2809,-0.94652,-0.257435,-0.087009,-0.34718,0.625325,-0.286578,0,0
3589,2024 8 08,15:40:39.311,0.722754,0.113676,-0.621127,0.280902,-0.946797,-0.258281,-0.086447,-0.365601,0.66991,-0.30458,0,0
3590,2024 8 08,15:40:39.320,0.722692,0.113648,-0.621201,0.280909,-0.946001,-0.256697,-0.085624,-0.215209,0.671318,-0.204499,0,0
3591,2024 8 08,15:40:39.328,0.722623,0.113637,-0.621276,0.280924,-0.943857,-0.25598,-0.087446,-0.036308,0.57222,-0.08524,0,0
3592,2024 8 08,15:40:39.336,0.722549,0.394058,-0.503939,0.262078,-0.943814,-0.255876,-0.085124,-0.002698,0.746458,-0.013974,0,0
3593,2024 8 08,15:40:39.345,0.722468,0.113662,-0.621445,0.28094,-0.944256,-0.254327,-0.08222,0.096082,0.837499,0.191412,0,0
3594,2024 8 08,15:40:39.353,0.722386,0.113701,-0.621523,0.280962,-0.948912,-0.256994,-0.081613,0.499282,0.757828,0.143886,0,0
3595,2024 8 08,15:40:39.361,0.722368,0.113709,-0.621539,0.280968,-0.950076,-0.257727,-0.081553,0.597796,0.735294,0.124536,0,0
3596,2024 8 08,15:40:39.370,0.722308,0.113759,-0.621586,0.281001,-0.949098,-0.254484,-0.081177,0.654951,0.594265,0.260896,0,0
3597,2024 8 08,15:40:39.378,0.722247,0.113794,-0.621642,0.281018,-0.946255,-0.255028,-0.085082,0.395858,0.464387,0.344651,0,0
3598,2024 8 08,15:40:39.386,0.722189,0.113828,-0.621697,0.281032,-0.947634,-0.254248,-0.078319,0.453465,0.387831,0.31807,0,0
3599,2024 8 08,15:40:39.395,0.72213,0.113874,-0.621743,0.281063,-0.94675,-0.255032,-0.082847,0.704428,0.369668,0.262895,0,0
3600,2024 8 08,15:40:39.403,0.722065,0.113936,-0.621791,0.281099,-0.942891,-0.258821,-0.087403,0.865776,0.585625,0.291109,0,0
3601,2024 8 08,15:40:39.411,0.722046,0.113953,-0.621805,0.28111,-0.941699,-0.26,-0.088604,0.906497,0.65582,0.302623,0,0
3602,2024 8 08,15:40:39.420,0.721978,0.114007,-0.621861,0.281139,-0.944898,-0.254411,-0.087113,0.316655,0.711052,0.21938,0,0
3603,2024 8 08,15:40:39.428,0.721903,0.114031,-0.621942,0.281144,-0.948727,-0.24976,-0.084882,0.154801,0.728104,0.190435,0,0
3604,2024 8 08,15:40:39.436,0.721826,0.114051,-0.622028,0.28114,-0.95024,-0.25008,-0.085841,0.004219,0.814699,0.143063,0,0
3605,2024 8 08,15:40:39.445,0.721752,0.114061,-0.622111,0.281144,-0.950279,-0.252376,-0.08334,0.035598,0.722414,0.126722,0,0
3606,2024 8 08,15:40:39.453,0.721678,-0.315994,-0.614187,-0.0454,-0.948289,-0.253508,-0.082985,0.17693,0.683173,0.123145,0,0
3607,2024 8 08,15:40:39.461,0.721653,0.114086,-0.622216,0.281157,-0.947533,-0.253816,-0.083004,0.227998,0.674218,0.122328,0,0
3608,2024 8 08,15:40:39.470,0.721602,0.114106,-0.622267,0.281166,-0.947354,-0.254841,-0.082375,0.240119,0.63246,0.201399,0,0
3609,2024 8 08,15:40:39.478,0.721538,0.114136,-0.622329,0.28118,-0.947623,-0.254613,-0.082435,0.360612,0.616053,0.233117,0,0
3610,2024 8 08,15:40:39.486,0.721467,0.114176,-0.622393,0.281204,-0.950838,-0.254149,-0.080331,0.525645,0.650589,0.163767,0,0
3611,2024 8 08,15:40:39.495,0.721394,0.114208,-0.622461,0.281228,-0.950939,-0.252754,-0.080054,0.357413,0.627394,0.056977,0,0
3612,2024 8 08,15:40:39.503,0.721325,0.114225,-0.622529,0.281247,-0.949565,-0.253094,-0.080073,0.238351,0.539484,0.016124,0,0
3613,2024 8 08,15:40:39.511,0.721299,0.11423,-0.622555,0.281254,-0.948994,-0.253329,-0.080078,0.199181,0.503181,0.004692,0,0
3614,2024 8 08,15:40:39.520,0.721258,0.114224,-0.6226,0.281262,-0.949718,-0.253397,-0.078896,0.039866,0.34469,0.001402,0,0
3615,2024 8 08,15:40:39.528,0.721213,0.114221,-0.622647,0.281274,-0.947726,-0.254588,-0.079241,0.116315,0.128525,0.073644,0,0
3616,2024 8 08,15:40:39.536,0.721171,0.114219,-0.622686,0.281298,-0.947339,-0.251364,-0.082959,0.19835,0.040348,-0.001769,0,0
3617,2024 8 08,15:40:39.545,0.721134,0.114209,-0.622719,0.281323,-0.947022,-0.252074,-0.083791,0.086126,-0.022864,-0.00617,0,0
3618,2024 8 08,15:40:39.553,0.721096,0.114197,-0.622755,0.281348,-0.946594,-0.247666,-0.098096,0.099181,-0.013051,-0.037474,0,0
3619,2024 8 08,15:40:39.561,0.721079,0.114191,-0.62277,0.281358,-0.94641,-0.250324,-0.083546,0.114392,-0.004378,-0.053132,0,0
3620,2024 8 08,15:40:39.570,0.721071,0.114189,-0.622778,0.281363,-0.946319,-0.250012,-0.083499,0.121975,-5.4e-05,-0.060937,0,0
3621,2024 8 08,15:40:39.578,0.721035,0.114155,-0.622815,0.281387,-0.948692,-0.251432,-0.081599,-0.115349,0.059353,-0.239095,0,0
3622,2024 8 08,15:40:39.586,0.720997,0.11411,-0.62286,0.281403,-0.946418,-0.251939,-0.081548,-0.180247,0.002504,-0.185467,0,0
3623,2024 8 08,15:40:39.595,0.720962,0.114076,-0.622903,0.281412,-0.947706,-0.257949,-0.083849,-0.182944,0.057734,-0.010459,0,0
3624,2024 8 08,15:40:39.603,0.720925,0.114051,-0.62294,0.281434,-0.945961,-0.257829,-0.085793,0.100663,-0.166202,-0.057485,0,0
3625,2024 8 08,15:40:39.611,0.720894,0.114039,-0.62297,0.281451,-0.947631,-0.252451,-0.085928,0.120281,-0.125759,0.107063,0,0
3626,2024 8 08,15:40:39.620,0.72087,0.114039,-0.62299,0.281469,-0.948209,-0.253332,-0.082851,0.232176,-0.177566,0.17576,0,0
3627,2024 8 08,15:40:39.628,0.720868,-0.008002,-0.442051,-0.533668,-0.948264,-0.253415,-0.082558,0.242834,-0.1825,0.182303,0,0
3628,2024 8 08,15:40:39.636,0.720854,0.114046,-0.622999,0.281486,-0.946554,-0.250422,-0.081669,0.351215,-0.343881,0.290241,0,0
3629,2024 8 08,15:40:39.645,0.720836,0.11406,-0.623005,0.281515,-0.94635,-0.252178,-0.0841,0.522867,-0.310344,0.19741,0,0
3630,2024 8 08,15:40:39.653,0.720821,0.114081,-0.623006,0.281542,-0.94841,-0.251158,-0.086508,0.545477,-0.358101,0.237357,0,0
3631,2024 8 08,15:40:39.661,0.720804,0.114084,-0.623011,0.281573,-0.948705,-0.249996,-0.091004,0.394265,-0.364942,0.037145,0,0
3632,2024 8 08,15:40:39.670,0.720784,0.114083,-0.623022,0.2816,-0.946718,-0.253152,-0.088524,0.320101,-0.264379,0.006223,0,0
3633,2024 8 08,15:40:39.678,0.720781,0.114083,-0.623024,0.281605,-0.946389,-0.253778,-0.08921,0.307837,-0.247749,0.001109,0,0
3634,2024 8 08,15:40:39.686,0.720754,0.114074,-0.623049,0.281622,-0.9495,-0.247654,-0.092691,0.058109,-0.145794,0.000209,0,0
3635,2024 8 08,15:40:39.695,0.720726,0.114074,-0.623071,0.281646,-0.947733,-0.254064,-0.08653,0.304904,-0.175681,0.097822,0,0
3636,2024 8 08,15:40:39.703,0.720701,0.114081,-0.623084,0.281677,-0.947386,-0.252786,-0.085677,0.449966,-0.181554,0.117004,0,0
3637,2024 8 08,15:40:39.711,0.72067,0.114094,-0.623106,0.281703,-0.949604,-0.252523,-0.083212,0.384525,-0.135077,0.168652,0,0
3638,2024 8 08,15:40:39.720,0.72065,0.114106,-0.623113,0.281733,-0.945937,-0.252466,-0.081172,0.46461,-0.360591,0.179808,0,0
3639,2024 8 08,15:40:39.728,0.720645,0.114108,-0.623115,0.28174,-0.94511,-0.252453,-0.080712,0.482662,-0.411423,0.182323,0,0
3640,2024 8 08,15:40:39.736,0.720638,0.114121,-0.623109,0.281769,-0.945652,-0.253554,-0.083548,0.62488,-0.515336,0.228907,0,0
3641,2024 8 08,15:40:39.745,0.720629,0.114148,-0.623098,0.281802,-0.944693,-0.253822,-0.082784,0.704972,-0.449731,0.285708,0,0
3642,2024 8 08,15:40:39.753,0.720622,0.11417,-0.623086,0.281839,-0.946968,-0.252452,-0.085467,0.680249,-0.523039,0.255109,0,0
3643,2024 8 08,15:40:39.761,0.720615,0.114201,-0.623076,0.281867,-0.947561,-0.24652,-0.091535,0.6738,-0.497745,0.469206,0,0
3644,2024 8 08,15:40:39.770,0.720612,0.114234,-0.623058,0.2819,-0.949477,-0.252701,-0.082899,0.759891,-0.622677,0.439017,0,0
3645,2024 8 08,15:40:39.778,0.720611,0.114244,-0.623054,0.281909,-0.950009,-0.252869,-0.082978,0.783771,-0.657331,0.430643,0,0
3646,2024 8 08,15:40:39.786,0.720621,0.114275,-0.623025,0.281934,-0.951191,-0.254635,-0.078878,0.790586,-0.838988,0.557079,0,0
3647,2024 8 08,15:40:39.795,0.720634,0.114309,-0.622985,0.281976,-0.949499,-0.252095,-0.083792,0.877528,-0.934722,0.381788,0,0
3648,2024 8 08,15:40:39.803,0.720652,0.114349,-0.622936,0.28202,-0.948318,-0.253011,-0.089304,0.861672,-1.047548,0.455091,0,0
3649,2024 8 08,15:40:39.811,0.720672,0.114389,-0.622885,0.282066,-0.948951,-0.251298,-0.084353,0.939909,-1.040772,0.43613,0,0
3650,2024 8 08,15:40:39.820,0.720691,0.114416,-0.622839,0.282108,-0.948164,-0.2501,-0.083448,0.758991,-0.997511,0.306776,0,0
3651,2024 8 08,15:40:39.828,0.720697,0.114424,-0.622824,0.282122,-0.94791,-0.249713,-0.083156,0.700586,-0.983545,0.265017,0,0
3652,2024 8 08,15:40:39.836,0.720707,0.114439,-0.62279,0.282167,-0.944851,-0.248264,-0.081335,0.671613,-0.924243,0.191928,0,0
3653,2024 8 08,15:40:39.845,0.720713,0.114439,-0.622765,0.282207,-0.947264,-0.25136,-0.08849,0.465114,-0.864158,0.183308,0,0
3654,2024 8 08,15:40:39.853,0.720723,0.114438,-0.622734,0.28225,-0.948576,0.195939,0.025918,0.631833,-0.905647,0.132324,0,0
3655,2024 8 08,15:40:39.861,0.720734,0.114437,-0.622703,0.28229,-0.94955,-0.252211,-0.084901,0.569261,-0.965045,0.172637,0,0
3656,2024 8 08,15:40:39.870,0.72075,0.11445,-0.62266,0.28234,-0.948146,-0.252766,-0.083049,0.698527,-1.0251,0.231712,0,0
3657,2024 8 08,15:40:39.878,0.720753,0.114452,-0.622651,0.282349,-0.947812,-0.252924,-0.082564,0.729726,-1.036604,0.243152,0,0
3658,2024 8 08,15:40:39.886,0.72077,0.114468,-0.622612,0.282385,-0.948169,-0.250637,-0.08789,0.732172,-1.037506,0.291941,0,0
3659,2024 8 08,15:40:39.895,0.720793,0.114478,-0.622565,0.282426,-0.947127,-0.252718,-0.086559,0.685178,-1.084806,0.256562,0,0
3660,2024 8 08,15:40:39.903,0.720819,0.114497,-0.62251,0.282474,-0.947962,-0.252225,-0.086758,0.859264,-1.143567,0.292167,0,0
3661,2024 8 08,15:40:39.911,0.720851,0.392964,-0.505254,0.265839,-0.947864,-0.251995,-0.087264,0.724514,-1.295355,0.349412,0,0
3662,2024 8 08,15:40:39.920,0.720877,0.114529,-0.622398,0.28256,-0.948882,-0.250153,-0.089922,0.678911,-1.245444,0.273219,0,0
3663,2024 8 08,15:40:39.928,0.720883,0.114533,-0.622385,0.282571,-0.949192,-0.249616,-0.090685,0.672538,-1.22449,0.248591,0,0
3664,2024 8 08,15:40:39.936,0.720898,0.114534,-0.622349,0.282612,-0.949591,-0.249535,-0.085859,0.759808,-1.044861,0.068408,0,0
3665,2024 8 08,15:40:39.945,0.720919,0.114526,-0.622303,0.282662,-0.950407,-0.251264,-0.085708,0.569848,-1.075605,-0.03157,0,0
3666,2024 8 08,15:40:39.953,0.720933,0.114513,-0.622268,0.28271,-0.951688,-0.247496,-0.088575,0.331474,-1.094359,-0.055567,0,0
3667,2024 8 08,15:40:39.961,0.720941,0.114495,-0.622235,0.282769,-0.949365,-0.254662,-0.083618,0.558349,-0.928024,-0.14485,0,0
3668,2024 8 08,15:40:39.970,0.720944,0.114477,-0.622211,0.282822,-0.948832,-0.250199,-0.088645,0.480457,-0.785808,-0.091401,0,0
3669,2024 8 08,15:40:39.978,0.720945,0.114471,-0.622204,0.282839,-0.948775,-0.250049,-0.088438,0.438725,-0.743938,-0.067586,0,0
3670,2024 8 08,15:40:39.986,0.720949,0.114451,-0.622185,0.282876,-0.945491,-0.25198,-0.088067,0.348048,-0.857693,-0.103403,0,0
3671,2024 8 08,15:40:39.995,0.720949,0.114451,-0.622185,0.282876,-0.949427,-0.243249,-0.093196,0.355633,-0.82116,-0.117691,0,0
3672,2024 8 08,15:40:40.003,0.720944,0.114477,-0.622211,0.282822,-0.950499,-0.246481,-0.088785,0.243874,-0.720368,-0.200843,0,0
3673,2024 8 08,15:40:40.011,0.720935,0.114357,-0.622158,0.283012,-0.950343,-0.247775,-0.090407,0.119553,-0.683758,-0.351557,0,0
3674,2024 8 08,15:40:40.020,0.720915,0.124831,-0.650709,0.202876,-0.951503,-0.247718,-0.092274,-0.118639,-0.401671,-0.407472,0,0
3675,2024 8 08,15:40:40.028,0.720889,0.114228,-0.622199,0.283091,-0.952304,-0.246374,-0.094231,-0.325923,-0.325178,-0.576092,0,0
3676,2024 8 08,15:40:40.036,0.720879,0.114201,-0.622209,0.283105,-0.952565,-0.245824,-0.094943,-0.399075,-0.310737,-0.644892,0,0
3677,2024 8 08,15:40:40.045,0.720845,0.11412,-0.622251,0.283129,-0.952034,-0.240896,0.037274,-0.607584,-0.005329,-0.927564,0,0
3678,2024 8 08,15:40:40.053,0.720774,0.113992,-0.622345,0.283155,-0.951194,-0.241703,-0.10167,-1.105591,0.649358,-1.271899,0,0
3679,2024 8 08,15:40:40.061,0.720665,0.11381,-0.622502,0.283161,-0.951448,-0.242498,-0.09981,-2.014006,1.288953,-1.738286,0,0
3680,2024 8 08,15:40:40.070,0.720513,0.113581,-0.622721,0.283159,-0.950448,-0.23888,-0.088163,-2.466385,1.93786,-2.329787,0,0
3681,2024 8 08,15:40:40.078,0.72031,0.113283,-0.623016,0.283146,-0.966406,-0.232814,-0.071146,-3.301276,2.631217,-3.005575,0,0
3682,2024 8 08,15:40:40.086,0.720225,0.113157,-0.62314,0.28314,-0.973951,-0.230243,-0.063983,-3.668947,2.915478,-3.284329,0,0
3683,2024 8 08,15:40:40.095,0.720036,0.112846,-0.62341,0.28315,-0.989928,-0.228007,-0.082586,-4.281078,2.830113,-4.326884,0,0
3684,2024 8 08,15:40:40.103,0.719905,0.112628,-0.623597,0.283159,-1.000974,-0.226574,-0.09664,-4.698455,2.746832,-5.063707,0,0
3685,2024 8 08,15:40:40.111,0.719639,0.112013,-0.623973,0.28325,-1.001965,-0.222735,-0.106268,-5.897954,2.8065,-6.683543,0,0
3686,2024 8 08,15:40:40.120,0.719399,0.095535,-0.633402,0.268588,-1.035498,-0.221721,-0.067263,-9.105825,1.214499,-10.902071,0,0
3687,2024 8 08,15:40:40.128,0.71912,0.109594,-0.624796,0.283701,-1.086815,-0.207739,-0.101787,-10.431546,-1.394982,-15.748123,0,0
3688,2024 8 08,15:40:40.136,0.718902,0.10766,-0.625066,0.284397,-1.013183,-0.259306,-0.05027,-13.185276,-4.552703,-22.217804,0,0
3689,2024 8 08,15:40:40.145,0.718889,0.107542,-0.625082,0.284439,-1.008698,-0.262447,-0.047132,-13.353011,-4.745046,-22.611885,0,0
3690,2024 8 08,15:40:40.153,0.718338,0.105301,-0.625659,0.285399,-1.128956,-0.258231,-0.071818,-13.19862,1.02532,-29.872028,0,0
3691,2024 8 08,15:40:40.161,0.717628,0.102781,-0.626189,0.286934,-1.119291,-0.239875,-0.038442,-10.169127,-2.966694,-35.551781,0,0
3692,2024 8 08,15:40:40.170,0.716903,0.099774,-0.626555,0.289001,-1.075929,-0.260964,-0.054999,-10.514598,-4.934591,-43.961117,0,0
3693,2024 8 08,15:40:40.178,0.715827,0.096574,-0.627125,0.291507,-1.143581,-0.260777,-0.067101,-8.633595,-1.049606,-49.760254,0,0
3694,2024 8 08,15:40:40.186,0.714579,0.093076,-0.627664,0.294529,-1.08635,-0.314204,-0.056824,-6.505487,-2.722685,-57.479195,0,0
3695,2024 8 08,15:40:40.195,0.714409,0.0926,-0.627737,0.294941,-1.078553,-0.321483,-0.055424,-6.215557,-2.950622,-58.530811,0,0
3696,2024 8 08,15:40:40.203,0.712908,0.089642,-0.628329,0.298202,-1.014708,-0.354929,0.023868,-0.384992,3.26446,-62.5275,0,0
3697,2024 8 08,15:40:40.211,0.71054,0.08671,-0.629407,0.302411,-1.013471,-0.378033,0.051013,7.466159,12.288795,-67.408287,0,0
3698,2024 8 08,15:40:40.220,0.707624,0.084458,-0.630681,0.30719,-1.042405,-0.368376,0.067992,17.530212,19.308096,-67.038139,0,0
3699,2024 8 08,15:40:40.228,0.704275,0.082743,-0.632039,0.312512,-1.088215,-0.361907,0.084451,25.107077,23.134153,-70.371056,0,0
3700,2024 8 08,15:40:40.236,0.700818,0.081585,-0.633183,0.318218,-1.017533,-0.371574,0.088752,34.868851,24.932812,-68.816177,0,0
3701,2024 8 08,15:40:40.245,0.700125,0.081353,-0.633413,0.319361,-1.00337,-0.373511,0.089614,36.824894,25.293224,-68.504608,0,0
3702,2024 8 08,15:40:40.253,0.69673,0.080925,-0.634555,0.324571,-0.974953,-0.363287,0.125867,41.507568,33.010395,-70.432549,0,0
3703,2024 8 08,15:40:40.261,0.692408,0.081096,-0.636067,0.330746,-1.023853,-0.333656,0.139084,48.772564,39.535374,-67.948982,0,0
3704,2024 8 08,15:40:40.270,0.687908,0.082246,-0.637338,0.337331,-1.088054,-0.242363,0.12469,61.555367,39.964035,-62.237652,0,0
3705,2024 8 08,15:40:40.278,0.683824,0.084563,-0.637752,0.344204,-1.039242,-0.146639,0.092693,76.365189,32.832344,-53.003098,0,0
3706,2024 8 08,15:40:40.286,0.680126,0.088391,-0.637205,0.351497,-0.947544,-0.048061,0.051124,95.860214,29.713507,-42.667953,0,0
3707,2024 8 08,15:40:40.295,0.67918,0.089369,-0.637065,0.353361,-0.924102,-0.02286,0.040497,100.844124,28.916176,-40.025772,0,0
3708,2024 8 08,15:40:40.303,0.676346,0.09427,-0.635859,0.359614,-0.913665,0.081435,0.037336,116.752762,30.297459,-29.865051,0,0
3709,2024 8 08,15:40:40.311,0.673264,0.10158,-0.633761,0.366997,-0.895431,0.228071,0.008143,133.06604,29.012344,-15.205019,0,0
3710,2024 8 08,15:40:40.320,0.670448,0.110521,-0.631071,0.374109,-0.861262,0.364669,-0.027025,139.847137,29.7327,1.618193,0,0
3711,2024 8 08,15:40:40.328,0.667784,0.120266,-0.628357,0.380371,-0.822672,0.439987,-0.036485,135.346634,33.574905,13.311962,0,0
3712,2024 8 08,15:40:40.336,0.66508,0.130134,-0.626064,0.385604,-0.824776,0.471431,-0.049776,125.978096,39.153618,20.454979,0,0
3713,2024 8 08,15:40:40.345,0.664258,0.133132,-0.625368,0.387194,-0.825415,0.480983,-0.053813,123.132164,40.848293,22.624853,0,0
3714,2024 8 08,15:40:40.353,0.662157,0.140573,-0.624101,0.390181,-0.842502,0.465412,-0.083878,111.443604,43.776318,26.776913,0,0
3715,2024 8 08,15:40:40.361,0.659811,0.149062,-0.62304,0.392677,-0.883001,0.446365,-0.109835,96.377007,46.469803,33.218426,0,0
3716,2024 8 08,15:40:40.370,0.657652,0.157505,-0.62232,0.394138,-0.898781,0.415847,-0.135794,81.096909,46.900951,39.773537,0,0
3717,2024 8 08,15:40:40.378,0.655072,0.168479,-0.621813,0.394758,-0.897077,0.341892,-0.165409,60.820385,47.688782,46.845493,0,0
3718,2024 8 08,15:40:40.386,0.653483,0.175919,-0.62198,0.393885,-0.923878,0.268283,-0.178217,49.268715,48.812859,50.70451,0,0
3719,2024 8 08,15:40:40.395,0.653234,0.177092,-0.622014,0.393727,-0.928995,0.256406,-0.180096,47.504353,49.002621,51.303398,0,0
3720,2024 8 08,15:40:40.403,0.652116,0.182991,-0.622358,0.392327,-0.943939,0.204959,-0.18734,41.559135,48.712269,54.860821,0,0
3721,2024 8 08,15:40:40.411,0.650988,0.18997,-0.622756,0.390244,-0.951761,0.150271,-0.186501,38.013695,48.355709,59.969349,0,0
3722,2024 8 08,15:40:40.420,0.650059,0.197082,-0.623138,0.387645,-0.976227,0.084387,-0.182215,34.365742,47.608948,65.735374,0,0
3723,2024 8 08,15:40:40.428,0.649359,0.204396,-0.623305,0.384749,-0.982225,0.037218,-0.175927,34.830353,45.680149,71.185349,0,0
3724,2024 8 08,15:40:40.436,0.648833,0.21196,-0.623251,0.381616,-0.990751,0.002393,-0.162101,35.864338,44.800076,76.261452,0,0
3725,2024 8 08,15:40:40.445,0.648432,0.219759,-0.622996,0.378283,-0.994747,-0.027508,-0.146829,36.979855,43.712914,80.610214,0,0
3726,2024 8 08,15:40:40.453,0.648339,0.221636,-0.622929,0.377478,-0.995516,-0.034551,-0.143154,37.250431,43.438622,81.628815,0,0
3727,2024 8 08,15:40:40.461,0.648106,0.227917,-0.622564,0.374713,-1.00283,-0.057841,-0.13906,37.782104,43.221947,84.107613,0,0
3728,2024 8 08,15:40:40.470,0.647831,0.235762,-0.622033,0.37119,-0.997881,-0.088486,-0.131509,37.535,43.162891,86.11631,0,0
3729,2024 8 08,15:40:40.478,0.647477,0.243811,-0.621529,0.367428,-1.018838,-0.121857,-0.127241,36.293663,44.689915,86.67131,0,0
3730,2024 8 08,15:40:40.486,0.647003,0.25171,-0.621153,0.363551,-1.054961,-0.17458,-0.123087,33.744884,45.657486,84.994041,0,0
3731,2024 8 08,15:40:40.495,0.646447,0.259239,-0.620864,0.359722,-1.065161,-0.237133,-0.115026,31.291483,44.875652,81.129616,0,0
3732,2024 8 08,15:40:40.503,0.646279,0.261461,-0.620781,0.358588,-1.066965,-0.256031,-0.112461,30.574549,44.570766,79.89753,0,0
3733,2024 8 08,15:40:40.511,0.64574,0.266645,-0.620677,0.355898,-1.056976,-0.315487,-0.108617,28.681229,43.968365,74.815979,0,0
3734,2024 8 08,15:40:40.520,0.644918,0.272814,-0.620696,0.352658,-1.054628,-0.389148,-0.10335,26.494053,44.377789,69.843605,0,0
3735,2024 8 08,15:40:40.528,0.643919,0.279042,-0.62089,0.349248,-1.112605,-0.471872,-0.083038,24.604139,45.742283,68.438385,0,0
3736,2024 8 08,15:40:40.536,0.642984,0.285252,-0.620883,0.345949,-1.172362,-0.610303,-0.024426,26.768951,41.488255,68.346756,0,0
3737,2024 8 08,15:40:40.545,0.641769,0.291031,-0.621026,0.343127,-1.249144,-1.071973,-0.385476,26.673977,40.548706,55.084484,0,0
3738,2024 8 08,15:40:40.553,0.641332,0.293011,-0.621085,0.342173,-1.276693,-1.248416,-0.53282,26.491131,40.44199,49.793884,0,0
3739,2024 8 08,15:40:40.561,0.640816,0.295443,-0.619689,0.34358,-0.953243,-0.288561,-0.045555,47.056725,7.808662,26.562424,0,0
3740,2024 8 08,15:40:40.570,0.639139,0.298859,-0.61777,0.34717,-0.68157,-1.319184,-0.210223,66.481438,6.244122,7.316889,0,0
3741,2024 8 08,15:40:40.578,0.635427,0.302886,-0.617386,0.351141,-0.772069,-1.226618,-0.175262,76.134682,31.884157,-7.433466,0,0
3742,2024 8 08,15:40:40.586,0.630852,0.307142,-0.617309,0.355783,-0.812006,-1.145293,-0.203369,83.255409,32.13903,-16.492588,0,0
3743,2024 8 08,15:40:40.595,0.62612,0.311443,-0.616812,0.36121,-0.856022,-1.07921,-0.234146,90.69899,28.863613,-22.069733,0,0
3744,2024 8 08,15:40:40.603,0.624274,0.313119,-0.616593,0.363363,-0.874327,-1.054376,-0.245853,93.626373,27.637228,-24.081476,0,0
3745,2024 8 08,15:40:40.611,0.620824,0.315931,-0.615906,0.367958,-0.89785,-1.071573,-0.222665,96.323868,21.786339,-29.552048,0,0
3746,2024 8 08,15:40:40.620,0.616334,0.319279,-0.614661,0.374608,-0.894687,-1.109146,-0.210794,103.219635,14.821583,-37.955753,0,0
3747,2024 8 08,15:40:40.628,0.611474,0.322306,-0.613072,0.382475,-0.834223,-1.19024,-0.229407,107.32531,7.226655,-47.682549,1,0
3748,2024 8 08,15:40:40.636,0.60623,0.325813,-0.610609,0.391645,-0.862602,-0.739038,-0.066196,128.149902,2.105435,-46.997822,0,0
3749,2024 8 08,15:40:40.645,0.602878,0.328084,-0.60897,0.39756,-0.889915,-0.401528,0.055048,142.992081,-0.888224,-45.545471,0,0
3750,2024 8 08,15:40:40.653,0.597647,0.333612,-0.60572,0.405734,-1.083124,-0.023073,0.190013,124.125885,8.137606,-25.343155,0,0
3751,2024 8 08,15:40:40.661,0.597522,0.333744,-0.605643,0.405929,-1.087737,-0.014039,0.193235,123.675491,8.353077,-24.86087,0,0
3752,2024 8 08,15:40:40.670,0.594084,0.337531,-0.603204,0.411434,-1.166039,0.186012,0.354231,86.908211,0.618429,-20.450844,0,0
3753,2024 8 08,15:40:40.678,0.592131,0.338506,-0.601583,0.4158,-1.218888,0.222023,0.406412,40.397263,-16.6406,-31.720304,0,0
3754,2024 8 08,15:40:40.686,0.592611,0.335148,-0.601692,0.417676,-1.050901,-0.098812,0.211894,-24.181145,-31.137913,-39.817066,0,0
3755,2024 8 08,15:40:40.695,0.594177,0.329104,-0.602702,0.418796,-0.927801,-0.434525,-0.284147,-43.30938,-40.421501,-45.826149,0,0
3756,2024 8 08,15:40:40.703,0.594946,0.324842,-0.601814,0.422295,-0.78335,-0.311103,-0.437763,7.004807,-44.988052,-45.018158,0,0
3757,2024 8 08,15:40:40.711,0.595027,0.324394,-0.60172,0.422663,-0.768183,-0.298144,-0.453893,12.287879,-45.467548,-44.933319,0,0
3758,2024 8 08,15:40:40.720,0.59558,0.321281,-0.600258,0.42632,-0.702747,-0.414603,-0.322952,6.01122,-44.462837,-40.732731,0,0
3759,2024 8 08,15:40:40.728,0.595905,0.318308,-0.599496,0.42916,-0.861762,-0.337117,-0.215195,4.886738,-29.575733,-32.131325,0,0
3760,2024 8 08,15:40:40.736,0.595944,0.316677,-0.598567,0.431604,-0.987411,-0.190719,0.06724,9.943659,-21.904366,-22.349586,0,0
3761,2024 8 08,15:40:40.745,0.596132,0.314473,-0.598223,0.433429,-0.951065,-0.28017,0.01151,-4.829758,-22.623827,-27.334465,0,0
3762,2024 8 08,15:40:40.753,0.596323,0.31181,-0.598188,0.435135,-0.906109,-0.250888,-0.12835,-6.231505,-20.729191,-26.990036,0,0
3763,2024 8 08,15:40:40.761,0.596356,0.311348,-0.598182,0.435431,-0.898301,-0.245802,-0.15264,-6.47496,-20.400131,-26.930216,0,0
3764,2024 8 08,15:40:40.770,0.596596,0.309912,-0.598006,0.436366,-0.920005,-0.215056,-0.102985,-3.333029,-14.897551,-16.525482,0,0
3765,2024 8 08,15:40:40.778,0.596805,0.30849,-0.598077,0.436992,-0.943976,-0.264085,-0.089464,-8.580877,-10.197292,-14.06822,0,0
3766,2024 8 08,15:40:40.786,0.596944,0.306964,-0.59834,0.437515,-0.936629,-0.242726,-0.046534,-9.413454,-8.472334,-12.323116,0,0
3767,2024 8 08,15:40:40.795,0.597143,0.305924,-0.598499,0.437756,-0.956221,-0.245338,-0.028281,-5.529115,-6.355588,-6.706488,0,0
3768,2024 8 08,15:40:40.803,0.597266,0.305219,-0.598546,0.438016,-0.944542,-0.245175,-0.055568,-4.054866,-4.949433,-5.452049,0,0
3769,2024 8 08,15:40:40.811,0.597294,0.305055,-0.598557,0.438077,-0.941826,-0.245137,-0.061914,-3.712002,-4.622406,-5.160306,0,0
3770,2024 8 08,15:40:40.820,0.597345,0.304547,-0.598665,0.438212,-0.920387,-0.27065,-0.102459,-2.808842,-3.267331,-5.317698,0,0
3771,2024 8 08,15:40:40.828,0.597187,0.304184,-0.598799,0.438498,-0.911776,-0.261181,-0.10252,-0.916037,0.18007,-5.267015,0,0
3772,2024 8 08,15:40:40.836,0.59684,0.303892,-0.599186,0.438642,-0.924864,-0.265142,-0.069406,-2.785867,3.833632,-5.832761,0,0
3773,2024 8 08,15:40:40.845,0.596154,0.303379,-0.59989,0.438969,-0.939634,-0.229924,-0.040477,-1.43682,5.999148,-12.675632,0,0
3774,2024 8 08,15:40:40.853,0.595322,0.30276,-0.600813,0.439261,-0.958331,-0.227183,-0.033897,-2.936831,8.337149,-14.343813,0,0
3775,2024 8 08,15:40:40.861,0.594509,0.302328,-0.60173,0.439405,-0.962945,-0.266011,-0.034786,-3.792742,9.344639,-10.684388,0,0
3776,2024 8 08,15:40:40.870,0.594273,0.302202,-0.601997,0.439447,-0.96429,-0.277328,-0.035045,-4.042222,9.6383,-9.617745,0,0
3777,2024 8 08,15:40:40.878,0.593609,0.301984,-0.602628,0.439629,-0.96166,-0.268585,-0.031079,-1.295246,9.094449,-10.056689,0,0
3778,2024 8 08,15:40:40.886,0.592872,0.301795,-0.603284,0.439853,-0.954854,-0.271903,-0.023197,-0.494454,8.261071,-8.31653,0,0
3779,2024 8 08,15:40:40.895,0.592203,0.301831,-0.603797,0.440025,-0.957004,-0.272615,-0.02303,1.529465,7.422282,-5.25566,0,0
3780,2024 8 08,15:40:40.903,0.591637,0.301927,-0.604181,0.440195,-0.958999,-0.268602,-0.025913,1.812573,6.092375,-4.149993,0,0
3781,2024 8 08,15:40:40.911,0.590969,0.301988,-0.604635,0.440426,-0.955361,-0.280493,-0.026918,1.374411,4.27875,-3.761102,0,0
3782,2024 8 08,15:40:40.920,0.590906,0.30199,-0.604678,0.44045,-0.954634,-0.28268,-0.026858,1.283559,4.093077,-3.783726,0,0
3783,2024 8 08,15:40:40.928,0.590454,0.301841,-0.604935,0.440805,-0.959512,-0.241137,-0.020333,2.504842,2.968363,-7.453286,0,0
3784,2024 8 08,15:40:40.936,0.590087,0.301751,-0.605164,0.441044,-0.956817,-0.265849,-0.023123,2.08217,2.657044,-4.478729,0,0
3785,2024 8 08,15:40:40.945,0.589711,0.301759,-0.605293,0.441364,-0.951382,-0.272052,-0.039703,2.851507,1.983598,-4.067477,0,0
3786,2024 8 08,15:40:40.953,0.589358,0.301784,-0.605351,0.44174,-0.953432,-0.268928,-0.033032,4.352423,1.501551,-3.795236,0,0
3787,2024 8 08,15:40:40.961,0.589009,0.301854,-0.605359,0.442146,-0.953684,-0.277376,-0.027507,4.524396,1.076282,-3.441358,0,0
3788,2024 8 08,15:40:40.970,0.588935,0.30187,-0.60536,0.442232,-0.953647,-0.300362,0.136979,4.517402,0.986796,-3.365598,0,0
3789,2024 8 08,15:40:40.978,0.588691,0.301935,-0.605314,0.442576,-0.951027,-0.273413,-0.027129,5.030467,0.417261,-3.030985,0,0
3790,2024 8 08,15:40:40.986,0.588464,0.301983,-0.605224,0.442967,-0.94701,-0.278371,-0.033214,4.108431,-0.563013,-2.435854,0,0
3791,2024 8 08,15:40:40.995,0.588293,0.302009,-0.605117,0.443323,-0.949993,-0.265474,-0.028343,3.420291,-1.177496,-2.192107,0,0
3792,2024 8 08,15:40:41.003,0.58824,0.301926,-0.605023,0.443579,-0.940976,-0.284418,-0.043524,2.18673,-1.855915,-1.561782,0,0
3793,2024 8 08,15:40:41.011,0.588253,0.301811,-0.604907,0.443798,-0.952953,-0.277678,-0.021479,0.377351,-2.924619,-1.156976,0,0
3794,2024 8 08,15:40:41.020,0.588258,0.301779,-0.604874,0.443857,-0.957159,-0.27458,-0.013808,-0.136836,-3.231794,-1.058209,0,0
3795,2024 8 08,15:40:41.028,0.588339,0.301575,-0.604789,0.444004,-0.944771,-0.285434,-0.027675,-0.181365,-3.887668,-1.47246,0,0
3796,2024 8 08,15:40:41.036,0.588464,0.301983,-0.605224,0.442967,-0.941868,-0.279961,-0.035592,-0.736075,-4.482577,-1.273473,0,0
3797,2024 8 08,15:40:41.045,0.588605,0.301081,-0.604492,0.444391,-0.943877,-0.27346,-0.03119,0.459396,-4.235179,-1.098795,0,0
3798,2024 8 08,15:40:41.053,0.588759,0.300856,-0.604294,0.444608,-0.944313,-0.277506,-0.036624,0.665053,-4.535595,-0.926139,0,0
3799,2024 8 08,15:40:41.061,0.588884,0.300711,-0.604053,0.444869,-0.945337,-0.275675,-0.033322,1.941057,-4.376062,-0.747474,0,0
3800,2024 8 08,15:40:41.070,0.588924,0.300667,-0.603972,0.444955,-0.945715,-0.274714,-0.031733,2.418735,-4.296553,-0.689081,0,0
3801,2024 8 08,15:40:41.078,0.588988,0.300623,-0.603768,0.445177,-0.944201,-0.281217,-0.036171,2.808669,-4.158209,-0.435513,0,0
3802,2024 8 08,15:40:41.086,0.589038,0.300615,-0.603469,0.445522,-0.935997,-0.282227,-0.043669,4.171256,-4.067059,-0.575164,0,0
3803,2024 8 08,15:40:41.095,0.589024,0.300706,-0.603121,0.445951,-0.935606,-0.270974,-0.04797,5.792872,-3.451971,-0.568245,0,0
3804,2024 8 08,15:40:41.103,0.589001,0.30082,-0.602771,0.446376,-0.941506,-0.275623,-0.042822,5.952707,-3.165009,-0.438458,0,0
3805,2024 8 08,15:40:41.111,0.588959,0.30099,-0.602406,0.446811,-0.949124,-0.276149,-0.033426,6.425975,-3.044835,-0.156946,0,0
3806,2024 8 08,15:40:41.120,0.588942,0.301056,-0.602269,0.446973,-0.952008,-0.275962,-0.029773,6.632004,-3.00611,-0.044628,0,0
3807,2024 8 08,15:40:41.128,0.588924,0.300667,-0.603972,0.444955,-0.94744,-0.284874,-0.039504,6.540524,-4.115822,-0.535993,0,0
3808,2024 8 08,15:40:41.136,0.588924,0.300667,-0.603972,0.444955,-0.954154,-0.280266,-0.035409,7.783957,-4.794631,-0.278659,0,0
3809,2024 8 08,15:40:41.145,0.588965,0.301437,-0.600944,0.448466,-0.952841,-0.28225,-0.055378,8.353013,-6.303604,-0.785728,0,0
3810,2024 8 08,15:40:41.153,0.589052,0.301595,-0.600258,0.449164,-0.949404,-0.282132,-0.049901,9.646791,-7.10534,-0.138139,0,0
3811,2024 8 08,15:40:41.161,0.589137,0.301794,-0.599474,0.449965,-0.931953,-0.290168,-0.07133,10.867261,-8.092937,-0.404377,0,0
3812,2024 8 08,15:40:41.170,0.589172,0.301878,-0.599146,0.4503,-0.923906,-0.294016,-0.082107,11.356259,-8.518698,-0.583379,0,0
3813,2024 8 08,15:40:41.178,0.589196,0.302106,-0.598535,0.450927,-0.93753,-0.270339,-0.054246,12.42617,-7.887216,-0.186555,0,0
3814,2024 8 08,15:40:41.186,0.589211,0.302266,-0.598113,0.45136,-0.94811,-0.35131,-0.043755,13.172223,-7.392789,0.117437,0,0
3815,2024 8 08,15:40:41.195,0.589229,0.302571,-0.597258,0.452264,-0.927426,-0.286559,-0.07109,13.301657,-7.563087,0.003527,0,0
3816,2024 8 08,15:40:41.203,0.589112,0.303111,-0.596299,0.453318,-0.964136,-0.283361,-0.010168,16.804264,-6.926682,-0.349721,0,0
3817,2024 8 08,15:40:41.211,0.588929,0.30364,-0.595294,0.454522,-0.944607,-0.274488,-0.072297,19.313625,-6.956168,-1.341894,0,0
3818,2024 8 08,15:40:41.220,0.588601,0.304327,-0.594253,0.455847,-0.924907,-0.274427,-0.114844,20.081604,-5.995463,-2.305121,0,0
3819,2024 8 08,15:40:41.228,0.588578,0.304376,-0.594179,0.455942,-0.9235,-0.274423,-0.117883,20.136454,-5.926849,-2.373915,0,0
3820,2024 8 08,15:40:41.236,0.588176,0.304946,-0.593415,0.457072,-0.955507,-0.233055,-0.045086,17.995773,-3.33566,-3.039832,0,0
3821,2024 8 08,15:40:41.245,0.587761,0.305327,-0.592806,0.458141,-0.954284,-0.265044,-0.048847,14.42448,-3.246086,-4.569142,0,0
3822,2024 8 08,15:40:41.253,0.587313,0.305658,-0.592243,0.459221,-0.963137,-0.235604,-0.016307,14.353299,-3.343235,-5.058019,0,0
3823,2024 8 08,15:40:41.261,0.586942,0.305756,-0.59171,0.460316,-0.959572,-0.268741,-0.044845,13.078252,-4.779744,-6.64781,0,0
3824,2024 8 08,15:40:41.270,0.586538,0.305862,-0.591134,0.461499,-0.990748,-0.258594,-0.053241,13.480448,-5.388232,-7.276789,0,0
3825,2024 8 08,15:40:41.278,0.586219,0.305772,-0.590561,0.462697,-0.961574,-0.278902,-0.069255,11.997746,-6.606668,-8.138614,0,0
3826,2024 8 08,15:40:41.286,0.586169,0.305758,-0.590472,0.462884,-0.957014,-0.282076,-0.071758,11.766001,-6.797109,-8.273317,0,0
3827,2024 8 08,15:40:41.295,0.585947,0.305578,-0.590007,0.463875,-0.935032,-0.287812,-0.084587,9.074881,-7.979978,-8.195746,0,0
3828,2024 8 08,15:40:41.303,0.585703,0.305325,-0.589549,0.464929,-0.944168,-0.277764,-0.0675,8.892919,-6.856244,-8.08314,0,0
3829,2024 8 08,15:40:41.311,0.585491,0.304914,-0.589154,0.465966,-0.945886,-0.297731,-0.078337,6.419333,-7.91333,-9.476786,0,0
3830,2024 8 08,15:40:41.320,0.585252,0.304534,-0.588735,0.467044,-0.953165,-0.284727,-0.08087,7.904565,-7.062827,-8.789346,0,0
3831,2024 8 08,15:40:41.328,0.585032,0.304141,-0.588286,0.46814,-0.953918,-0.285449,-0.098149,8.023143,-8.075691,-9.693356,0,0
3832,2024 8 08,15:40:41.336,0.584984,0.304056,-0.588189,0.468378,-0.954082,-0.285606,-0.101909,8.048945,-8.296091,-9.890068,0,0
3833,2024 8 08,15:40:41.345,0.584747,0.303807,-0.587768,0.469362,-0.92922,-0.268175,-0.078978,9.819988,-7.091902,-9.423739,0,0
3834,2024 8 08,15:40:41.353,0.584406,0.303521,-0.587476,0.470337,-0.961542,-0.258551,-0.108452,7.575756,-4.420632,-9.497252,0,0
3835,2024 8 08,15:40:41.361,0.584042,0.303054,-0.587352,0.471243,-0.941879,-0.29031,-0.100793,4.349223,-4.038298,-11.057731,0,0
3836,2024 8 08,15:40:41.370,0.58354,0.302543,-0.587403,0.472129,-0.975634,-0.27792,-0.085217,4.023769,-2.057889,-12.216024,0,0
3837,2024 8 08,15:40:41.378,0.582938,0.302027,-0.58744,0.473156,-0.98626,-0.284601,-0.098864,6.066286,-2.292112,-13.894058,0,0
3838,2024 8 08,15:40:41.386,0.582776,0.301888,-0.587449,0.473434,-0.989136,-0.286409,-0.102557,6.618984,-2.355492,-14.348128,0,0
3839,2024 8 08,15:40:41.395,0.582178,0.301461,-0.587392,0.474511,-0.997566,-0.281365,-0.123351,8.896749,-2.89325,-16.468378,0,0
3840,2024 8 08,15:40:41.403,0.581356,0.300934,-0.587238,0.47604,-0.992438,-0.286434,-0.10428,11.35001,-4.076125,-19.219379,0,0
3841,2024 8 08,15:40:41.411,0.580356,0.300325,-0.58709,0.477823,-1.004495,-0.290301,-0.113926,13.089938,-3.661371,-21.894878,0,0
3842,2024 8 08,15:40:41.420,0.57914,0.299702,-0.586946,0.479861,-1.019209,-0.297844,-0.086645,15.29305,-3.452196,-24.506445,0,0
3843,2024 8 08,15:40:41.428,0.577692,0.299124,-0.586765,0.482181,-1.029739,-0.308145,-0.089817,19.294132,-3.014046,-27.347834,0,0
3844,2024 8 08,15:40:41.436,0.577233,0.298941,-0.586708,0.482916,-1.033075,-0.311409,-0.090822,20.561951,-2.875211,-28.24818,0,0
3845,2024 8 08,15:40:41.445,0.575812,0.298458,-0.586547,0.485099,-1.053005,-0.310841,-0.088223,22.394451,-2.302163,-32.358208,0,0
3846,2024 8 08,15:40:41.453,0.573248,0.297628,-0.586279,0.488957,-1.148589,-0.282559,-0.114512,27.066982,-2.069373,-37.432236,0,0
3847,2024 8 08,15:40:41.461,0.570841,0.297004,-0.585947,0.492536,-1.28826,-0.305532,-0.024791,31.911385,-1.817863,-42.013821,0,0
3848,2024 8 08,15:40:41.470,0.568681,0.296729,-0.585178,0.496102,-1.168836,-0.306707,0.000485,42.764023,-7.648582,-36.320713,0,0
3849,2024 8 08,15:40:41.478,0.565408,0.295423,-0.58489,0.500936,-1.297911,-0.154068,-0.057893,29.524807,-3.494448,-64.000771,0,0
3850,2024 8 08,15:40:41.486,0.564783,0.295157,-0.584852,0.501847,-1.328828,-0.12244,-0.070376,26.469166,-2.456478,-69.938187,0,0
3851,2024 8 08,15:40:41.495,0.561577,0.292617,-0.585755,0.505854,-1.335951,-0.243614,-0.004912,24.373232,-2.241194,-81.969971,0,0
3852,2024 8 08,15:40:41.503,0.5576,0.289479,-0.586632,0.511013,-1.304812,-0.36756,-0.100262,25.011839,-6.596925,-81.531487,0,0
3853,2024 8 08,15:40:41.511,0.552812,0.285558,-0.587201,0.517716,-1.358321,-0.251365,-0.085941,26.277298,-10.17845,-106.575989,0,0
3854,2024 8 08,15:40:41.520,0.547227,0.279725,-0.588987,0.524746,-1.363061,-0.314452,-0.087496,17.977108,-7.784259,-131.525513,0,0
3855,2024 8 08,15:40:41.528,0.540587,0.272774,-0.591224,0.532698,-1.385111,-0.293305,-0.02826,16.953279,-10.129826,-150.868484,0,0
3856,2024 8 08,15:40:41.536,0.538908,0.271021,-0.591787,0.534701,-1.391542,-0.283825,-0.011167,17.017965,-10.915627,-155.477341,0,0
3857,2024 8 08,15:40:41.545,0.53326,0.264335,-0.5937,0.541511,-1.369616,-0.315668,0.04942,16.6703,-16.6024,-169.154526,0,0
3858,2024 8 08,15:40:41.553,0.525779,0.255114,-0.596047,0.550566,-1.358865,-0.360522,0.073999,13.260662,-23.218435,-184.260452,0,0
3859,2024 8 08,15:40:41.561,0.517672,0.244481,-0.598386,0.560425,-1.398218,-0.403495,0.108551,13.235149,-30.140324,-198.036713,0,0
3860,2024 8 08,15:40:41.570,0.509277,0.232609,-0.600423,0.570871,-1.33706,-0.479836,0.123262,13.305867,-40.712147,-210.330994,0,0
3861,2024 8 08,15:40:41.578,0.500363,0.219877,-0.602045,0.581962,-1.25055,-0.141674,0.317162,16.48218,-44.966232,-221.780746,0,0
3862,2024 8 08,15:40:41.586,0.497632,0.215975,-0.602521,0.585359,-1.223833,-0.585831,0.146479,17.592443,-45.946747,-225.231308,0,0
3863,2024 8 08,15:40:41.595,0.490155,0.205944,-0.603633,0.594011,-1.182992,-0.712519,0.153582,19.224653,-43.545204,-232.796387,0,0
3864,2024 8 08,15:40:41.603,0.48011,0.193315,-0.605117,0.604798,-1.271276,-0.880934,0.157332,19.955257,-36.506325,-235.316513,0,1
3865,2024 8 08,15:40:41.611,0.469128,0.180693,-0.606465,0.615845,-1.39399,-0.914368,0.115151,25.385645,-31.402733,-231.864594,0,0
3866,2024 8 08,15:40:41.620,0.458373,0.168144,-0.606802,0.627055,-1.312411,-0.824874,0.110424,35.868813,-40.092007,-227.653641,0,0
3867,2024 8 08,15:40:41.628,0.447798,0.155785,-0.606347,0.638223,-1.15982,-0.767919,0.077397,39.314342,-40.242329,-222.934341,0,0
3868,2024 8 08,15:40:41.636,0.444079,0.15144,-0.606153,0.642155,-1.103931,-0.750404,0.063895,40.11869,-39.732449,-221.244263,0,0
3869,2024 8 08,15:40:41.645,0.435704,0.143222,-0.605562,0.650241,-0.965999,-0.684608,0.07116,47.13689,-28.674347,-221.497849,0,0
3870,2024 8 08,15:40:41.653,0.424223,0.133823,-0.604654,0.660548,-0.769363,-0.588733,0.130458,57.868046,-11.241308,-220.798065,0,0
3871,2024 8 08,15:40:41.661,0.410776,0.125679,-0.603887,0.671233,-0.70534,-0.548304,0.136193,64.858887,16.348446,-216.633377,0,0
3872,2024 8 08,15:40:41.670,0.396011,0.119556,-0.602944,0.681969,-0.594082,-0.442869,0.242856,80.113777,38.862907,-207.640945,0,0
3873,2024 8 08,15:40:41.678,0.381189,0.116652,-0.601087,0.692479,-0.54955,-0.193384,0.439922,104.505432,62.550774,-175.684265,0,0
3874,2024 8 08,15:40:41.686,0.367807,0.118744,-0.597156,0.702695,-0.945602,-0.088748,0.004214,139.919144,79.52034,-122.843239,0,0
3875,2024 8 08,15:40:41.695,0.362529,0.11986,-0.595462,0.706776,-1.130574,-0.056863,-0.209784,154.719238,85.894615,-100.588303,0,0
3876,2024 8 08,15:40:41.703,0.356162,0.124363,-0.590129,0.71366,-1.127234,0.275988,0.006378,165.216919,72.158821,-60.571239,0,0
3877,2024 8 08,15:40:41.711,0.351168,0.131668,-0.582583,0.720965,-1.102258,0.563312,-0.012416,162.098724,54.589462,-14.039276,0,0
3878,2024 8 08,15:40:41.720,0.348179,0.136498,-0.577664,0.725563,-1.086547,0.735866,-0.05251,158.831909,43.398083,15.640703,0,0
3879,2024 8 08,15:40:41.728,0.347661,0.143846,-0.568958,0.731248,-0.705428,0.824786,-0.080938,134.970154,17.161989,32.417511,0,0
3880,2024 8 08,15:40:41.736,0.34779,0.150634,-0.562206,0.735032,-0.464985,0.845451,-0.096591,99.108139,24.978699,37.471291,0,0
3881,2024 8 08,15:40:41.745,0.347903,0.15707,-0.55775,0.737024,-0.37906,0.808147,-0.127753,68.51017,34.935677,38.750797,0,0
3882,2024 8 08,15:40:41.753,0.347909,0.157388,-0.55753,0.737122,-0.374814,0.806303,-0.129293,66.998138,35.427711,38.814026,0,0
3883,2024 8 08,15:40:41.761,0.348106,0.163643,-0.555372,0.737293,-0.503348,0.716115,-0.137497,39.769424,47.674355,46.136093,0,0
3884,2024 8 08,15:40:41.770,0.349107,0.170414,-0.554545,0.735906,-0.591322,0.630634,-0.117261,17.15337,51.4422,58.460396,0,0
3885,2024 8 08,15:40:41.778,0.351273,0.177493,-0.554788,0.733011,-0.656101,0.502617,-0.118949,-1.503765,53.256866,75.320099,0,0
3886,2024 8 08,15:40:41.786,0.354764,0.184902,-0.555602,0.728868,-0.69423,0.373432,-0.124301,-14.470428,51.284561,92.904198,0,0
3887,2024 8 08,15:40:41.795,0.3594,0.192748,-0.556495,0.723862,-0.693915,0.275628,-0.116826,-19.786688,50.36694,108.53949,0,0
3888,2024 8 08,15:40:41.803,0.359987,0.19374,-0.556608,0.723229,-0.693875,0.263254,-0.11588,-20.459312,50.250839,110.5177,0,0
3889,2024 8 08,15:40:41.811,0.36484,0.201207,-0.557302,0.718194,-0.694698,0.177852,-0.12445,-21.070127,51.684849,121.873581,0,0
3890,2024 8 08,15:40:41.820,0.370752,0.210267,-0.557798,0.712151,-0.737343,0.11602,-0.142495,-19.219431,54.965614,134.763672,0,0
3891,2024 8 08,15:40:41.828,0.377276,0.220315,-0.557874,0.705589,-0.808354,0.079054,-0.163148,-15.996637,57.459633,147.981079,0,0
3892,2024 8 08,15:40:41.836,0.384478,0.231115,-0.557384,0.69859,-0.861155,0.049217,-0.188199,-12.655947,57.040428,161.698502,0,0
3893,2024 8 08,15:40:41.845,0.392412,0.242609,-0.556331,0.69107,-0.925035,0.014685,-0.202587,-10.475257,57.308357,176.090485,0,0
3894,2024 8 08,15:40:41.853,0.393935,0.244816,-0.556129,0.689625,-0.937303,-0.158623,-0.089864,-10.056438,57.359814,178.854584,0,0
3895,2024 8 08,15:40:41.861,0.401272,0.255122,-0.554746,0.682707,-1.021875,-0.027044,-0.204758,-9.444371,57.562012,190.968994,0,0
3896,2024 8 08,15:40:41.870,0.410359,0.267295,-0.552717,0.674211,-1.092456,-0.071233,-0.208801,-10.072594,54.5261,202.628571,0,0
3897,2024 8 08,15:40:41.878,0.420311,0.279908,-0.55016,0.664969,-1.126044,-0.104596,-0.193972,-11.241074,50.719131,212.180832,0,0
3898,2024 8 08,15:40:41.886,0.430784,0.292543,-0.547362,0.655048,-1.16116,-0.14373,-0.166879,-15.718019,48.824238,218.96051,0,0
3899,2024 8 08,15:40:41.895,0.441542,0.30504,-0.544566,0.644413,-1.21015,-0.178695,-0.13553,-22.319523,48.461605,223.280807,0,0
3900,2024 8 08,15:40:41.903,0.444215,0.308145,-0.543872,0.641771,-1.222322,-0.187382,-0.127741,-23.959641,48.37151,224.354172,0,0
3901,2024 8 08,15:40:41.911,0.453105,0.317935,-0.541738,0.632472,-1.262951,-0.21033,-0.098596,-30.497246,47.723362,226.549713,0,0
3902,2024 8 08,15:40:41.920,0.463734,0.329038,-0.539409,0.620926,-1.316463,-0.236196,-0.072496,-39.824326,46.7127,228.147797,0,0
3903,2024 8 08,15:40:41.928,0.474939,0.339944,-0.537309,0.608241,-1.371961,-0.265272,-0.027646,-52.109341,45.170479,227.58165,0,0
3904,2024 8 08,15:40:41.936,0.486418,0.350094,-0.535656,0.5947,-1.413151,-0.309373,0.022281,-65.410965,43.139114,225.566483,0,0
3905,2024 8 08,15:40:41.945,0.498033,0.359331,-0.534575,0.580361,-1.44728,-0.36688,0.073282,-80.062965,42.721233,222.59256,0,0
3906,2024 8 08,15:40:41.953,0.501488,0.362079,-0.534254,0.576096,-1.457433,-0.383987,0.088454,-84.421593,42.596924,221.707886,0,0
3907,2024 8 08,15:40:41.961,0.510635,0.368339,-0.534101,0.564057,-1.48425,-0.450345,0.128162,-96.984802,42.80957,217.804825,0,0
3908,2024 8 08,15:40:41.970,0.521358,0.374919,-0.534559,0.549215,-1.508495,-0.525617,0.174283,-110.536652,44.528667,211.627426,0,0
3909,2024 8 08,15:40:41.978,0.532428,0.380713,-0.535817,0.533102,-1.525076,-0.605279,0.202436,-126.438202,45.44614,203.152557,0,0
3910,2024 8 08,15:40:41.986,0.547427,0.387054,-0.538755,0.5101,-1.569106,-0.685444,0.263136,-148.826477,47.53294,187.533951,0,0
3911,2024 8 08,15:40:41.995,0.558075,0.389535,-0.542261,0.492654,-1.549324,-0.751211,0.284104,-164.845123,46.176731,173.661407,0,0
3912,2024 8 08,15:40:42.003,0.559657,0.389873,-0.542802,0.490048,-1.545105,-0.761413,0.286551,-167.220673,45.907139,171.576111,0,0
3913,2024 8 08,15:40:42.011,0.568436,0.390345,-0.546612,0.475037,-1.494206,-0.836269,0.316846,-182.554382,46.049931,161.086349,0,0
3914,2024 8 08,15:40:42.020,0.578452,0.389689,-0.551909,0.456997,-1.467415,-0.934892,0.362566,-198.448837,47.766747,148.884445,0,0
3915,2024 8 08,15:40:42.028,0.588193,0.387514,-0.557843,0.438837,-1.388547,-1.022079,0.401895,-208.946426,44.754086,134.575592,0,0
3916,2024 8 08,15:40:42.036,0.597534,0.383743,-0.56414,0.421117,-1.239057,-1.105273,0.430657,-216.514862,39.677956,117.46608,0,0
3917,2024 8 08,15:40:42.045,0.606019,0.378773,-0.57095,0.403959,-1.036331,-1.185723,0.393436,-218.602585,42.423126,99.982315,0,0
3918,2024 8 08,15:40:42.053,0.607862,0.377645,-0.572466,0.400194,-0.99024,-1.203369,0.38315,-218.895966,43.286667,96.129837,0,0
3919,2024 8 08,15:40:42.061,0.613401,0.373229,-0.578421,0.387023,-0.753355,-1.226765,0.24043,-214.123032,52.85463,86.323013,0,0
3920,2024 8 08,15:40:42.070,0.618544,0.36834,-0.586442,0.371086,-0.517477,-1.211433,0.112081,-204.272049,76.412155,75.6492,0,0
3921,2024 8 08,15:40:42.078,0.621371,0.363795,-0.596466,0.35447,-0.617269,-1.41435,0.098342,-202.575165,113.97448,61.957275,0,0
3922,2024 8 08,15:40:42.086,0.621442,0.359103,-0.60906,0.337252,-1.026839,-1.684164,0.089059,-206.422272,150.494934,42.903824,0,0
3923,2024 8 08,15:40:42.095,0.620864,0.35335,-0.621338,0.321644,-1.276311,-1.962955,0.069248,-192.001648,124.590576,23.874784,0,0
3924,2024 8 08,15:40:42.103,0.622037,0.34688,-0.629336,0.310782,-1.065095,-2.13991,0.034616,-149.077942,52.215225,11.953141,0,0
3925,2024 8 08,15:40:42.111,0.622454,0.344981,-0.631472,0.30783,-0.985237,-2.186739,0.023998,-135.530273,29.635477,8.802288,0,0
3926,2024 8 08,15:40:42.120,0.624774,0.340624,-0.633426,0.303945,-0.725018,-2.142313,0.008504,-101.99295,-1.773268,7.532562,0,0
3927,2024 8 08,15:40:42.128,0.627483,0.336202,-0.634593,0.300842,-0.564117,-1.990381,0.011663,-69.14061,-14.712663,5.885409,0,0
3928,2024 8 08,15:40:42.136,0.629326,0.333132,-0.635085,0.299385,-0.57477,-1.7385,0.036304,-36.486828,-14.429082,1.847489,0,0
3929,2024 8 08,15:40:42.145,0.630427,0.331304,-0.6348,0.299705,-0.631449,-1.46651,0.062413,-8.538422,-19.410866,-2.945337,0,0
3930,2024 8 08,15:40:42.153,0.631247,0.330368,-0.63361,0.301526,-0.633776,-1.228118,0.116289,11.50164,-26.902977,-5.400388,0,0
3931,2024 8 08,15:40:42.161,0.631516,0.330087,-0.633164,0.30221,-0.631599,-1.148834,0.136044,17.947245,-29.52702,-6.112099,0,0
3932,2024 8 08,15:40:42.170,0.631888,0.330129,-0.631791,0.304251,-0.615386,-0.970999,0.180722,25.17531,-28.682549,-4.954415,0,0
3933,2024 8 08,15:40:42.178,0.632079,0.330634,-0.630016,0.306972,-0.54034,-0.748471,0.245667,31.9548,-24.866934,-4.647576,0,0
3934,2024 8 08,15:40:42.186,0.63167,0.331547,-0.628567,0.309784,-0.509404,-0.563686,0.293363,34.711105,-13.959065,-7.04802,0,0
3935,2024 8 08,15:40:42.195,0.630358,0.332473,-0.628039,0.312522,-0.614524,-0.366509,0.296875,33.240067,-0.044457,-15.424539,0,0
3936,2024 8 08,15:40:42.203,0.626966,0.337595,-0.626768,0.316341,-0.795969,-0.438824,-1.08759,94.487671,16.546707,3.004796,0,0
3937,2024 8 08,15:40:42.211,0.625551,0.339806,-0.626229,0.31787,-0.868909,-0.482441,-1.699352,121.676437,23.051432,11.687943,0,0
3938,2024 8 08,15:40:42.220,0.630174,0.33326,-0.621532,0.324687,-0.813953,-0.659416,-0.524313,59.190819,-112.349358,-65.306625,0,0
3939,2024 8 08,15:40:42.228,0.635911,0.32251,-0.613549,0.338954,-0.96376,-0.171958,0.046883,28.426136,-207.733337,-124.835014,0,0
3940,2024 8 08,15:40:42.236,0.642299,0.307301,-0.608332,0.350179,-1.058452,-0.647509,-0.461307,-44.6031,-174.161072,-143.665375,1,0
3941,2024 8 08,15:40:42.245,0.647141,0.292916,-0.605592,0.358319,-0.929403,-0.953548,-0.627228,-48.184139,-129.990875,-119.157509,0,0
3942,2024 8 08,15:40:42.253,0.650175,0.284006,-0.602473,0.365331,-0.861839,-0.518711,-0.282661,-8.331581,-94.904846,-77.610016,0,0
3943,2024 8 08,15:40:42.261,0.651947,0.278866,-0.60043,0.369702,-0.828059,-0.176394,-0.022108,19.991613,-73.433662,-50.188217,0,0
3944,2024 8 08,15:40:42.270,0.651967,0.278807,-0.600407,0.369752,-0.827673,-0.172476,-0.019126,20.315798,-73.187904,-49.874348,0,0
3945,2024 8 08,15:40:42.278,0.653686,0.273953,-0.599863,0.371225,-1.057955,-0.089056,-0.065854,-43.448868,-39.656616,-36.643379,0,0
3946,2024 8 08,15:40:42.286,0.655609,0.267738,-0.599729,0.372579,-0.792058,-0.127615,-0.341208,-37.807961,-45.493481,-49.648735,0,0
3947,2024 8 08,15:40:42.295,0.655073,0.262399,-0.601124,0.375063,-0.820645,-0.284672,-0.244983,-26.593887,-3.78466,-65.299095,0,0
3948,2024 8 08,15:40:42.303,0.653371,0.258046,-0.603702,0.376907,-0.925603,-0.338416,-0.050307,-26.274021,7.019319,-55.231071,0,0
3949,2024 8 08,15:40:42.311,0.65218,0.25392,-0.605892,0.378255,-0.920934,-0.395782,-0.121371,-26.578978,1.05949,-48.504147,0,0
3950,2024 8 08,15:40:42.320,0.652068,0.25353,-0.606099,0.378383,-0.920492,-0.401207,-0.128092,-26.607815,0.495895,-47.868011,0,0
3951,2024 8 08,15:40:42.328,0.651207,0.250713,-0.607182,0.380001,-0.914435,-0.294902,-0.086744,-11.104298,-2.730163,-40.556324,0,0
3952,2024 8 08,15:40:42.336,0.650371,0.248381,-0.608052,0.38157,-0.898047,-0.296621,-0.220268,-6.97973,-1.897606,-32.962967,0,0
3953,2024 8 08,15:40:42.345,0.649566,0.247134,-0.608798,0.382561,-0.915113,-0.18448,-0.122065,-5.081483,5.573559,-16.825771,0,0
3954,2024 8 08,15:40:42.353,0.648838,0.245957,-0.610036,0.382583,-0.917959,-0.231961,-0.14062,-13.208512,9.884901,-16.121315,0,0
3955,2024 8 08,15:40:42.361,0.647996,0.244572,-0.611471,0.382606,-0.958261,-0.225029,-0.07351,-15.424949,10.904136,-16.877302,0,0
3956,2024 8 08,15:40:42.370,0.647857,0.244344,-0.611708,0.38261,-0.964903,-0.223887,-0.062451,-15.790199,11.072097,-17.001883,0,0
3957,2024 8 08,15:40:42.378,0.647069,0.243079,-0.612992,0.382693,-0.98787,-0.240335,-0.083105,-14.714688,10.160162,-20.046143,0,0
3958,2024 8 08,15:40:42.386,0.646249,0.241535,-0.614385,0.382824,-0.987441,-0.22891,-0.08616,-15.933589,9.158993,-18.508192,0,0
3959,2024 8 08,15:40:42.395,0.645352,0.240132,-0.615694,0.383116,-0.98697,-0.217007,-0.058929,-10.181471,9.300992,-20.670832,0,0
3960,2024 8 08,15:40:42.403,0.644332,0.238745,-0.616993,0.383607,-0.971221,-0.244718,-0.06554,-9.474575,9.330223,-21.497786,0,0
3961,2024 8 08,15:40:42.411,0.643213,0.237543,-0.618226,0.384246,-0.966695,-0.235226,-0.057159,-6.116642,10.137922,-20.78031,0,0
3962,2024 8 08,15:40:42.420,0.642962,0.237273,-0.618503,0.38439,-0.965677,-0.233092,-0.055274,-5.361415,10.31958,-20.618944,0,0
3963,2024 8 08,15:40:42.428,0.642023,0.236565,-0.619453,0.384864,-0.957339,-0.24732,-0.062565,-4.402219,11.282577,-18.694204,0,0
3964,2024 8 08,15:40:42.436,0.640934,0.2358,-0.620514,0.385438,-0.952765,-0.236587,-0.053785,-2.804538,11.107292,-17.816999,0,0
3965,2024 8 08,15:40:42.445,0.639912,0.235356,-0.621487,0.385841,-0.960605,-0.243595,-0.042941,-1.862695,11.467769,-11.931425,0,0
3966,2024 8 08,15:40:42.453,0.639,0.235164,-0.622308,0.386145,-0.969046,-0.246842,-0.030518,0.471381,10.406117,-9.19887,0,0
3967,2024 8 08,15:40:42.461,0.63814,0.235147,-0.622954,0.386537,-0.975885,-0.2442,-0.021554,2.416909,8.978337,-8.200804,0,0
3968,2024 8 08,15:40:42.470,0.637901,0.235142,-0.623133,0.386646,-0.977779,-0.243468,-0.019072,2.955727,8.582911,-7.924387,0,0
3969,2024 8 08,15:40:42.478,0.637249,0.235217,-0.623497,0.387089,-0.970412,-0.23329,-0.035208,5.300607,7.868688,-8.232328,0,0
3970,2024 8 08,15:40:42.486,0.636492,0.23523,-0.62394,0.387611,-0.968255,-0.24221,-0.046392,3.692296,7.61708,-8.704962,0,0
3971,2024 8 08,15:40:42.495,0.635697,0.235144,-0.624432,0.388176,-0.966935,-0.239846,-0.041009,3.209098,7.163154,-9.855847,0,0
3972,2024 8 08,15:40:42.503,0.63487,0.23485,-0.624984,0.388819,-0.961205,-0.2308,-0.027706,2.89396,6.690682,-12.663859,0,0
3973,2024 8 08,15:40:42.511,0.634066,0.234537,-0.62553,0.389441,-0.950182,-0.228606,-0.005407,1.807102,6.500582,-11.903289,0,0
3974,2024 8 08,15:40:42.520,0.633296,0.234245,-0.626088,0.389973,-0.942393,-0.268615,-0.034699,2.840944,6.48,-10.436609,0,0
3975,2024 8 08,15:40:42.528,0.632914,0.234101,-0.626364,0.390236,-0.938532,-0.2873,0.023093,3.353367,6.469798,-9.70965,0,0
3976,2024 8 08,15:40:42.536,0.632253,0.234117,-0.626642,0.390852,-0.943048,-0.257612,-0.055096,4.440702,5.643939,-8.982136,0,0
3977,2024 8 08,15:40:42.545,0.631586,0.234074,-0.626945,0.391468,-0.945066,-0.268436,-0.052048,5.546299,4.990435,-8.092524,0,0
3978,2024 8 08,15:40:42.553,0.630961,0.234155,-0.627146,0.392107,-0.944125,-0.264125,-0.038893,5.727498,4.387614,-6.841087,0,0
3979,2024 8 08,15:40:42.561,0.63042,0.234168,-0.627294,0.392731,-0.940735,-0.266348,-0.045787,5.489981,2.898553,-6.805418,0,0
3980,2024 8 08,15:40:42.570,0.630003,0.234184,-0.627408,0.39321,-0.954034,-0.280265,-0.032131,3.978024,2.152288,-4.937268,0,0
3981,2024 8 08,15:40:42.578,0.629921,0.234188,-0.62743,0.393303,-0.957226,-0.283384,-0.028672,3.635742,2.026864,-4.499868,0,0
3982,2024 8 08,15:40:42.586,0.629627,0.234234,-0.6274,0.393794,-0.954113,-0.267411,-0.015505,5.778369,0.692392,-4.885489,0,0
3983,2024 8 08,15:40:42.595,0.629367,0.234247,-0.627288,0.394379,-0.949166,-0.264001,-0.030057,6.381432,-1.187178,-4.944295,0,0
3984,2024 8 08,15:40:42.603,0.629148,0.234197,-0.627125,0.395018,-0.939872,-0.264089,-0.056927,5.033558,-2.101135,-5.265625,0,0
3985,2024 8 08,15:40:42.611,0.628964,0.234051,-0.627003,0.395591,-0.932362,-0.261981,-0.063813,4.143198,-1.744495,-5.446899,0,0
3986,2024 8 08,15:40:42.620,0.628788,0.233814,-0.626959,0.396079,-0.93948,-0.259562,-0.043298,2.152969,-1.476734,-5.709786,0,0
3987,2024 8 08,15:40:42.628,0.628742,0.233748,-0.626951,0.396206,-0.941932,-0.258922,-0.036898,1.577425,-1.41574,-5.783852,0,0
3988,2024 8 08,15:40:42.636,0.628598,0.233504,-0.626992,0.396511,-0.949649,-0.261956,-0.035864,1.048745,-1.362316,-6.187978,0,0
3989,2024 8 08,15:40:42.645,0.628433,0.233169,-0.627055,0.396869,-0.960711,-0.263651,-0.052205,0.632342,-1.174327,-6.017,0,0
3990,2024 8 08,15:40:42.653,0.628278,0.232781,-0.627123,0.397235,-0.963041,-0.266446,-0.046527,-0.417953,-1.325777,-6.194108,0,0
3991,2024 8 08,15:40:42.661,0.62818,0.232282,-0.627202,0.397558,-0.958635,-0.265003,-0.045378,-1.22618,-2.14272,-6.477324,0,0
3992,2024 8 08,15:40:42.670,0.628077,0.231729,-0.627278,0.397923,-0.956022,-0.259708,-0.039771,-1.378536,-2.507876,-7.022822,0,0
3993,2024 8 08,15:40:42.678,0.628043,0.231551,-0.627302,0.398042,-0.955313,-0.214786,-0.063818,-1.398128,-2.598296,-7.209159,0,0
3994,2024 8 08,15:40:42.686,0.628013,0.231074,-0.627366,0.398266,-0.952568,-0.276539,-0.041455,-2.251427,-2.98221,-7.088832,0,0
3995,2024 8 08,15:40:42.695,0.627986,0.230516,-0.62737,0.398626,-0.949616,-0.267508,-0.047765,-1.221829,-3.766347,-6.836291,0,0
3996,2024 8 08,15:40:42.703,0.627968,0.229923,-0.627375,0.398988,-0.952716,-0.276083,-0.051285,-1.593496,-3.69829,-6.823682,0,0
3997,2024 8 08,15:40:42.711,0.627948,0.229323,-0.627352,0.399402,-0.946631,-0.273403,-0.037063,-0.799781,-4.21168,-7.105859,0,0
3998,2024 8 08,15:40:42.720,0.627915,0.228723,-0.627334,0.399826,-0.955013,-0.267639,-0.054791,-0.862623,-4.318783,-7.567935,0,0
3999,2024 8 08,15:40:42.728,0.627903,0.228503,-0.627327,0.399981,-0.958961,-0.265484,-0.063183,-0.944934,-4.329412,-7.744611,0,0
4000,2024 8 08,15:40:42.736,0.627903,0.228503,-0.627327,0.399981,-0.957632,-0.272735,-0.042865,-0.741312,-4.860163,-8.019318,0,0
4001,2024 8 08,15:40:42.745,0.627871,0.227438,-0.627229,0.400791,-0.965832,-0.276593,-0.050032,0.022301,-4.71889,-8.206475,0,0
4002,2024 8 08,15:40:42.753,0.627826,0.226855,-0.627078,0.401428,-0.958682,-0.278986,-0.049635,1.785934,-5.505191,-8.714849,0,0
4003,2024 8 08,15:40:42.761,0.627768,0.226282,-0.626876,0.402158,-0.949026,-0.291262,-0.048741,2.169376,-6.204731,-8.934838,0,0
4004,2024 8 08,15:40:42.769,0.62768,0.225728,-0.62663,0.402987,-0.944883,-0.262807,-0.083676,3.312616,-6.216754,-9.290733,0,0
4005,2024 8 08,15:40:42.778,0.627643,0.225504,-0.626528,0.403329,-0.943542,-0.280705,-0.075498,3.837944,-6.181448,-9.446796,0,0
4006,2024 8 08,15:40:42.786,0.627574,0.225099,-0.626356,0.40393,-0.939721,-0.276898,-0.056761,3.335063,-6.099495,-10.061938,0,0
4007,2024 8 08,15:40:42.794,0.627526,0.224821,-0.626239,0.404341,-0.937046,-0.274428,-0.042513,2.930561,-6.042603,-10.497107,0,0
4008,2024 8 08,15:40:42.803,0.627385,0.224129,-0.626139,0.405097,-0.957189,-0.284017,-0.039604,1.550554,-5.023112,-10.737883,0,0
4009,2024 8 08,15:40:42.811,0.627229,0.223484,-0.625954,0.40598,-0.961316,-0.28371,-0.031523,3.829669,-6.068393,-11.686863,0,0
4010,2024 8 08,15:40:42.819,0.627036,0.22283,-0.625723,0.406993,-0.954468,-0.302314,-0.054531,5.298641,-6.33453,-12.182581,0,0
4011,2024 8 08,15:40:42.828,0.626778,0.222239,-0.625377,0.408243,-0.956444,-0.28392,-0.051929,7.028593,-7.091855,-13.466308,0,0
4012,2024 8 08,15:40:42.836,0.626763,0.222203,-0.625356,0.408318,-0.956563,-0.282813,-0.051772,7.132705,-7.137432,-13.543565,0,0
4013,2024 8 08,15:40:42.844,0.626466,0.221647,-0.625042,0.409555,-0.969931,-0.274715,-0.046417,8.364991,-6.862467,-14.829537,0,0
4014,2024 8 08,15:40:42.853,0.626085,0.221048,-0.624692,0.410993,-0.975042,-0.274891,-0.070538,9.459689,-6.289837,-16.477671,0,0
4015,2024 8 08,15:40:42.861,0.625613,0.220367,-0.624385,0.41254,-0.963862,-0.299152,-0.066877,9.40625,-6.232873,-17.832106,0,0
4016,2024 8 08,15:40:42.869,0.625023,0.219731,-0.624077,0.414238,-0.986521,-0.283079,-0.083973,10.947971,-5.692812,-19.317831,0,0
4017,2024 8 08,15:40:42.878,0.624364,0.21901,-0.623793,0.416036,-0.966164,-0.298356,-0.050712,10.928411,-5.310027,-20.870691,0,0
4018,2024 8 08,15:40:42.886,0.624274,0.313119,-0.616593,0.363363,-0.963403,-0.300428,-0.046201,10.925757,-5.258113,-21.081291,0,0
4019,2024 8 08,15:40:42.894,0.623536,0.218264,-0.6236,0.417955,-1.001953,-0.290481,-0.074652,11.899218,-4.122864,-22.957445,0,0
4020,2024 8 08,15:40:42.903,0.622665,0.217428,-0.623358,0.420044,-0.970006,-0.304692,-0.024515,12.963739,-5.30919,-25.935286,0,0
4021,2024 8 08,15:40:42.911,0.621618,0.216523,-0.62319,0.422304,-1.018142,-0.307492,-0.071575,13.992541,-4.161355,-27.636946,0,0
4022,2024 8 08,15:40:42.919,0.62042,0.215557,-0.623008,0.424821,-1.013373,-0.30839,-0.067007,15.261897,-3.856683,-31.492228,0,0
4023,2024 8 08,15:40:42.928,0.618999,0.214502,-0.622908,0.427565,-1.0261,-0.296875,-0.04316,16.817318,-2.143581,-34.755608,0,0
4024,2024 8 08,15:40:42.936,0.617341,0.213304,-0.622928,0.430521,-1.018642,-0.283419,-0.084554,17.128168,-1.945465,-39.687042,0,0
4025,2024 8 08,15:40:42.944,0.616993,0.213053,-0.622932,0.431141,-1.017078,-0.280598,-0.093232,17.193333,-1.903932,-40.720852,0,0
4026,2024 8 08,15:40:42.953,0.615409,0.21183,-0.623128,0.433713,-1.092935,-0.305505,-0.117656,15.377761,1.014172,-43.668774,0,0
4027,2024 8 08,15:40:42.961,0.613297,0.210213,-0.623388,0.437101,-1.126959,-0.305262,-0.038675,17.929867,0.24386,-50.647251,0,0
4028,2024 8 08,15:40:42.969,0.61081,0.208136,-0.623958,0.440747,-1.211277,-0.29934,-0.155516,15.650122,2.580488,-57.298958,0,0
4029,2024 8 08,15:40:42.978,0.607987,0.205731,-0.624422,0.445095,-1.22192,-0.270351,-0.075286,18.846212,0.485088,-67.315041,0,0
4030,2024 8 08,15:40:42.986,0.604645,0.202518,-0.625269,0.449898,-1.305557,-0.273694,-0.102792,15.812821,1.964374,-80.433456,0,0
4031,2024 8 08,15:40:42.994,0.603764,0.20167,-0.625493,0.451165,-1.32761,-0.274576,-0.110044,15.012978,2.354432,-83.892517,0,0
4032,2024 8 08,15:40:43.003,0.600558,0.198538,-0.626161,0.45587,-1.358107,-0.272716,-0.071068,19.826378,-0.295561,-95.026421,0,0
4033,2024 8 08,15:40:43.011,0.59637,0.193956,-0.62691,0.462243,-1.448326,-0.26112,-0.064304,21.174555,-4.671619,-111.771751,0,0
4034,2024 8 08,15:40:43.019,0.591466,0.188027,-0.627701,0.469834,-1.544478,-0.244089,-0.0538,21.391726,-10.167549,-132.039474,0,0
4035,2024 8 08,15:40:43.028,0.585904,0.180392,-0.628491,0.478625,-1.568178,-0.234651,-0.020562,18.409149,-17.802135,-156.907608,0,0
4036,2024 8 08,15:40:43.036,0.579815,0.170718,-0.629385,0.488275,-1.587424,-0.25456,-0.009139,11.225225,-26.815964,-179.856659,0,0
4037,2024 8 08,15:40:43.044,0.577923,0.167711,-0.629663,0.491274,-1.593406,-0.260748,-0.005588,8.992424,-29.61751,-186.989334,0,0
4038,2024 8 08,15:40:43.053,0.572903,0.158202,-0.630272,0.499405,-1.605471,-0.279763,0.042092,2.05372,-39.646484,-201.141418,0,0
4039,2024 8 08,15:40:43.061,0.567004,0.145258,-0.630828,0.509191,-1.59285,-0.351476,0.039107,-8.393652,-53.775047,-213.975128,0,0
4040,2024 8 08,15:40:43.069,0.558824,0.124592,-0.631051,0.52336,-1.449006,-0.492278,0.072631,-18.970119,-74.888176,-229.805542,0,0
4041,2024 8 08,15:40:43.078,0.552868,0.107151,-0.630434,0.534171,-1.360327,-0.635428,-0.027859,-21.264751,-85.582535,-235.46051,0,1
4042,2024 8 08,15:40:43.086,0.547107,0.089198,-0.629165,0.544785,-1.281063,-0.80015,-0.062363,-24.413807,-93.263924,-234.969391,0,0
4043,2024 8 08,15:40:43.094,0.546122,0.086109,-0.628934,0.546601,-1.26746,-0.828862,-0.066178,-24.989719,-94.52832,-234.754181,0,0
4044,2024 8 08,15:40:43.103,0.541083,0.071451,-0.627641,0.555081,-1.362851,-0.809669,-0.134288,-21.735214,-89.399178,-231.25914,0,0
4045,2024 8 08,15:40:43.111,0.535471,0.054278,-0.625511,0.564773,-1.331313,-0.859282,-0.084893,-17.956236,-95.203293,-223.371826,0,0
4046,2024 8 08,15:40:43.119,0.530715,0.037094,-0.622281,0.574137,-1.153898,-0.806912,-0.035384,-11.883257,-108.52977,-210.899109,0,0
4047,2024 8 08,15:40:43.128,0.526417,0.020527,-0.618127,0.583336,-0.947692,-0.596777,-0.031574,-4.048412,-109.927277,-202.836487,0,0
4048,2024 8 08,15:40:43.136,0.521918,0.004764,-0.613747,0.592276,-0.704402,-0.430508,0.019392,-0.308338,-101.474976,-198.24057,0,0
4049,2024 8 08,15:40:43.144,0.520833,0.001018,-0.612696,0.594406,-0.644951,-0.393014,0.03347,0.434499,-99.171898,-197.237549,0,0
4050,2024 8 08,15:40:43.153,0.516501,-0.010247,-0.609666,0.601131,-0.558077,-0.297494,0.005019,1.118937,-84.84095,-194.444046,0,0
4051,2024 8 08,15:40:43.161,0.510648,-0.023402,-0.606323,0.609074,-0.332603,-0.253785,0.174281,0.595599,-69.715698,-187.001282,0,0
4052,2024 8 08,15:40:43.169,0.504959,-0.033709,-0.603025,0.616575,-0.179924,0.107895,0.434918,21.443409,-46.102791,-147.580063,0,0
4053,2024 8 08,15:40:43.178,0.501788,-0.038979,-0.599634,0.622167,-0.678848,0.028676,-0.052198,33.043945,-34.22443,-80.585777,0,0
4054,2024 8 08,15:40:43.186,0.502067,-0.040893,-0.596137,0.62519,-0.890904,0.321439,0.088784,34.904083,-34.705536,-18.979816,0,0
4055,2024 8 08,15:40:43.194,0.502286,-0.041342,-0.595095,0.625985,-0.936838,0.428065,0.163531,35.105995,-35.310783,-1.094534,0,0
4056,2024 8 08,15:40:43.203,0.505714,-0.041042,-0.592547,0.625658,-0.950888,-0.244228,-0.089427,27.632877,-52.959908,30.765661,0,0
4057,2024 8 08,15:40:43.211,0.512331,-0.041191,-0.58831,0.624246,-0.747771,0.395354,0.080513,23.732601,-82.112503,52.98159,0,0
4058,2024 8 08,15:40:43.219,0.520322,-0.041826,-0.583781,0.62183,-0.501821,0.406825,0.0881,13.866879,-88.681328,64.0457,0,0
4059,2024 8 08,15:40:43.228,0.528172,-0.042192,-0.58029,0.618445,-0.439355,0.400783,0.069926,0.537621,-76.382156,71.707436,0,0
4060,2024 8 08,15:40:43.236,0.535608,-0.042045,-0.578233,0.61397,-0.516418,0.381381,0.080576,-14.832788,-61.660862,80.081543,0,0
4061,2024 8 08,15:40:43.244,0.538162,-0.04197,-0.577587,0.612371,-0.54892,0.374094,0.086024,-20.23918,-56.560192,83.032578,0,0
4062,2024 8 08,15:40:43.253,0.543598,-0.041592,-0.577313,0.607824,-0.646932,0.34118,0.0961,-32.324753,-53.213383,91.546104,0,0
4063,2024 8 08,15:40:43.261,0.551086,-0.041346,-0.577389,0.600965,-0.684869,0.288463,0.107448,-46.160622,-58.203213,103.186684,0,0
4064,2024 8 08,15:40:43.269,0.559649,-0.041384,-0.577876,0.592496,-0.65112,0.223231,0.121061,-60.167023,-61.642303,115.148193,0,0
4065,2024 8 08,15:40:43.278,0.568652,-0.041422,-0.579038,0.582683,-0.634988,0.151622,0.133804,-72.711456,-58.719044,126.206253,0,0
4066,2024 8 08,15:40:43.286,0.577736,-0.041208,-0.580959,0.571724,-0.657704,0.079719,0.142465,-82.914658,-52.319847,136.097366,0,0
4067,2024 8 08,15:40:43.294,0.581272,-0.041111,-0.581746,0.567405,-0.668595,0.051778,0.145604,-86.758232,-49.678596,139.88382,0,0
4068,2024 8 08,15:40:43.303,0.587813,-0.040602,-0.583697,0.558596,-0.704418,0.002685,0.147711,-91.002632,-45.8325,146.108627,0,0
4069,2024 8 08,15:40:43.311,0.596126,-0.039616,-0.586434,0.546814,-0.767361,-0.057274,0.152566,-94.87381,-41.730526,154.492996,0,0
4070,2024 8 08,15:40:43.319,0.605126,-0.03814,-0.589492,0.533538,-0.844549,-0.120569,0.163254,-97.841049,-39.843533,164.73877,0,0
4071,2024 8 08,15:40:43.328,0.614645,-0.036125,-0.592512,0.519217,-0.914378,-0.17313,0.173937,-98.667816,-40.643272,176.792221,0,0
4072,2024 8 08,15:40:43.336,0.620708,-0.034804,-0.594416,0.510075,-0.957678,-0.205306,0.180614,-98.9963,-41.375771,184.566971,0,0
4073,2024 8 08,15:40:43.344,0.631033,-0.031821,-0.59706,0.494263,-1.023357,-0.251344,0.190205,-98.462517,-43.944691,198.875336,0,0
4074,2024 8 08,15:40:43.353,0.641905,-0.028237,-0.599268,0.477516,-1.09485,-0.284812,0.216727,-97.510941,-48.524151,211.53334,0,0
4075,2024 8 08,15:40:43.361,0.642314,-0.028102,-0.599351,0.476886,-1.097541,-0.286072,0.217725,-97.475128,-48.696499,212.00972,0,0
4076,2024 8 08,15:40:43.369,0.653044,-0.024353,-0.600909,0.46024,-1.114547,-0.309841,0.247407,-96.789513,-53.947605,220.752365,0,0
4077,2024 8 08,15:40:43.378,0.664409,-0.020286,-0.602102,0.442243,-1.120153,-0.340151,0.275857,-97.586967,-57.099224,226.154205,0,0
4078,2024 8 08,15:40:43.386,0.675616,-0.016189,-0.603094,0.42368,-1.138752,-0.358925,0.309099,-100.362221,-56.517235,229.070862,0,0
4079,2024 8 08,15:40:43.394,0.686432,-0.012147,-0.604084,0.404577,-1.171022,-0.374619,0.345333,-104.655563,-54.171589,230.812042,0,0
4080,2024 8 08,15:40:43.403,0.696766,-0.008329,-0.605148,0.384925,-1.206252,-0.391758,0.386574,-111.454376,-51.289635,231.370453,0,0
4081,2024 8 08,15:40:43.411,0.697971,-0.007884,-0.605273,0.382634,-1.210359,-0.393756,0.391382,-112.247009,-50.95364,231.435562,0,0
4082,2024 8 08,15:40:43.419,0.706511,-0.004872,-0.606463,0.364626,-1.246918,-0.408676,0.430125,-120.151817,-46.511486,230.606033,0,0
4083,2024 8 08,15:40:43.428,0.715375,-0.002052,-0.608024,0.344149,-1.289245,-0.437637,0.468211,-129.940155,-42.582142,227.957886,0,0
4084,2024 8 08,15:40:43.436,0.723643,0.000116,-0.609844,0.322971,-1.323394,-0.475066,0.511101,-139.631943,-38.009796,223.528519,0,0
4085,2024 8 08,15:40:43.444,0.731103,0.00156,-0.611954,0.301439,-1.344241,-0.539531,0.553501,-148.906647,-32.68705,218.128326,0,0
4086,2024 8 08,15:40:43.453,0.737686,0.002304,-0.614343,0.279738,-1.369316,-0.599188,0.585487,-156.872299,-26.299931,211.678116,0,0
4087,2024 8 08,15:40:43.461,0.738894,0.00244,-0.614782,0.275755,-1.373918,-0.610139,0.591358,-158.334503,-25.127489,210.494095,0,0
4088,2024 8 08,15:40:43.469,0.743467,0.002344,-0.617144,0.257455,-1.388764,-0.668849,0.610325,-164.479996,-18.650549,203.336639,0,0
4089,2024 8 08,15:40:43.478,0.747867,0.001577,-0.620097,0.236691,-1.384514,-0.720621,0.647877,-169.368423,-11.58918,192.5,0,0
4090,2024 8 08,15:40:43.486,0.751394,-5.8e-05,-0.623424,0.21583,-1.345791,-0.789148,0.683117,-173.956635,-3.653929,179.50502,0,0
4091,2024 8 08,15:40:43.494,0.753843,-0.00243,-0.627134,0.195562,-1.297933,-0.836549,0.707782,-175.913086,6.193439,165.494644,0,0
4092,2024 8 08,15:40:43.503,0.755107,-0.005456,-0.631352,0.176081,-1.263938,-0.871177,0.728643,-176.644012,18.353777,151.537552,0,0
4093,2024 8 08,15:40:43.511,0.755412,-0.006186,-0.632369,0.171384,-1.255742,-0.879526,0.733672,-176.820236,21.285648,148.172485,0,0
4094,2024 8 08,15:40:43.519,0.755332,-0.009186,-0.636268,0.15637,-1.236745,-0.924523,0.743583,-176.233261,30.176605,138.542236,0,0
4095,2024 8 08,15:40:43.528,0.754418,-0.012921,-0.641182,0.139369,-1.230765,-0.948632,0.731174,-174.522064,39.871376,129.369232,0,0
4096,2024 8 08,15:40:43.536,0.752769,-0.017061,-0.646473,0.122257,-1.231988,-0.96423,0.677819,-173.448578,46.291607,121.502472,0,0
4097,2024 8 08,15:40:43.544,0.750556,-0.021542,-0.651844,0.105434,-1.240687,-0.951448,0.634564,-173.719437,50.453766,114.633812,0,0
4098,2024 8 08,15:40:43.553,0.747958,-0.02649,-0.657084,0.088908,-1.203867,-0.956442,0.584754,-175.088333,51.115604,107.562935,0,0
4099,2024 8 08,15:40:43.561,0.747202,-0.02793,-0.65861,0.084098,-1.19315,-0.957896,0.570256,-175.486771,51.308239,105.50486,0,0
4100,2024 8 08,15:40:43.569,0.74494,-0.032337,-0.662421,0.07145,-1.139382,-1.008898,0.537607,-176.19574,49.722408,99.285637,0,0
4101,2024 8 08,15:40:43.578,0.742022,-0.038102,-0.666756,0.056791,-1.080892,-1.085548,0.515268,-178.663895,50.153774,91.002884,0,0
4102,2024 8 08,15:40:43.586,0.738742,-0.044679,-0.671052,0.041952,-1.014374,-1.197028,0.507931,-178.57196,49.175518,82.053558,0,0
4103,2024 8 08,15:40:43.594,0.735409,-0.051583,-0.674938,0.027768,-0.913368,-1.304298,0.520921,-172.665924,44.984745,73.10141,0,0
4104,2024 8 08,15:40:43.603,0.730738,-0.061103,-0.679828,0.009629,-0.767958,-1.453223,0.518921,-160.859634,44.072105,60.842632,0,0
4105,2024 8 08,15:40:43.611,0.730256,-0.062076,-0.680302,0.007853,-0.752756,-1.468501,0.517619,-159.450882,44.247128,59.59428,0,0
4106,2024 8 08,15:40:43.619,0.727055,-0.067821,-0.683199,-0.001667,-0.688823,-1.546309,0.465368,-146.980408,47.106453,50.288868,0,0
4107,2024 8 08,15:40:43.628,0.723199,-0.074243,-0.686526,-0.011253,-0.641927,-1.564855,0.419415,-129.678299,50.052807,38.301369,0,0
4108,2024 8 08,15:40:43.636,0.71919,-0.080369,-0.689867,-0.01915,-0.669953,-1.529131,0.362161,-113.38398,52.296623,26.105274,0,0
4109,2024 8 08,15:40:43.644,0.715351,-0.086369,-0.692925,-0.025436,-0.714626,-1.46423,0.279609,-100.11248,48.896442,13.029028,0,0
4110,2024 8 08,15:40:43.653,0.712083,-0.092409,-0.695313,-0.030352,-0.718355,-1.355972,0.230504,-89.992928,39.016804,0.052744,0,0
4111,2024 8 08,15:40:43.661,0.71141,-0.093686,-0.695798,-0.031355,-0.717852,-1.331877,0.22127,-87.940521,36.755714,-2.680439,0,0
4112,2024 8 08,15:40:43.669,0.709517,-0.098765,-0.696882,-0.034288,-0.69387,-1.231482,0.185565,-83.994881,27.320358,-12.490443,0,0
4113,2024 8 08,15:40:43.678,0.707698,-0.105229,-0.697624,-0.037344,-0.656492,-1.064526,0.144454,-81.774277,17.689907,-21.706545,0,0
4114,2024 8 08,15:40:43.686,0.706238,-0.112332,-0.697832,-0.040265,-0.651775,-0.864106,0.107869,-85.495789,11.474148,-29.202072,0,0
4115,2024 8 08,15:40:43.694,0.704808,-0.120185,-0.697779,-0.043381,-0.636784,-0.738429,0.115287,-94.276978,10.29103,-35.264214,0,0
4116,2024 8 08,15:40:43.703,0.703253,-0.129109,-0.697522,-0.04687,-0.620905,-0.658124,0.127788,-106.228271,9.316251,-41.460964,0,0
4117,2024 8 08,15:40:43.711,0.702823,-0.131583,-0.697445,-0.047836,-0.61663,-0.637588,0.131143,-109.591492,9.031378,-43.164078,0,0
4118,2024 8 08,15:40:43.719,0.700513,-0.137394,-0.69845,-0.050528,-2.754583,-2.088071,-1.433731,-84.279938,45.17585,-19.425467,0,0
4119,2024 8 08,15:40:43.728,0.704425,-0.150911,-0.691404,-0.05352,-1.697564,-1.785382,-0.187221,-160.985123,-124.238884,-110.0317,0,0
4120,2024 8 08,15:40:43.736,0.715515,-0.167273,-0.675858,-0.054865,-1.477011,-1.565841,0.132349,-120.600082,-230.115051,-143.876221,1,0
4121,2024 8 08,15:40:43.744,0.730626,-0.178864,-0.655844,-0.060871,-0.983592,-1.72728,0.081846,-116.962967,-306.038788,-63.855789,0,0
4122,2024 8 08,15:40:43.753,0.74731,-0.177799,-0.636923,-0.062603,-0.539742,-0.725178,-1.053033,65.462784,-283.17572,-15.235847,0,0
4123,2024 8 08,15:40:43.761,0.761436,-0.169489,-0.622649,-0.059442,-0.319194,0.458737,-0.852986,114.838165,-194.643768,-8.638853,0,0
4124,2024 8 08,15:40:43.769,0.76601,-0.166443,-0.618111,-0.058179,-0.255952,0.853531,-0.711131,123.197212,-162.547058,-8.197078,0,0
4125,2024 8 08,15:40:43.778,0.76819,-0.167215,-0.615262,-0.057877,-0.723432,0.362492,-0.05639,-1.342758,-55.949898,-20.242374,0,0
4126,2024 8 08,15:40:43.786,0.767515,-0.17278,-0.614378,-0.059835,-1.115749,-0.297168,-0.154067,-63.227337,-14.577957,-26.467257,0,0
4127,2024 8 08,15:40:43.794,0.769646,-0.175845,-0.610811,-0.060099,-0.826065,-0.294217,-0.358674,-8.734055,-58.32103,-26.570534,0,0
4128,2024 8 08,15:40:43.803,0.771898,-0.176723,-0.60786,-0.058611,-0.744293,-0.124072,-0.331118,2.981905,-25.983448,-26.564217,0,0
4129,2024 8 08,15:40:43.811,0.771993,-0.178451,-0.607364,-0.057315,-0.870055,-0.187581,-0.259017,-8.549021,3.882341,-25.577452,0,0
4130,2024 8 08,15:40:43.819,0.771908,-0.179167,-0.607309,-0.056848,-0.926823,-0.225562,-0.2312,-13.732447,14.271929,-25.142622,0,0
4131,2024 8 08,15:40:43.828,0.77146,-0.180469,-0.607596,-0.055716,-0.914231,-0.245694,-0.174671,-7.096691,15.533878,-24.388706,0,0
4132,2024 8 08,15:40:43.836,0.77045,-0.181702,-0.608643,-0.054228,-0.968904,-0.228801,-0.060616,-3.140813,23.317211,-19.717216,0,0
4133,2024 8 08,15:40:43.844,0.769303,-0.182854,-0.609865,-0.052886,-0.979337,-0.228881,-0.051695,-3.163316,21.518093,-16.68376,0,0
4134,2024 8 08,15:40:43.853,0.768344,-0.183784,-0.610897,-0.051688,-0.976689,-0.228003,-0.056194,-0.586308,17.982857,-14.019191,0,0
4135,2024 8 08,15:40:43.861,0.767563,-0.241644,-0.589333,-0.071426,-0.968233,-0.199611,-0.047325,2.295354,15.178705,-11.120813,0,0
4136,2024 8 08,15:40:43.869,0.767246,-0.184558,-0.612176,-0.050101,-0.964382,-0.186066,-0.042814,3.486163,14.056973,-9.897169,0,0
4137,2024 8 08,15:40:43.878,0.767089,-0.184665,-0.612362,-0.04987,-0.962459,-0.179302,-0.040561,4.080792,13.496836,-9.286143,0,0
4138,2024 8 08,15:40:43.886,0.766439,-0.185244,-0.613051,-0.049232,-0.948686,-0.245137,-0.099575,-2.724698,11.829992,-8.092592,0,0
4139,2024 8 08,15:40:43.894,0.765741,-0.18619,-0.613674,-0.048778,-0.980972,-0.174214,-0.034877,-7.589489,11.490187,-9.458853,0,0
4140,2024 8 08,15:40:43.903,0.765047,-0.187613,-0.614127,-0.048507,-1.005365,-0.188575,-0.035601,-13.376638,8.830716,-12.047658,0,0
4141,2024 8 08,15:40:43.911,0.76454,-0.189124,-0.614316,-0.048237,-0.956446,-0.200727,-0.090034,-11.611059,5.902566,-13.102103,0,0
4142,2024 8 08,15:40:43.919,0.764046,-0.190821,-0.614443,-0.04775,-0.94852,-0.210521,-0.139005,-13.049787,6.588992,-15.52201,0,0
4143,2024 8 08,15:40:43.928,0.764005,-0.190963,-0.614454,-0.047709,-0.947855,-0.211343,-0.143112,-13.170472,6.646572,-15.725,0,0
4144,2024 8 08,15:40:43.936,0.763481,-0.192241,-0.614743,-0.047241,-0.966898,-0.180158,-0.005822,-9.599645,9.04047,-14.170501,0,0
4145,2024 8 08,15:40:43.944,0.762859,-0.19395,-0.615017,-0.046724,-0.962981,-0.221662,-0.090953,-13.54598,8.445247,-16.088573,0,0
4146,2024 8 08,15:40:43.953,0.762267,-0.195505,-0.615303,-0.046133,-0.964196,-0.197181,-0.077745,-10.222651,8.742695,-15.053873,0,0
4147,2024 8 08,15:40:43.961,0.761647,-0.19696,-0.615638,-0.045704,-0.959773,-0.20476,-0.08474,-11.499615,8.834366,-13.09287,0,0
4148,2024 8 08,15:40:43.969,0.760979,-0.198226,-0.616078,-0.045445,-0.960367,-0.204211,-0.082872,-9.93639,10.235564,-8.954029,0,0
4149,2024 8 08,15:40:43.978,0.760875,-0.198423,-0.616146,-0.045404,-0.96046,-0.204125,-0.082581,-9.692979,10.453746,-8.309567,0,0
4150,2024 8 08,15:40:43.986,0.760263,-0.199392,-0.616601,-0.04523,-0.967687,-0.213726,-0.073718,-10.103141,10.289778,-9.354025,0,0
4151,2024 8 08,15:40:43.994,0.759627,-0.200496,-0.617046,-0.044978,-0.964617,-0.214637,-0.07373,-8.840903,9.66742,-7.858102,0,0
4152,2024 8 08,15:40:44.003,0.758986,-0.20132,-0.617581,-0.04476,-0.966775,-0.214026,-0.064749,-7.43248,9.648331,-6.112929,0,0
4153,2024 8 08,15:40:44.011,0.758401,-0.202216,-0.618024,-0.044523,-0.96913,-0.20812,-0.061431,-7.154106,8.439217,-8.082253,0,0
4154,2024 8 08,15:40:44.019,0.757876,-0.203068,-0.618405,-0.044301,-0.969999,-0.20537,-0.068362,-7.096346,7.664492,-6.395489,0,0
4155,2024 8 08,15:40:44.028,0.757762,-0.203252,-0.618487,-0.044253,-0.970188,-0.204774,-0.069867,-7.083807,7.496304,-6.029304,0,0
4156,2024 8 08,15:40:44.036,0.757372,-0.203758,-0.618809,-0.044116,-0.975809,-0.20092,-0.053846,-4.849832,7.039876,-5.295627,0,0
4157,2024 8 08,15:40:44.044,0.756964,-0.204352,-0.619121,-0.043979,-0.976766,-0.206259,-0.049336,-5.28804,6.059625,-5.122759,0,0
4158,2024 8 08,15:40:44.053,0.75661,-0.204972,-0.619362,-0.043804,-0.965015,-0.211559,-0.058039,-4.487306,4.821208,-5.806804,0,0
4159,2024 8 08,15:40:44.061,0.756301,-0.20556,-0.619555,-0.04365,-0.962039,-0.221876,-0.058807,-4.598584,4.193441,-5.082655,0,0
4160,2024 8 08,15:40:44.069,0.756051,0.037776,-0.608492,0.23811,-0.959485,-0.230255,-0.056169,-5.204369,2.609632,-4.89306,0,0
4161,2024 8 08,15:40:44.078,0.755984,-0.206314,-0.619701,-0.043523,-0.958796,-0.232519,-0.055457,-5.368025,2.181757,-4.84184,0,0
4162,2024 8 08,15:40:44.086,0.755849,-0.20674,-0.619728,-0.043448,-0.96242,-0.220659,-0.053524,-4.936537,1.542274,-4.393917,0,0
4163,2024 8 08,15:40:44.094,0.755735,-0.207232,-0.619704,-0.043428,-0.963801,-0.219322,-0.044049,-4.298357,0.501447,-4.051247,0,0
4164,2024 8 08,15:40:44.103,0.755678,-0.207844,-0.619567,-0.043448,-0.956062,-0.264404,-0.050426,-6.401319,-1.501404,-5.138212,0,0
4165,2024 8 08,15:40:44.111,0.755738,-0.208457,-0.619302,-0.043257,-0.950706,-0.225973,-0.060406,-3.553058,-2.567248,-6.305372,0,0
4166,2024 8 08,15:40:44.119,0.755846,-0.208901,-0.619029,-0.043125,-0.951375,-0.220401,-0.061832,-2.381865,-3.062828,-4.881208,0,0
4167,2024 8 08,15:40:44.128,0.75588,-0.209042,-0.618942,-0.043083,-0.951586,-0.218637,-0.062283,-2.011204,-3.21967,-4.430486,0,0
4168,2024 8 08,15:40:44.136,0.755984,-0.206314,-0.619701,-0.043523,-0.960434,-0.230097,-0.057877,-2.66346,-3.433002,-4.812973,0,0
4169,2024 8 08,15:40:44.144,0.756167,-0.210052,-0.618278,-0.04269,-0.960648,-0.229519,-0.06698,-3.353574,-3.904985,-9.028658,0,0
4170,2024 8 08,15:40:44.153,0.756349,-0.210903,-0.617795,-0.042242,-0.952181,-0.225252,-0.072922,-4.034126,-4.274621,-11.850012,0,0
4171,2024 8 08,15:40:44.161,0.756513,-0.211664,-0.617367,-0.041759,-0.954421,-0.220585,-0.069645,-3.334582,-3.570652,-10.882643,0,0
4172,2024 8 08,15:40:44.169,0.756658,-0.212373,-0.616973,-0.041352,-0.961464,-0.229769,-0.056106,-2.383306,-3.226381,-9.535378,0,0
4173,2024 8 08,15:40:44.178,0.756826,-0.213025,-0.616573,-0.040894,-0.953766,-0.226675,-0.062475,-1.520827,-3.571101,-10.082225,0,0
4174,2024 8 08,15:40:44.186,0.756859,-0.21315,-0.616496,-0.040804,-0.951858,-0.225681,-0.064295,-1.357205,-3.654733,-10.239991,0,0
4175,2024 8 08,15:40:44.194,0.756988,-0.213531,-0.616226,-0.040492,-0.954765,-0.225219,-0.05679,-1.631013,-3.374534,-7.383789,0,0
4176,2024 8 08,15:40:44.203,0.757118,-0.213875,-0.61596,-0.040302,-0.961918,-0.227757,-0.058685,-1.134947,-2.974307,-4.602176,0,0
4177,2024 8 08,15:40:44.211,0.757274,-0.21415,-0.61568,-0.040179,-0.958826,-0.233266,-0.06021,-0.995446,-3.625079,-3.849754,0,0
4178,2024 8 08,15:40:44.219,0.757456,-0.214368,-0.615385,-0.040107,-0.959917,-0.237595,-0.066007,-0.612205,-3.953884,-3.051946,0,0
4179,2024 8 08,15:40:44.228,0.757679,-0.214533,-0.615059,-0.040015,-0.962932,-0.239332,-0.057835,-0.822654,-4.741466,-3.023493,0,0
4180,2024 8 08,15:40:44.236,0.757737,-0.214574,-0.614974,-0.03999,-0.963748,-0.239688,-0.055175,-0.901192,-4.964223,-3.047395,0,0
4181,2024 8 08,15:40:44.244,0.757932,-0.214677,-0.614704,-0.039904,-0.964224,-0.226704,-0.054417,0.232136,-4.910056,-3.051036,0,0
4182,2024 8 08,15:40:44.253,0.75819,-0.214838,-0.614334,-0.03982,-0.954269,-0.231963,-0.069892,-0.145181,-5.235448,-3.269027,0,0
4183,2024 8 08,15:40:44.261,0.758458,-0.214974,-0.613961,-0.039735,-0.955787,-0.234327,-0.072597,-0.196155,-5.38868,-2.91128,0,0
4184,2024 8 08,15:40:44.269,0.758741,-0.215154,-0.613554,-0.039658,-0.953758,-0.24697,-0.083575,-0.567111,-5.635475,-3.287615,0,0
4185,2024 8 08,15:40:44.278,0.759036,-0.215275,-0.61315,-0.039588,-0.950548,-0.241939,-0.077006,-0.27966,-5.883633,-2.518603,0,0
4186,2024 8 08,15:40:44.286,0.759129,-0.21531,-0.613024,-0.039567,-0.94953,-0.262997,-0.059158,-0.156239,-5.960237,-2.219138,0,0
4187,2024 8 08,15:40:44.294,0.759342,-0.215383,-0.61274,-0.039497,-0.948985,-0.239912,-0.074082,0.401053,-5.609128,-2.604184,0,0
4188,2024 8 08,15:40:44.303,0.759619,-0.215438,-0.612383,-0.039398,-0.94849,-0.247533,-0.089817,0.607684,-5.514183,-2.517612,0,0
4189,2024 8 08,15:40:44.311,0.759884,-0.215548,-0.612019,-0.039343,-0.954384,-0.238596,-0.077096,0.017949,-5.219249,-2.300593,0,0
4190,2024 8 08,15:40:44.319,0.760152,-0.215683,-0.61164,-0.039329,-0.95454,-0.241332,-0.071729,-0.971793,-5.61697,-2.341661,0,0
4191,2024 8 08,15:40:44.328,0.760446,-0.215825,-0.611223,-0.039346,-0.95455,-0.249134,-0.079886,-0.400968,-6.263096,-2.019753,0,0
4192,2024 8 08,15:40:44.336,0.760553,-0.215876,-0.611072,-0.039354,-0.9546,-0.252264,-0.083589,-0.108541,0.013386,-0.026772,0,0
4193,2024 8 08,15:40:44.344,0.760811,-0.215933,-0.610731,-0.039329,-0.955832,-0.246403,-0.080622,-0.334743,-6.947555,-2.225884,0,0
4194,2024 8 08,15:40:44.353,0.761144,-0.21607,-0.610268,-0.039332,-0.967499,-0.247364,-0.083105,-0.820523,-7.354857,-2.642961,0,0
4195,2024 8 08,15:40:44.361,0.761519,-0.216247,-0.609737,-0.039339,-0.959731,-0.243729,-0.09037,-1.053819,-7.61703,-2.727656,0,0
4196,2024 8 08,15:40:44.369,0.761879,-0.216476,-0.609202,-0.039393,-0.952246,-0.246101,-0.086048,-1.863757,-7.563549,-2.630435,0,0
4197,2024 8 08,15:40:44.378,0.762258,-0.216695,-0.608644,-0.039463,-0.942805,-0.247157,-0.070509,-1.601174,-8.325727,-2.547842,0,0
4198,2024 8 08,15:40:44.386,0.762412,-0.216782,-0.608419,-0.039491,-0.938872,-0.247436,-0.063713,-1.424851,-8.683537,-2.516862,0,0
4199,2024 8 08,15:40:44.394,0.762694,-0.216933,-0.608006,-0.039568,-0.947613,-0.248094,-0.076971,-1.868321,-8.689082,-2.29332,0,0
4200,2024 8 08,15:40:44.403,0.7631,-0.217085,-0.607434,-0.039706,-0.940683,-0.245573,-0.065279,-1.24182,-9.626351,-1.800517,0,0
4201,2024 8 08,15:40:44.411,0.763365,-0.217179,-0.607061,-0.039798,-0.934628,-0.243669,-0.055226,-0.734855,-10.311652,-1.466447,0,0
4202,2024 8 08,15:40:44.419,0.763795,-0.217321,-0.60646,-0.039944,-0.974792,-0.233612,-0.082452,-1.03151,-8.819679,-1.524684,0,0
4203,2024 8 08,15:40:44.428,0.764306,-0.217456,-0.605756,-0.040103,-0.949199,-0.248963,-0.105138,-1.155186,-10.616049,-1.87924,0,0
4204,2024 8 08,15:40:44.436,0.764836,-0.217575,-0.605033,-0.040277,-0.944139,-0.238352,-0.068321,-1.275487,-10.968038,-1.369272,0,0
4205,2024 8 08,15:40:44.444,0.764862,-0.217581,-0.604998,-0.040285,-0.943893,-0.237835,-0.06653,-1.281342,-10.985168,-1.344453,0,0
4206,2024 8 08,15:40:44.453,0.765311,-0.217779,-0.604343,-0.040498,-0.965512,-0.237352,-0.110587,-2.915466,-10.366537,-1.737258,0,0
4207,2024 8 08,15:40:44.461,0.765782,-0.218039,-0.603635,-0.040756,-0.957823,-0.23465,-0.093938,-3.428182,-10.430656,-1.878126,0,0
4208,2024 8 08,15:40:44.469,0.766267,-0.218304,-0.602905,-0.041034,-0.952759,-0.230906,-0.086326,-3.090535,-11.421815,-1.890651,0,0
4209,2024 8 08,15:40:44.478,0.766747,-0.21863,-0.602156,-0.041331,-0.971248,-0.237436,-0.125288,-4.081978,-10.874661,-1.783951,0,0
4210,2024 8 08,15:40:44.486,0.7673,-0.218926,-0.601327,-0.041564,-0.974632,-0.233494,-0.099481,-3.449462,-12.036998,-2.41075,0,0
4211,2024 8 08,15:40:44.494,0.76737,-0.218964,-0.601223,-0.041594,-0.975058,-0.232998,-0.096232,-3.369834,-12.183325,-2.489658,0,0
4212,2024 8 08,15:40:44.503,0.767885,-0.219238,-0.600451,-0.041771,-0.96641,-0.23749,-0.085835,-2.840635,-12.877172,-3.27788,0,0
4213,2024 8 08,15:40:44.511,0.768523,-0.219536,-0.59952,-0.04186,-0.981079,-0.234477,-0.10679,-1.73899,-13.747628,-4.469241,0,0
4214,2024 8 08,15:40:44.519,0.769207,-0.219864,-0.598527,-0.041793,-0.988272,-0.233591,-0.104892,-1.108451,-13.432594,-6.477011,0,0
4215,2024 8 08,15:40:44.528,0.769825,-0.220274,-0.597602,-0.041482,-1.017804,-0.225467,-0.104568,-0.203511,-11.684607,-9.410983,0,0
4216,2024 8 08,15:40:44.536,0.770389,-0.220863,-0.596698,-0.040866,-1.025912,-0.221632,-0.102148,0.157321,-9.842615,-13.632661,0,0
4217,2024 8 08,15:40:44.544,0.770498,-0.220976,-0.596525,-0.040748,-1.027465,-0.220898,-0.101684,0.226427,-9.489841,-14.441188,0,0
4218,2024 8 08,15:40:44.553,0.770799,-0.221619,-0.59596,-0.03982,-1.076145,-0.20885,-0.141897,2.15962,-5.532236,-18.20274,0,0
4219,2024 8 08,15:40:44.561,0.771153,-0.222474,-0.595282,-0.038294,-1.152406,-0.179383,-0.140913,3.705523,-4.885748,-24.353138,0,0
4220,2024 8 08,15:40:44.569,0.771517,-0.223628,-0.594518,-0.036028,-1.188722,-0.179246,-0.118219,6.434854,-3.244644,-34.186165,0,0
4221,2024 8 08,15:40:44.578,0.771757,-0.225291,-0.593752,-0.033006,-1.225208,-0.204384,-0.180364,7.109017,-0.183651,-44.637451,0,0
4222,2024 8 08,15:40:44.586,0.771963,-0.227484,-0.592855,-0.02895,-1.326475,-0.214785,-0.146941,9.007642,2.834377,-57.926861,0,0
4223,2024 8 08,15:40:44.594,0.772397,-0.230317,-0.591416,-0.023852,-1.4304,-0.205795,-0.111177,9.297703,-4.325351,-74.372452,0,0
4224,2024 8 08,15:40:44.603,0.772509,-0.231044,-0.591047,-0.022544,-1.45707,-0.203488,-0.101998,9.372142,-6.162758,-78.592896,0,0
4225,2024 8 08,15:40:44.611,0.77352,-0.233875,-0.58877,-0.017378,-1.445415,-0.162247,-0.054696,14.161297,-17.866806,-92.165169,0,0
4226,2024 8 08,15:40:44.619,0.775258,-0.2378,-0.585045,-0.01063,-1.461093,-0.190797,-0.023601,15.383091,-30.716015,-107.795624,0,0
4227,2024 8 08,15:40:44.628,0.777551,-0.24269,-0.580044,-0.002982,-1.534594,-0.220249,-0.055957,14.777005,-42.7953,-123.075668,0,0
4228,2024 8 08,15:40:44.636,0.780151,-0.248529,-0.574012,0.005344,-1.488215,-0.196998,-0.066003,9.605262,-51.58559,-137.959259,0,0
4229,2024 8 08,15:40:44.644,0.782708,-0.255536,-0.567242,0.014177,-1.454838,-0.227601,-0.105483,0.803705,-55.590813,-151.50444,0,0
4230,2024 8 08,15:40:44.653,0.783487,-0.257671,-0.56518,0.016868,-1.44467,-0.236923,-0.11751,-1.877545,-56.810936,-155.630753,0,0
4231,2024 8 08,15:40:44.661,0.785518,-0.264065,-0.559078,0.0242,-1.355838,-0.258023,-0.217505,-5.277276,-63.640701,-164.731583,0,0
4232,2024 8 08,15:40:44.669,0.787765,-0.272237,-0.551444,0.033069,-1.399142,-0.303701,-0.114607,-12.621143,-63.08075,-170.582458,0,0
4233,2024 8 08,15:40:44.678,0.790021,-0.285353,-0.540672,0.045647,-1.463948,-0.547453,0.095652,-25.472279,-60.166054,-179.531891,0,1
4234,2024 8 08,15:40:44.686,0.792239,-0.295414,-0.531156,0.054078,-1.444036,-0.728684,0.050379,-25.023394,-88.70459,-169.189758,0,0
4235,2024 8 08,15:40:44.694,0.795735,0.086494,-0.59895,0.024144,-1.462562,-0.634152,0.107305,-17.820089,-111.660446,-150.255096,0,0
4236,2024 8 08,15:40:44.703,0.796324,-0.30561,-0.518276,0.062111,-1.466649,-0.61284,0.119544,-16.539869,-115.131699,-147.06221,0,0
4237,2024 8 08,15:40:44.711,0.799794,-0.312524,-0.508237,0.065685,-1.455706,-0.727109,-0.007443,-25.670111,-134.007431,-131.277725,0,0
4238,2024 8 08,15:40:44.719,0.805254,-0.320205,-0.494241,0.068554,-1.145244,-0.644643,0.012876,-19.445595,-168.919922,-118.111206,0,0
4239,2024 8 08,15:40:44.728,0.811492,-0.327104,-0.47902,0.070369,-0.90915,-0.451692,0.007744,-18.75198,-179.184219,-106.678337,0,0
4240,2024 8 08,15:40:44.736,0.817424,-0.333028,-0.46447,0.071475,-0.639392,0.085527,0.134886,-12.952988,-170.531891,-90.296822,0,0
4241,2024 8 08,15:40:44.744,0.822949,-0.337391,-0.45155,0.070479,-0.723267,0.937097,0.193196,-18.556877,-158.769485,-53.103336,0,0
4242,2024 8 08,15:40:44.753,0.824211,-0.338348,-0.448623,0.070181,-0.754834,1.142378,0.203611,-20.265997,-156.027588,-43.850628,0,0
4243,2024 8 08,15:40:44.761,0.825866,-0.345111,-0.441068,0.065262,-0.642289,0.78177,0.246848,-104.081665,-134.57402,-26.527105,0,0
4244,2024 8 08,15:40:44.769,0.82595,-0.355388,-0.433945,0.05585,-0.849738,0.780865,0.376842,-156.292786,-121.240845,10.96298,0,0
4245,2024 8 08,15:40:44.778,0.82467,-0.368193,-0.427068,0.042868,-0.796592,0.703443,0.478929,-197.839417,-127.11573,28.118515,0,0
4246,2024 8 08,15:40:44.786,0.822229,-0.382867,-0.41998,0.028223,-0.587362,0.563945,0.473396,-225.220825,-128.931183,31.570583,0,0
4247,2024 8 08,15:40:44.794,0.818435,-0.398463,-0.413543,0.013221,-0.488528,0.477814,0.480058,-239.807678,-112.7649,34.790421,0,0
4248,2024 8 08,15:40:44.803,0.817286,-0.403003,-0.41171,0.008875,-0.465423,0.455477,0.483168,-243.560776,-107.354843,35.777889,0,0
4249,2024 8 08,15:40:44.811,0.813084,-0.4148,-0.408283,-0.002459,-0.609865,0.381087,0.468908,-244.394455,-91.82753,43.133579,0,0
4250,2024 8 08,15:40:44.819,0.807434,-0.428805,-0.404587,-0.017032,-0.740817,0.276179,0.446458,-237.873627,-85.380783,54.988869,0,0
4251,2024 8 08,15:40:44.828,0.801674,-0.441851,-0.401005,-0.032636,-0.752696,0.158478,0.427586,-222.643738,-86.332657,68.396362,0,0
4252,2024 8 08,15:40:44.836,0.796277,-0.452945,-0.397767,-0.048529,-0.716548,0.051312,0.409989,-200.191422,-84.889198,82.011543,0,0
4253,2024 8 08,15:40:44.844,0.79133,-0.461683,-0.395383,-0.064234,-0.738669,-0.024761,0.39101,-173.244797,-78.103271,95.967575,0,0
4254,2024 8 08,15:40:44.853,0.78967,-0.464544,-0.394615,-0.069557,-0.749408,-0.049097,0.384489,-163.909515,-75.549965,100.724503,0,0
4255,2024 8 08,15:40:44.861,0.786585,-0.468532,-0.393862,-0.080869,-0.80287,-0.07295,0.367515,-142.01033,-71.590073,111.89209,0,0
4256,2024 8 08,15:40:44.869,0.783225,-0.471658,-0.393584,-0.095182,-0.843534,-0.084565,0.348112,-116.554047,-69.254936,126.120865,0,0
4257,2024 8 08,15:40:44.878,0.780168,-0.472991,-0.394073,-0.110342,-0.863007,-0.091724,0.333081,-94.656273,-66.599915,140.767441,0,0
4258,2024 8 08,15:40:44.886,0.777329,-0.472633,-0.395445,-0.125854,-0.889189,-0.078772,0.321412,-77.720299,-62.250198,154.749207,0,0
4259,2024 8 08,15:40:44.894,0.774453,-0.471017,-0.397645,-0.141648,-0.926564,-0.063476,0.31927,-67.661171,-57.748543,166.605698,0,0
4260,2024 8 08,15:40:44.903,0.773347,-0.470338,-0.39853,-0.147717,-0.94146,-0.05765,0.31898,-64.166458,-56.028103,171.033279,0,0
4261,2024 8 08,15:40:44.911,0.770989,-0.468487,-0.400722,-0.159396,-0.959338,-0.04743,0.315376,-63.42968,-52.9189,176.919449,0,0
4262,2024 8 08,15:40:44.919,0.767501,-0.466094,-0.403856,-0.174419,-0.992353,-0.038965,0.311132,-67.385246,-47.552185,182.634247,0,0
4263,2024 8 08,15:40:44.928,0.762989,-0.463909,-0.407503,-0.190662,-1.055883,-0.039731,0.310275,-77.176552,-41.250034,186.912308,0,0
4264,2024 8 08,15:40:44.936,0.757364,-0.462441,-0.411313,-0.207614,-1.129657,-0.048829,0.31042,-92.792641,-36.288048,189.750671,0,0
4265,2024 8 08,15:40:44.944,0.750534,-0.462031,-0.414949,-0.225245,-1.183449,-0.067381,0.317534,-112.911095,-33.157986,191.414001,0,0
4266,2024 8 08,15:40:44.953,0.746106,-0.461864,-0.417233,-0.236471,-1.215507,-0.079943,0.322707,-126.016548,-31.330986,192.372345,0,0
4267,2024 8 08,15:40:44.961,0.746059,-0.461862,-0.417258,-0.23659,-1.215848,-0.080077,0.322762,-126.155952,-31.311552,192.382538,0,0
4268,2024 8 08,15:40:44.969,0.737265,-0.463652,-0.420136,-0.254825,-1.24209,-0.118025,0.337754,-152.099243,-28.266212,191.2117,0,0
4269,2024 8 08,15:40:44.978,0.726786,-0.467146,-0.422413,-0.274035,-1.266216,-0.156464,0.365582,-179.384445,-24.567837,187.876801,0,0
4270,2024 8 08,15:40:44.986,0.714803,-0.472339,-0.423903,-0.293625,-1.311175,-0.213566,0.403012,-205.642639,-20.67318,183.092361,0,0
4271,2024 8 08,15:40:44.994,0.701463,-0.479031,-0.424461,-0.313454,-1.348282,-0.283315,0.444538,-228.596909,-18.280598,177.446365,0,0
4272,2024 8 08,15:40:45.003,0.687023,0.427222,-0.489111,0.325962,-1.357914,-0.348166,0.45983,-247.244034,-18.031578,170.804047,0,0
4273,2024 8 08,15:40:45.011,0.67171,-0.49555,-0.422598,-0.352923,-1.339217,-0.407398,0.483482,-259.884521,-15.449107,162.013107,0,0
4274,2024 8 08,15:40:45.019,0.67008,-0.496475,-0.422449,-0.355007,-1.337227,-0.413702,0.485999,-261.229706,-15.174283,161.077576,0,0
4275,2024 8 08,15:40:45.028,0.65581,-0.504833,-0.420363,-0.37184,-1.289111,-0.489871,0.471044,-266.050018,-12.811304,151.539154,0,0
4276,2024 8 08,15:40:45.036,0.639827,-0.514338,-0.417535,-0.389383,-1.289521,-0.583831,0.483305,-267.096924,-6.650954,139.740082,0,0
4277,2024 8 08,15:40:45.044,0.623557,-0.524183,-0.414317,-0.405727,-1.352687,-0.692866,0.512269,-262.502411,-0.568861,126.412621,0,0
4278,2024 8 08,15:40:45.053,0.607967,-0.533483,-0.410508,-0.420855,-1.337537,-0.78122,0.541539,-248.77272,-5.742425,114.041206,0,0
4279,2024 8 08,15:40:45.061,0.593412,-0.541875,-0.406281,-0.434787,-1.276387,-0.841132,0.553176,-231.90329,-9.705811,103.270874,0,0
4280,2024 8 08,15:40:45.069,0.590866,-0.543342,-0.405542,-0.437223,-1.265693,-0.851609,0.555211,-228.953018,-10.398958,101.387276,0,0
4281,2024 8 08,15:40:45.078,0.57954,-0.549536,-0.402008,-0.447723,-1.213578,-0.878226,0.577129,-211.56543,-9.890963,94.282303,0,0
4282,2024 8 08,15:40:45.086,0.567227,-0.555844,-0.398287,-0.458864,-1.163554,-0.912823,0.570196,-193.711624,-8.82475,91.685066,0,0
4283,2024 8 08,15:40:45.094,0.555055,-0.561456,-0.395226,-0.469438,-1.186137,-0.922983,0.552728,-177.773392,-4.785666,93.157349,0,0
4284,2024 8 08,15:40:45.103,0.543453,-0.566037,-0.392665,-0.479555,-1.129101,-0.902902,0.493874,-161.987869,-9.247721,94.558823,0,0
4285,2024 8 08,15:40:45.111,0.532562,-0.56961,-0.390369,-0.489325,-0.984684,-0.886091,0.407959,-148.098999,-11.693827,94.174248,0,0
4286,2024 8 08,15:40:45.119,0.530017,-0.570445,-0.389832,-0.491607,-0.950946,-0.882164,0.387889,-144.854401,-12.265265,94.084404,0,0
4287,2024 8 08,15:40:45.128,0.521466,-0.573105,-0.388459,-0.49867,-0.915453,-0.900509,0.299274,-137.92305,-2.618632,90.785683,0,0
4288,2024 8 08,15:40:45.136,0.511377,-0.57659,-0.387134,-0.506054,-0.94252,-0.944349,0.229852,-134.921112,9.028276,85.592888,0,0
4289,2024 8 08,15:40:45.144,0.501092,-0.580353,-0.385808,-0.512997,-0.986201,-1.015871,0.193662,-131.561493,12.900776,80.062843,0,0
4290,2024 8 08,15:40:45.153,0.49123,-0.583832,-0.384234,-0.519724,-0.977521,-1.122294,0.193097,-125.471962,7.784542,75.984955,0,0
4291,2024 8 08,15:40:45.161,0.482169,-0.586652,-0.382474,-0.526294,-0.93234,-1.245282,0.22459,-115.049751,-0.281765,72.248878,0,0
4292,2024 8 08,15:40:45.169,0.479591,-0.587455,-0.381973,-0.528164,-0.919485,-1.280276,0.233551,-112.084312,-2.576879,71.185852,0,0
4293,2024 8 08,15:40:45.178,0.473574,-0.588833,-0.38049,-0.533099,-0.823876,-1.385759,0.266448,-99.396194,-10.178985,66.835464,0,0
4294,2024 8 08,15:40:45.186,0.467625,-0.589857,-0.378884,-0.538331,-0.696932,-1.470575,0.29348,-82.003517,-13.974076,59.263062,0,0
4295,2024 8 08,15:40:45.194,0.462658,-0.590631,-0.377591,-0.542671,-0.612286,-1.512638,0.296133,-62.881561,-10.480817,48.487339,0,0
4296,2024 8 08,15:40:45.203,0.458994,-0.591321,-0.376731,-0.545633,-0.560272,-1.500192,0.284453,-43.027588,-4.646394,35.048988,0,0
4297,2024 8 08,15:40:45.211,0.456718,-0.592034,-0.37626,-0.547102,-0.532439,-1.444038,0.259833,-24.737978,2.202637,20.251442,0,0
4298,2024 8 08,15:40:45.219,0.455591,-0.592387,-0.376027,-0.54783,-0.518655,-1.416229,0.247641,-15.680434,5.594476,12.923268,0,0
4299,2024 8 08,15:40:45.228,0.455234,-0.593244,-0.376034,-0.547195,-0.507415,-1.34953,0.249634,-3.332471,12.846387,0.275737,0,0
4300,2024 8 08,15:40:45.236,0.455701,-0.59445,-0.376335,-0.545285,-0.503832,-1.273984,0.281332,10.317485,21.031136,-12.359944,0,0
4301,2024 8 08,15:40:45.244,0.457164,-0.595781,-0.377156,-0.54203,-2.127945,-0.656474,-0.390251,27.358166,29.755123,-22.484859,0,0
4302,2024 8 08,15:40:45.253,0.462548,-0.596248,-0.375963,-0.537754,-1.092797,-0.599254,0.396234,28.31241,-25.111282,-96.320526,0,0
4303,2024 8 08,15:40:45.261,0.472583,-0.595673,-0.367882,-0.535222,-1.133292,-0.497678,-0.316407,52.562901,-82.113297,-139.423477,0,0
4304,2024 8 08,15:40:45.269,0.474728,-0.59553,-0.366058,-0.534766,-1.185247,-0.473178,-0.510767,58.209671,-93.408882,-146.949173,1,0
4305,2024 8 08,15:40:45.278,0.485376,-0.591828,-0.359496,-0.533726,-1.218297,-0.105891,-0.191171,34.978691,-121.143723,-119.111076,0,0
4306,2024 8 08,15:40:45.286,0.492312,-0.589935,-0.349928,-0.535832,-1.055198,0.10447,-0.027257,-10.56321,-100.73645,-85.416992,0,0
4307,2024 8 08,15:40:45.294,0.498078,-0.587871,-0.342846,-0.537361,-1.009001,-0.348436,-0.269344,3.454459,-85.937096,-61.047668,0,0
4308,2024 8 08,15:40:45.303,0.502663,-0.585482,-0.336836,-0.539501,-0.915126,-0.167532,-0.122854,-5.104912,-77.480957,-44.034676,0,0
4309,2024 8 08,15:40:45.311,0.504167,-0.585389,-0.331892,-0.541269,-0.981689,-0.221737,-0.090448,-32.483551,-38.826443,-29.848515,0,0
4310,2024 8 08,15:40:45.319,0.50445,-0.585456,-0.330621,-0.541719,-1.006032,-0.244173,-0.087084,-40.28886,-27.376553,-26.168423,0,0
4311,2024 8 08,15:40:45.328,0.505095,-0.585626,-0.327419,-0.542874,-0.914714,-0.205224,-0.274918,-26.893709,-39.007977,-26.099546,0,0
4312,2024 8 08,15:40:45.336,0.506621,-0.585516,-0.323707,-0.543796,-0.781716,-0.195068,-0.294224,-16.737076,-28.448883,-30.860415,0,0
4313,2024 8 08,15:40:45.344,0.507266,-0.586697,-0.321274,-0.543365,-0.907916,-0.246399,-0.17599,-17.083277,-0.423597,-26.24684,0,0
4314,2024 8 08,15:40:45.353,0.50764,-0.587823,-0.319805,-0.542667,-0.944433,-0.232513,-0.084077,-8.515049,2.059671,-19.23909,0,0
4315,2024 8 08,15:40:45.361,0.507983,-0.588757,-0.31882,-0.541915,-0.987221,-0.211845,-0.056221,-6.411274,4.57053,-16.029175,0,0
4316,2024 8 08,15:40:45.369,0.508091,-0.589047,-0.318524,-0.541673,-1.002082,-0.205464,-0.050108,-6.125186,5.570339,-15.194818,0,0
4317,2024 8 08,15:40:45.378,0.508281,-0.589629,-0.318002,-0.541167,-1.008287,-0.173306,-0.025453,-4.281907,4.173769,-13.715492,0,0
4318,2024 8 08,15:40:45.386,0.508431,-0.590376,-0.317202,-0.540681,-0.982669,-0.164651,-0.053576,-7.258743,2.56219,-13.214011,0,0
4319,2024 8 08,15:40:45.394,0.508542,-0.591274,-0.316301,-0.540123,-0.973855,-0.136573,-0.066734,-8.936007,3.832051,-14.561407,0,0
4320,2024 8 08,15:40:45.403,0.50842,-0.592595,-0.315101,-0.539491,-0.952542,-0.156097,-0.136633,-16.051178,6.185521,-17.191549,0,0
4321,2024 8 08,15:40:45.411,0.508092,-0.594202,-0.313837,-0.538767,-0.96475,-0.166778,-0.179723,-18.213381,9.686989,-17.339188,0,0
4322,2024 8 08,15:40:45.419,0.507659,-0.595841,-0.312769,-0.537985,-0.971192,-0.181461,-0.000133,-17.192694,11.786362,-15.568425,0,0
4323,2024 8 08,15:40:45.428,0.507494,-0.596451,-0.312383,-0.537692,-0.972958,-0.224651,-0.154934,-16.682949,12.479637,-14.823638,0,0
4324,2024 8 08,15:40:45.436,0.507218,-0.597593,-0.31163,-0.537119,-0.955847,-0.238113,-0.147641,-16.61376,11.518731,-15.210424,0,0
4325,2024 8 08,15:40:45.444,0.507026,-0.598921,-0.310741,-0.536336,-0.942849,-0.215904,-0.145083,-11.95635,10.950555,-14.824556,0,0
4326,2024 8 08,15:40:45.453,0.506792,-0.600134,-0.310254,-0.535483,-0.943413,-0.226069,-0.15079,-8.792474,12.370058,-11.151371,0,0
4327,2024 8 08,15:40:45.461,0.506617,-0.601223,-0.310074,-0.53453,-0.956529,-0.202962,-0.137063,-4.774771,13.846001,-9.96317,0,0
4328,2024 8 08,15:40:45.469,0.506472,-0.602257,-0.310018,-0.533534,-0.963649,-0.180322,-0.133082,-3.643346,14.573195,-9.985743,0,0
4329,2024 8 08,15:40:45.478,0.506413,-0.602681,-0.310001,-0.533123,-0.966103,-0.1714,-0.13225,-3.369832,14.827918,-10.042696,0,0
4330,2024 8 08,15:40:45.486,0.506384,-0.60289,-0.309992,-0.53292,-0.967313,-0.167003,-0.13184,-3.235041,14.953447,-10.070764,0,0
4331,2024 8 08,15:40:45.494,0.506205,-0.603932,-0.310102,-0.531845,-0.914982,-0.236614,-0.093431,-3.294879,15.973824,-8.210413,0,0
4332,2024 8 08,15:40:45.503,0.505946,-0.605054,-0.310259,-0.530723,-0.956671,-0.213818,-0.05387,-4.064153,16.227055,-7.293231,0,0
4333,2024 8 08,15:40:45.511,0.505631,-0.60616,-0.310347,-0.529709,-0.986848,-0.191843,-0.07855,-4.844957,15.245349,-8.428831,0,0
4334,2024 8 08,15:40:45.519,0.505306,-0.60708,-0.310457,-0.5289,-0.979046,-0.22218,-0.057046,-2.701117,13.422684,-5.555565,0,0
4335,2024 8 08,15:40:45.528,0.505217,-0.607792,-0.310568,-0.528102,-0.968635,-0.191881,-0.063002,-1.330266,10.26235,-6.006445,0,0
4336,2024 8 08,15:40:45.536,0.505211,-0.607844,-0.310576,-0.528044,-0.967876,-0.18967,-0.063437,-1.230267,10.031815,-6.039335,0,0
4337,2024 8 08,15:40:45.544,0.505056,-0.608452,-0.310593,-0.527482,-0.953311,-0.24484,-0.071383,-3.033992,8.968512,-5.822489,0,0
4338,2024 8 08,15:40:45.553,0.50499,-0.609088,-0.310468,-0.526884,-0.966169,-0.214766,-0.074767,-3.591286,7.184703,-5.313685,0,0
4339,2024 8 08,15:40:45.561,0.504946,-0.60966,-0.310315,-0.526353,-0.985544,-0.18023,-0.075998,-2.424871,6.29203,-7.12639,0,0
4340,2024 8 08,15:40:45.569,0.504981,-0.610081,-0.310195,-0.525904,-0.968123,-0.228658,-0.068142,-0.85864,5.128325,-5.611279,0,0
4341,2024 8 08,15:40:45.578,0.505241,-0.610418,-0.309988,-0.525384,-0.964524,-0.18987,-0.065418,0.756214,3.307922,-7.693772,0,0
4342,2024 8 08,15:40:45.586,0.505279,-0.610468,-0.309958,-0.525308,-0.963997,-0.18419,-0.065019,0.992677,3.041361,-7.998712,0,0
4343,2024 8 08,15:40:45.594,0.505475,-0.610731,-0.309769,-0.524925,-0.968774,-0.21205,-0.066981,0.118726,2.695625,-7.489909,0,0
4344,2024 8 08,15:40:45.603,0.505871,-0.610962,-0.309488,-0.524439,-0.977574,-0.191955,-0.062514,1.820482,1.887836,-8.603532,0,0
4345,2024 8 08,15:40:45.611,0.506345,-0.611118,-0.309235,-0.52395,-0.97007,-0.244406,-0.051058,2.81575,0.953888,-9.049518,0,0
4346,2024 8 08,15:40:45.619,0.507082,-0.611233,-0.308841,-0.523335,-0.957348,-0.210682,-0.066039,4.611789,-0.051072,-11.813368,0,0
4347,2024 8 08,15:40:45.628,0.507735,-0.611371,-0.308434,-0.52278,-0.936721,-0.220896,-0.087116,3.478261,0.422208,-10.343495,0,0
4348,2024 8 08,15:40:45.636,0.507871,-0.6114,-0.308349,-0.522664,-0.932407,-0.223032,-0.091523,3.241217,0.521179,-10.036116,0,0
4349,2024 8 08,15:40:45.644,0.508334,-0.611512,-0.308076,-0.522244,-0.941981,-0.212607,-0.086102,2.015638,0.401974,-9.874997,0,0
4350,2024 8 08,15:40:45.653,0.508806,-0.611664,-0.307732,-0.521809,-0.944535,-0.215425,-0.067423,2.246458,0.513959,-8.492987,0,0
4351,2024 8 08,15:40:45.661,0.509158,-0.611763,-0.307534,-0.521467,-0.954676,-0.216827,-0.063727,0.834281,0.35715,-6.056579,0,0
4352,2024 8 08,15:40:45.669,0.509501,-0.611862,-0.307272,-0.521169,-0.957533,-0.209923,-0.097251,1.710099,-0.134491,-7.042847,0,0
4353,2024 8 08,15:40:45.678,0.509957,-0.611859,-0.30706,-0.520852,-0.954678,-0.206373,-0.099342,1.664498,-0.394078,-5.816227,0,0
4354,2024 8 08,15:40:45.686,0.510077,-0.611858,-0.307004,-0.520768,-0.953927,-0.205438,-0.099892,1.652494,-0.46241,-5.493343,0,0
4355,2024 8 08,15:40:45.694,0.510264,-0.611929,-0.306792,-0.520626,-0.953723,-0.235302,-0.095489,0.729988,-0.130775,-5.143025,0,0
4356,2024 8 08,15:40:45.703,0.510614,-0.611959,-0.306579,-0.520374,-0.962323,-0.203829,-0.081791,1.424284,-0.34103,-5.69434,0,0
4357,2024 8 08,15:40:45.711,0.510821,-0.612075,-0.30627,-0.520215,-0.968564,-0.221148,-0.077852,-0.602069,-0.444308,-5.296391,0,0
4358,2024 8 08,15:40:45.719,0.511079,-0.612147,-0.305982,-0.520047,-0.966342,-0.204923,-0.061783,0.281356,-0.813545,-5.051824,0,0
4359,2024 8 08,15:40:45.728,0.511226,-0.612269,-0.305637,-0.519963,-0.955617,-0.215757,-0.069983,-1.922187,-1.218607,-4.47511,0,0
4360,2024 8 08,15:40:45.736,0.511271,-0.612307,-0.30553,-0.519936,-0.952287,-0.219119,-0.072529,-2.606194,-1.344343,-4.296091,0,0
4361,2024 8 08,15:40:45.744,0.511373,-0.612397,-0.305281,-0.519875,-0.956478,-0.215924,-0.060217,-1.716497,-1.343289,-4.772219,0,0
4362,2024 8 08,15:40:45.753,0.511492,-0.612513,-0.30494,-0.519823,-0.961734,-0.220079,-0.064982,-1.995505,-1.505233,-4.642875,0,0
4363,2024 8 08,15:40:45.761,0.511626,-0.61269,-0.304359,-0.519823,-0.957261,-0.241339,-0.084042,-3.385989,-2.524521,-4.474137,0,0
4364,2024 8 08,15:40:45.769,0.511786,-0.6127,-0.30397,-0.51988,-0.957348,-0.210682,-0.066039,-1.387315,-3.194634,-3.121057,0,0
4365,2024 8 08,15:40:45.778,0.511939,-0.612625,-0.303592,-0.52004,-0.955113,-0.229518,-0.069603,-1.0949,-4.404273,-2.727496,0,0
4366,2024 8 08,15:40:45.786,0.511965,-0.61261,-0.303527,-0.520069,-0.954647,-0.229961,-0.067509,-1.098423,-4.625529,-2.687899,0,0
4367,2024 8 08,15:40:45.794,0.51211,-0.612457,-0.30324,-0.520275,-0.946766,-0.244125,-0.085068,-0.411298,-5.521451,-1.752919,0,0
4368,2024 8 08,15:40:45.803,0.512409,-0.612134,-0.303008,-0.520496,-0.964368,-0.217472,-0.072742,2.306439,-5.767715,-1.399626,0,0
4369,2024 8 08,15:40:45.811,0.512706,-0.611781,-0.302742,-0.520773,-0.957348,-0.210682,-0.066039,1.970837,-6.60628,-1.109751,0,0
4370,2024 8 08,15:40:45.819,0.513043,-0.611381,-0.302505,-0.521048,-0.958679,-0.224999,-0.078097,2.309244,-6.952007,-1.092491,0,0
4371,2024 8 08,15:40:45.828,0.513447,-0.610971,-0.30227,-0.521267,-0.957547,-0.306173,0.214393,2.75005,-6.779006,-1.700848,0,0
4372,2024 8 08,15:40:45.836,0.513924,-0.610525,-0.302052,-0.521445,-0.961883,-0.227884,-0.092948,4.271085,-6.814046,-2.461352,0,0
4373,2024 8 08,15:40:45.844,0.514045,-0.610413,-0.301999,-0.521489,-0.963187,-0.22676,-0.093636,4.689794,-6.832766,-2.653062,0,0
4374,2024 8 08,15:40:45.853,0.514496,-0.610032,-0.301872,-0.521563,-0.956248,-0.228737,-0.101929,5.773982,-6.568227,-2.992223,0,0
4375,2024 8 08,15:40:45.861,0.51517,-0.609515,-0.301788,-0.52155,-0.960408,-0.208625,-0.091814,8.077093,-5.695053,-3.751916,0,0
4376,2024 8 08,15:40:45.869,0.515861,-0.609042,-0.30169,-0.521476,-0.962071,-0.212862,-0.089925,7.417706,-4.994924,-4.456342,0,0
4377,2024 8 08,15:40:45.878,0.516533,-0.608637,-0.301551,-0.521365,-0.962364,-0.214925,-0.082665,6.70872,-4.547904,-5.039309,0,0
4378,2024 8 08,15:40:45.886,0.517148,-0.608322,-0.301343,-0.521243,-0.9702,-0.218302,-0.072759,4.910133,-4.551889,-5.461094,0,0
4379,2024 8 08,15:40:45.894,0.517333,-0.60823,-0.301277,-0.521205,-0.97294,-0.219434,-0.069666,4.308962,-4.572263,-5.583063,0,0
4380,2024 8 08,15:40:45.903,0.517773,-0.608049,-0.301016,-0.521131,-0.967234,-0.224949,-0.068698,3.855007,-5.154,-6.020734,0,0
4381,2024 8 08,15:40:45.911,0.518376,-0.607771,-0.300603,-0.521093,-0.967317,-0.242277,-0.103975,3.502316,-6.591296,-6.50491,0,0
4382,2024 8 08,15:40:45.919,0.51902,-0.607455,-0.300125,-0.521096,-0.9635,-0.236628,-0.091962,2.94852,-7.103822,-6.261673,0,0
4383,2024 8 08,15:40:45.928,0.519627,-0.607146,-0.2996,-0.521154,-0.967051,-0.233145,-0.088079,2.670725,-7.940096,-6.381175,0,0
4384,2024 8 08,15:40:45.936,0.520269,-0.606765,-0.299014,-0.521293,-0.967444,-0.229102,-0.082858,2.55151,-9.197942,-6.604422,0,0
4385,2024 8 08,15:40:45.944,0.520498,-0.606626,-0.298804,-0.521347,-0.967349,-0.177836,-0.010629,2.51538,-9.660883,-6.685009,0,0
4386,2024 8 08,15:40:45.953,0.520953,-0.606318,-0.298312,-0.521532,-0.96425,-0.229356,-0.087657,2.698064,-10.473118,-6.283391,0,0
4387,2024 8 08,15:40:45.961,0.52159,-0.605863,-0.297684,-0.521783,-0.949266,-0.235024,-0.104314,3.118776,-11.444289,-5.768145,0,0
4388,2024 8 08,15:40:45.969,0.522329,-0.605317,-0.297025,-0.522053,-0.950811,-0.225628,-0.116153,3.363374,-11.738212,-6.173436,0,0
4389,2024 8 08,15:40:45.978,0.523061,-0.604759,-0.296353,-0.522348,-0.954243,-0.218759,-0.118537,3.370457,-11.959002,-5.899061,0,0
4390,2024 8 08,15:40:45.986,0.523794,-0.604214,-0.295678,-0.522626,-0.964636,-0.220199,-0.113669,3.507999,-11.642549,-6.368547,0,0
4391,2024 8 08,15:40:45.994,0.524084,-0.604,-0.295411,-0.522735,-0.96917,-0.221223,-0.111387,3.572082,-11.484899,-6.606302,0,0
4392,2024 8 08,15:40:46.003,0.524664,-0.603613,-0.294964,-0.522853,-0.980634,-0.229017,-0.137721,4.742291,-10.968942,-7.326703,0,0
4393,2024 8 08,15:40:46.011,0.525527,-0.603072,-0.294372,-0.522943,-0.99776,-0.21755,-0.133706,5.574019,-11.765423,-8.756793,0,0
4394,2024 8 08,15:40:46.019,0.526588,-0.602519,-0.293582,-0.522957,-1.014146,-0.208138,-0.138868,5.886414,-12.182015,-11.535921,0,0
4395,2024 8 08,15:40:46.028,0.527274,-0.60217,-0.293065,-0.522959,-1.024369,-0.202683,-0.143524,6.041328,-12.388599,-13.413763,0,0
4396,2024 8 08,15:40:46.036,0.528556,-0.601851,-0.291962,-0.522649,-1.081236,-0.176395,-0.148808,4.61077,-10.242575,-18.617275,0,0
4397,2024 8 08,15:40:46.044,0.529921,-0.601901,-0.290532,-0.522006,-1.098484,-0.169699,-0.154566,1.523834,-7.609694,-25.313375,0,0
4398,2024 8 08,15:40:46.053,0.529971,-0.601903,-0.290479,-0.521982,-1.09912,-0.169452,-0.154778,1.410023,-7.512624,-25.560251,0,0
4399,2024 8 08,15:40:46.061,0.531325,-0.60249,-0.2888,-0.520859,-1.184464,-0.168071,-0.205885,-0.876783,-2.831623,-33.271221,0,0
4400,2024 8 08,15:40:46.069,0.533088,-0.603391,-0.286499,-0.519282,-1.238548,-0.213392,-0.137706,-3.441438,-3.540113,-43.380638,0,0
4401,2024 8 08,15:40:46.078,0.535312,-0.604539,-0.283617,-0.517236,-1.34515,-0.251501,-0.099585,-1.038037,-4.14942,-54.086327,0,0
4402,2024 8 08,15:40:46.086,0.538228,-0.605664,-0.280132,-0.514785,-1.318153,-0.226569,-0.064216,1.747891,-9.120558,-65.111015,0,0
4403,2024 8 08,15:40:46.094,0.54195,-0.606523,-0.275809,-0.512195,-1.339485,-0.248545,-0.024353,3.383237,-18.846107,-75.787331,0,0
4404,2024 8 08,15:40:46.103,0.542381,-0.606623,-0.275307,-0.511895,-1.341958,-0.251093,-0.019732,3.572838,-19.973677,-77.025131,0,0
4405,2024 8 08,15:40:46.111,0.546423,-0.607099,-0.27047,-0.509599,-1.441221,-0.228779,-0.087062,4.121148,-30.127522,-87.245476,0,0
4406,2024 8 08,15:40:46.119,0.55173,-0.607344,-0.263634,-0.507158,-1.421972,-0.219461,-0.05219,3.163459,-45.815434,-102.787537,0,0
4407,2024 8 08,15:40:46.128,0.558028,-0.607225,-0.255718,-0.504447,-1.535011,-0.187029,-0.049789,7.458563,-54.049469,-114.92881,0,0
4408,2024 8 08,15:40:46.136,0.564744,-0.607339,-0.246323,-0.501491,-1.596418,-0.208376,-0.021194,-2.473865,-63.390205,-133.061249,0,0
4409,2024 8 08,15:40:46.144,0.572001,-0.607635,-0.234777,-0.498421,-1.603831,-0.188192,-0.048878,-10.850434,-78.227982,-151.056839,0,0
4410,2024 8 08,15:40:46.153,0.573329,-0.607689,-0.232664,-0.497859,-1.605188,-0.184498,-0.053945,-12.383444,-80.943466,-154.35025,0,0
4411,2024 8 08,15:40:46.161,0.579681,-0.607949,-0.221371,-0.495294,-1.628333,-0.263682,0.01295,-18.594227,-87.722076,-163.664536,0,0
4412,2024 8 08,15:40:46.169,0.587147,-0.608102,-0.207288,-0.492361,-1.635717,-0.350637,0.013134,-21.675558,-99.681236,-173.122269,0,0
4413,2024 8 08,15:40:46.178,0.5953,-0.607396,-0.191792,-0.489688,-1.573717,-0.427043,-0.009153,-19.446247,-116.795074,-177.64238,0,1
4414,2024 8 08,15:40:46.186,0.603503,-0.605663,-0.175527,-0.487871,-1.642178,-0.501604,-0.110935,-17.081383,-134.151855,-170.516434,0,0
4415,2024 8 08,15:40:46.194,0.611217,-0.602142,-0.158736,-0.488361,-1.589325,-0.60051,-0.200261,-19.535002,-167.538208,-149.519241,0,0
4416,2024 8 08,15:40:46.203,0.613073,-0.601295,-0.154696,-0.488479,-1.576607,-0.62431,-0.221755,-20.125402,-175.571777,-144.466797,0,0
4417,2024 8 08,15:40:46.211,0.618443,-0.597043,-0.139815,-0.491335,-1.07009,-0.640349,-0.144489,-24.421984,-197.555542,-132.427307,0,0
4418,2024 8 08,15:40:46.219,0.624068,-0.591893,-0.122909,-0.494908,-0.727866,-0.47257,-0.099582,-28.473274,-189.675446,-120.760353,0,0
4419,2024 8 08,15:40:46.228,0.628698,-0.588057,-0.10684,-0.497346,-0.545337,-0.339702,-0.04812,-39.382092,-158.043823,-114.521782,0,0
4420,2024 8 08,15:40:46.236,0.632577,-0.584837,-0.092597,-0.499099,-0.296451,0.134728,0.070967,-28.694122,-135.886993,-98.774399,0,0
4421,2024 8 08,15:40:46.244,0.634996,-0.581904,-0.081942,-0.501356,-0.487086,0.447145,-0.033968,-31.145374,-108.330971,-60.532207,0,0
4422,2024 8 08,15:40:46.253,0.634259,-0.580967,-0.072534,-0.504836,-0.748124,0.527036,0.137072,-59.606941,-95.718353,-26.058525,0,0
4423,2024 8 08,15:40:46.261,0.634039,-0.580687,-0.069727,-0.505874,-0.826005,0.550871,0.188102,-68.098457,-91.955376,-15.77329,0,0
4424,2024 8 08,15:40:46.269,0.630514,-0.580973,-0.063409,-0.510743,-0.831809,0.538141,0.179686,-90.049133,-99.062805,11.647786,0,0
4425,2024 8 08,15:40:46.278,0.624665,-0.581991,-0.055286,-0.517628,-0.569845,0.496187,0.183652,-109.965652,-104.012894,27.583256,0,0
4426,2024 8 08,15:40:46.286,0.617144,-0.584034,-0.04679,-0.525097,-0.445056,0.431781,0.189824,-126.597534,-95.962936,39.958515,0,0
4427,2024 8 08,15:40:46.294,0.605111,-0.58808,-0.035832,-0.535435,-0.543095,0.370517,0.199186,-141.859207,-81.882919,56.804684,0,0
4428,2024 8 08,15:40:46.303,0.594704,-0.591834,-0.028477,-0.543336,-0.606484,0.304865,0.204744,-147.856796,-79.668495,67.882927,0,0
4429,2024 8 08,15:40:46.311,0.593119,-0.592406,-0.027379,-0.544531,-0.613548,0.294314,0.205545,-148.713486,-79.533409,69.524139,0,0
4430,2024 8 08,15:40:46.319,0.583559,-0.59561,-0.021556,-0.551547,-0.567117,0.218752,0.203962,-150.501038,-78.875404,78.376152,0,0
4431,2024 8 08,15:40:46.328,0.571819,-0.599343,-0.015359,-0.559934,-0.556966,0.144188,0.21553,-148.576981,-74.186584,88.764687,0,0
4432,2024 8 08,15:40:46.336,0.559602,-0.603015,-0.010136,-0.568385,-0.597627,0.093018,0.228607,-143.325272,-67.830444,98.630562,0,0
4433,2024 8 08,15:40:46.344,0.547077,-0.606519,-0.005968,-0.576843,-0.644358,0.04303,0.230046,-137.098663,-62.442207,108.038124,0,0
4434,2024 8 08,15:40:46.353,0.53426,-0.609845,-0.002786,-0.585307,-0.698209,0.000565,0.233409,-131.595398,-57.452377,116.980804,0,0
4435,2024 8 08,15:40:46.361,0.531412,-0.610577,-0.002109,-0.587183,-0.710374,-0.00859,0.234271,-130.402237,-56.35437,118.948944,0,0
4436,2024 8 08,15:40:46.369,0.520929,-0.61308,-0.000422,-0.593897,-0.749016,-0.041359,0.248024,-127.546448,-53.232468,125.490105,0,0
4437,2024 8 08,15:40:46.378,0.507712,-0.616104,0.001092,-0.602135,-0.777043,-0.076904,0.262033,-125.087975,-49.469513,133.102768,0,0
4438,2024 8 08,15:40:46.386,0.493744,-0.619206,0.002003,-0.610498,-0.82414,-0.110981,0.274491,-124.089844,-44.871693,140.828522,0,0
