frame,date,time,quaternion_x,quaternion_y,quaternion_z,quaternion_w,accel_x,accel_y,accel_z,gyro_x,gyro_y,gyro_z,HS,TO
3510,2024 8 08,15:40:38.653,0.662861,0.418522,-0.527779,0.32696,-1.038161,-0.130067,0.011744,-0.309537,0.532578,0.247926,0,0
3511,2024 8 08,15:40:38.661,0.662858,0.41825,-0.527877,0.327157,-1.037742,-0.129981,0.011725,-0.306259,0.486879,0.263689,0,0
3512,2024 8 08,15:40:38.670,0.662844,0.418198,-0.527913,0.327195,-1.03954,-0.130078,0.012015,-0.305454,0.366592,0.397444,0,0
3513,2024 8 08,15:40:38.678,0.662816,0.418139,-0.527969,0.327237,-1.03838,-0.128959,0.013949,-0.317369,0.130118,0.521075,0,0
3514,2024 8 08,15:40:38.686,0.662777,0.418081,-0.528038,0.327279,-1.039751,-0.129182,0.013978,-0.397126,-0.008635,0.630182,0,0
3515,2024 8 08,15:40:38.695,0.662735,0.418016,-0.528117,0.327319,-1.041364,-0.128447,0.010671,-0.424665,-0.046242,0.6716,0,0
3516,2024 8 08,15:40:38.703,0.662695,0.417955,-0.528192,0.327357,-1.043911,-0.127043,0.007949,-0.469812,-0.05674,0.758079,0,0
3517,2024 8 08,15:40:38.711,0.662679,0.417931,-0.528223,0.32737,-1.044597,-0.126594,0.007353,-0.494359,-0.082923,0.771325,0,0
3518,2024 8 08,15:40:38.720,0.662643,0.417877,-0.528299,0.327389,-1.04446,-0.126305,0.00835,-0.56915,-0.242937,0.707678,0,0
3519,2024 8 08,15:40:38.728,0.662599,0.417813,-0.528389,0.327414,-1.044355,-0.127088,0.008289,-0.544196,-0.327588,0.690667,0,0
3520,2024 8 08,15:40:38.736,0.662556,0.417759,-0.528477,0.327428,-1.045308,-0.072014,0.021899,-0.470352,-0.370646,0.464639,0,0
3521,2024 8 08,15:40:38.745,0.662504,0.417717,-0.528569,0.327439,-1.042551,-0.126201,0.014875,-0.443572,-0.501839,0.357451,0,0
3522,2024 8 08,15:40:38.753,0.662448,0.417693,-0.528652,0.327447,-1.040252,-0.124755,0.015374,-0.189128,-0.614614,0.32268,0,0
3523,2024 8 08,15:40:38.761,0.66242,0.417682,-0.528694,0.327451,-1.039107,-0.124035,0.015623,-0.062464,-0.670753,0.305371,0,0
3524,2024 8 08,15:40:38.770,0.662338,0.417685,-0.528785,0.327465,-1.042898,-0.126405,0.007543,0.057788,-0.849661,0.18632,0,0
3525,2024 8 08,15:40:38.778,0.662261,0.417694,-0.528874,0.327467,-1.03925,-0.123188,0.015294,-0.056167,-0.854294,0.066168,0,0
3526,2024 8 08,15:40:38.786,0.662163,0.417733,-0.528977,0.32745,-1.040487,-0.126749,0.012839,0.112229,-1.431132,0.003654,0,0
3527,2024 8 08,15:40:38.795,0.662043,0.417782,-0.529105,0.327422,-1.05101,-0.125124,0.010433,0.121391,-1.689801,0.000252,0,0
3528,2024 8 08,15:40:38.803,0.661935,0.417831,-0.529213,0.327403,-1.049037,-0.127254,0.008477,0.234017,-1.25939,-0.111982,0,0
3529,2024 8 08,15:40:38.811,0.661927,0.417835,-0.529221,0.327402,-1.048877,-0.086631,0.025809,0.243174,-1.224398,-0.121107,0,0
3530,2024 8 08,15:40:38.820,0.661845,0.417877,-0.529292,0.327399,-1.048862,-0.129185,0.00569,0.298467,-0.840084,-0.121966,0,0
3531,2024 8 08,15:40:38.828,0.661784,0.4179,-0.529346,0.327404,-1.052296,-0.127226,-0.000173,0.035974,-0.369647,-0.175736,0,0
3532,2024 8 08,15:40:38.836,0.661753,0.417899,-0.52938,0.327415,-1.04635,-0.075309,0.020836,-0.154073,0.056907,-0.182129,0,0
3533,2024 8 08,15:40:38.845,0.661749,0.417864,-0.529413,0.327415,-1.044319,-0.125962,0.007631,-0.492325,0.321612,-0.182965,0,0
3534,2024 8 08,15:40:38.853,0.661769,0.417818,-0.529417,0.327425,-1.04403,-0.129689,0.008197,-0.437369,0.771601,-0.234625,0,0
3535,2024 8 08,15:40:38.861,0.661795,0.417772,-0.529409,0.327444,-1.047242,-0.097056,0.002328,-0.276336,0.840681,-0.293421,0,0
3536,2024 8 08,15:40:38.870,0.661799,0.417765,-0.529408,0.327448,-1.04777,-0.127985,0.014932,-0.249852,0.852042,-0.303091,0,0
3537,2024 8 08,15:40:38.878,0.661828,0.417725,-0.529381,0.327483,-1.045879,-0.12953,0.007564,-0.14608,1.201,-0.255217,0,0
3538,2024 8 08,15:40:38.886,0.661865,0.417685,-0.529338,0.327528,-1.046703,-0.128641,0.010113,-0.175769,1.412568,-0.344219,0,0
3539,2024 8 08,15:40:38.895,0.661922,0.417637,-0.529271,0.327581,-1.044931,-0.128854,0.010998,-0.181579,1.743961,-0.361634,0,0
3540,2024 8 08,15:40:38.903,0.661992,0.41757,-0.529196,0.327647,-1.041893,-0.130426,0.005833,-0.230511,1.907558,-0.221998,0,0
3541,2024 8 08,15:40:38.911,0.662063,0.417495,-0.529128,0.32771,-1.044258,-0.131896,0.007363,-0.335359,1.989924,-0.191948,0,0
3542,2024 8 08,15:40:38.920,0.662079,0.417479,-0.529113,0.327724,-1.044789,-0.101242,0.017236,-0.358911,2.008425,-0.185198,0,0
3543,2024 8 08,15:40:38.928,0.662144,0.417411,-0.529052,0.327777,-1.041598,-0.129356,0.011838,-0.410458,2.058791,-0.18362,0,0
3544,2024 8 08,15:40:38.936,0.662224,0.417333,-0.528978,0.327832,-1.041916,-0.129024,0.011749,-0.468474,1.980019,-0.274238,0,0
3545,2024 8 08,15:40:38.945,0.6623,0.417258,-0.528913,0.32788,-1.040196,-0.127861,0.021801,-0.438095,1.825282,-0.386981,0,0
3546,2024 8 08,15:40:38.953,0.662363,0.417206,-0.528843,0.327933,-1.044017,-0.126847,0.009122,-0.118983,1.651653,-0.505228,0,0
3547,2024 8 08,15:40:38.961,0.662421,0.41717,-0.528772,0.327974,-1.04434,-0.127278,0.010289,-0.033296,1.648986,-0.580934,0,0
3548,2024 8 08,15:40:38.970,0.662437,0.417161,-0.528753,0.327985,-1.044429,-0.126376,0.018125,-0.009586,1.648248,-0.601882,0,0
3549,2024 8 08,15:40:38.978,0.662494,0.417129,-0.528682,0.328024,-1.044111,-0.131557,0.006578,-0.045817,1.862947,-0.650828,0,0
3550,2024 8 08,15:40:38.986,0.662571,0.417089,-0.528598,0.328057,-1.045378,-0.130394,0.01526,-0.141439,1.925757,-0.792682,0,0
3551,2024 8 08,15:40:38.995,0.662654,0.417046,-0.528506,0.328091,-1.045086,-0.133409,0.00912,-0.212197,1.944612,-0.793216,0,0
3552,2024 8 08,15:40:39.003,0.662741,0.417002,-0.528414,0.328119,-1.040004,-0.134336,0.014885,-0.192369,2.033615,-0.79338,0,0
3553,2024 8 08,15:40:39.011,0.66282,0.416966,-0.528319,0.328158,-1.039061,-0.130677,0.020653,0.101993,1.855858,-0.752273,0,0
3554,2024 8 08,15:40:39.020,0.662845,0.416954,-0.528289,0.328171,-1.038757,-0.129498,0.022512,0.196845,1.79858,-0.739027,0,0
3555,2024 8 08,15:40:39.028,0.662867,0.418584,-0.527748,0.32692,-1.039394,-0.129111,0.021923,0.227437,1.770203,-0.740664,0,0
3556,2024 8 08,15:40:39.036,0.662928,0.416935,-0.528163,0.32823,-1.044097,-0.130477,0.013387,0.140506,1.745803,-0.800384,0,0
3557,2024 8 08,15:40:39.045,0.662978,0.416933,-0.528077,0.328272,-1.042952,-0.129986,0.017454,0.232403,1.584768,-0.860466,0,0
3558,2024 8 08,15:40:39.053,0.663027,0.416936,-0.527988,0.32831,-1.045065,-0.128675,0.013391,0.209113,1.528877,-0.912724,0,0
3559,2024 8 08,15:40:39.061,0.663074,0.416946,-0.527899,0.328347,-1.043529,-0.129352,0.012926,0.348304,1.541508,-0.93078,0,0
3560,2024 8 08,15:40:39.070,0.663119,0.416957,-0.527812,0.328382,-1.043042,-0.129395,0.014064,0.308558,1.639603,-1.029222,0,0
3561,2024 8 08,15:40:39.078,0.663128,0.416959,-0.527794,0.328389,-1.043604,-0.129158,0.014392,0.290491,1.624694,-1.021837,0,0
3562,2024 8 08,15:40:39.086,0.663172,0.416963,-0.527715,0.328424,-1.046786,-0.128215,0.016171,0.172138,1.503701,-0.919231,0,0
3563,2024 8 08,15:40:39.095,0.663228,0.416959,-0.527625,0.328459,-1.04342,-0.132839,0.015979,0.078416,1.645679,-0.876631,0,0
3564,2024 8 08,15:40:39.103,0.663286,0.416963,-0.527525,0.328499,-1.045377,-0.138647,0.006372,0.385129,1.782749,-0.956493,0,0
3565,2024 8 08,15:40:39.111,0.663358,0.416951,-0.527419,0.328538,-1.043607,-0.132763,0.018883,0.127899,1.988701,-0.935473,0,0
3566,2024 8 08,15:40:39.120,0.663428,0.416943,-0.527313,0.328577,-1.039781,-0.129082,0.020261,0.226458,2.062038,-1.022063,0,0
3567,2024 8 08,15:40:39.128,0.663445,0.416942,-0.527285,0.328588,-1.039759,-0.129635,0.019474,0.241254,2.031615,-1.021251,0,0
3568,2024 8 08,15:40:39.136,0.663496,0.41694,-0.527199,0.328627,-1.04297,-0.136044,0.014051,0.257269,1.758349,-0.927122,0,0
3569,2024 8 08,15:40:39.145,0.663545,0.416942,-0.527112,0.328663,-1.041316,-0.13253,0.019423,0.332631,1.634701,-0.854452,0,0
3570,2024 8 08,15:40:39.153,0.663587,0.416946,-0.527026,0.328711,-1.038646,-0.129149,0.020339,0.274686,1.386423,-0.762865,0,0
3571,2024 8 08,15:40:39.161,0.663615,0.416965,-0.526946,0.32876,-1.042391,-0.130879,0.016078,0.36712,1.280932,-0.780623,0,0
3572,2024 8 08,15:40:39.170,0.663639,0.416982,-0.526873,0.328808,-1.042486,-0.097942,0.030947,0.510162,1.42532,-0.74278,0,0
3573,2024 8 08,15:40:39.178,0.663647,0.416987,-0.52685,0.328822,-1.041892,-0.134271,0.017707,0.527727,1.41117,-0.715547,0,0
3574,2024 8 08,15:40:39.186,0.663661,0.416998,-0.5268,0.32886,-1.037928,-0.13525,0.021491,0.444417,1.112299,-0.569215,0,0
3575,2024 8 08,15:40:39.195,0.663668,0.417008,-0.526752,0.328909,-1.038132,-0.134717,0.018629,0.378962,0.944587,-0.403032,0,0
3576,2024 8 08,15:40:39.203,0.663666,0.417014,-0.526721,0.328956,-1.042939,-0.135754,0.018475,0.305235,0.792028,-0.29033,0,0
3577,2024 8 08,15:40:39.211,0.663667,0.41701,-0.526695,0.329,-1.042653,-0.135192,0.018154,0.163689,0.80529,-0.301308,0,0
3578,2024 8 08,15:40:39.220,0.66367,0.417002,-0.526675,0.329036,-1.045049,-0.079966,-0.000668,0.088653,0.88587,-0.304135,0,0
3579,2024 8 08,15:40:39.228,0.663672,0.416997,-0.526669,0.329049,-1.0454,-0.133684,0.020785,0.056767,0.88941,-0.292959,0,0
3580,2024 8 08,15:40:39.236,0.663677,0.416978,-0.526661,0.329076,-1.043591,-0.134733,0.020889,-0.021511,0.783132,-0.208567,0,0
3581,2024 8 08,15:40:39.245,0.663682,0.416954,-0.526654,0.329106,-1.042717,-0.13211,0.02034,-0.017974,0.749608,-0.170774,0,0
3582,2024 8 08,15:40:39.253,0.663681,0.416939,-0.52665,0.329133,-1.043754,-0.130382,0.018272,-0.067652,0.516278,-0.284284,0,0
3583,2024 8 08,15:40:39.261,0.663673,0.416932,-0.52664,0.329174,-1.042987,-0.133169,0.017236,0.086312,0.659982,-0.177859,0,0
3584,2024 8 08,15:40:39.270,0.663663,0.41693,-0.52663,0.329213,-1.04333,-0.134597,0.019808,0.277712,0.667781,-0.181447,0,0
3585,2024 8 08,15:40:39.278,0.663658,0.41693,-0.526627,0.32923,-1.043214,-0.135178,0.02021,0.337585,0.647887,-0.165819,0,0
3586,2024 8 08,15:40:39.286,0.663642,0.416929,-0.526624,0.329266,-1.041719,-0.136124,0.018414,0.345699,0.500185,-0.054816,0,0
3587,2024 8 08,15:40:39.295,0.663611,0.416927,-0.526627,0.329326,-1.040561,-0.135747,0.02343,0.244311,0.427368,-9.2e-05,0,0
3588,2024 8 08,15:40:39.303,0.663593,0.416916,-0.526631,0.329371,-1.041999,-0.132867,0.016719,0.184152,0.487239,-2e-06,0,0
3589,2024 8 08,15:40:39.311,0.663571,0.416891,-0.526648,0.32942,-1.040605,-0.136127,0.018024,0.005904,0.370091,0.236314,0,0
3590,2024 8 08,15:40:39.320,0.66355,0.416857,-0.526668,0.329472,-1.042423,-0.135764,0.021789,0.000275,0.482777,0.301969,0,0
3591,2024 8 08,15:40:39.328,0.663526,0.416825,-0.526691,0.329525,-1.042507,-0.136206,0.024256,0.05735,0.37328,0.304981,0,0
3592,2024 8 08,15:40:39.336,0.663525,0.416823,-0.526692,0.329528,-1.042512,-0.128904,0.008955,0.060761,0.366736,0.305161,0,0
3593,2024 8 08,15:40:39.345,0.663498,0.416789,-0.526725,0.329573,-1.043849,-0.125919,0.011264,-0.106055,0.199191,0.416552,0,0
3594,2024 8 08,15:40:39.353,0.663464,0.416745,-0.526768,0.329627,-1.043525,-0.125093,0.016356,-0.120461,0.239623,0.481073,0,0
3595,2024 8 08,15:40:39.361,0.663435,0.416697,-0.52681,0.32968,-1.046958,-0.138161,0.017556,-0.067753,0.351902,0.487466,0,0
3596,2024 8 08,15:40:39.370,0.663412,0.416644,-0.526846,0.329735,-1.04435,-0.136049,0.018003,-0.061876,0.41781,0.648353,0,0
3597,2024 8 08,15:40:39.378,0.663403,0.416573,-0.526879,0.329791,-1.044028,-0.136209,0.02185,-0.271819,0.689288,0.668229,0,0
3598,2024 8 08,15:40:39.386,0.663402,0.416563,-0.526883,0.329799,-1.043985,-0.136231,0.022371,-0.300217,0.72601,0.670917,0,0
3599,2024 8 08,15:40:39.395,0.663392,0.416502,-0.52691,0.329853,-1.040697,-0.133362,0.025319,-0.304383,0.526293,0.671312,0,0
3600,2024 8 08,15:40:39.403,0.66338,0.41643,-0.52694,0.32992,-1.038963,-0.134124,0.021735,-0.254433,0.59599,0.772589,0,0
3601,2024 8 08,15:40:39.411,0.663365,0.416361,-0.526972,0.329987,-1.042667,-0.131455,0.022729,-0.246009,0.507832,0.689756,0,0
3602,2024 8 08,15:40:39.420,0.663342,0.416302,-0.527009,0.330047,-1.040569,-0.134528,0.017778,-0.244499,0.344068,0.526947,0,0
3603,2024 8 08,15:40:39.428,0.663314,0.41623,-0.527071,0.330095,-1.040951,-0.136279,0.014502,-0.439025,0.118222,0.690906,0,0
3604,2024 8 08,15:40:39.436,0.663309,0.416216,-0.527083,0.330105,-1.041027,-0.136629,0.013848,-0.477842,0.073155,0.723623,0,0
3605,2024 8 08,15:40:39.445,0.663274,0.416158,-0.527149,0.330142,-1.044464,-0.125747,0.016873,-0.248413,0.111232,0.825494,0,0
3606,2024 8 08,15:40:39.453,0.663257,0.416066,-0.527211,0.330193,-1.042963,-0.135894,0.012697,-0.573684,0.35425,0.894731,0,0
3607,2024 8 08,15:40:39.461,0.663245,0.415965,-0.527271,0.330249,-1.044847,-0.128732,0.01789,-0.787049,0.548842,0.910533,0,0
3608,2024 8 08,15:40:39.470,0.663242,0.41586,-0.527322,0.330306,-1.046394,-0.097598,0.003968,-0.700203,0.686684,0.776797,0,0
3609,2024 8 08,15:40:39.478,0.663245,0.415965,-0.527271,0.330249,-1.045688,-0.129529,0.022908,-0.588231,0.720626,0.698572,0,0
3610,2024 8 08,15:40:39.486,0.663246,0.420409,-0.526787,0.325355,-1.045508,-0.129791,0.022939,-0.559686,0.729279,0.678631,0,0
3611,2024 8 08,15:40:39.495,0.66325,0.415665,-0.527395,0.33042,-1.040149,-0.129506,0.023301,-0.507905,0.731558,0.540594,0,0
3612,2024 8 08,15:40:39.503,0.663248,0.415597,-0.527423,0.330464,-1.042194,-0.130129,0.0255,-0.40631,0.513366,0.415561,0,0
3613,2024 8 08,15:40:39.511,0.663242,0.41586,-0.527322,0.330306,-1.045189,-0.130304,0.012613,-0.334605,0.58213,0.380571,0,0
3614,2024 8 08,15:40:39.520,0.663238,0.415469,-0.527486,0.330544,-1.043312,-0.130354,0.02397,-0.527957,0.601919,0.327704,0,0
3615,2024 8 08,15:40:39.528,0.663252,0.415381,-0.527523,0.330567,-1.041403,-0.126982,0.023263,-0.923749,0.480775,0.31208,0,0
3616,2024 8 08,15:40:39.536,0.663256,0.415355,-0.527534,0.330574,-1.040824,-0.12596,0.023048,-1.043731,0.44405,0.307343,0,0
3617,2024 8 08,15:40:39.545,0.663252,0.415381,-0.527523,0.330567,-1.041638,-0.125642,0.021987,-0.791003,0.474072,0.388727,0,0
3618,2024 8 08,15:40:39.553,0.663242,0.41586,-0.527322,0.330306,-1.040258,-0.129805,0.020994,-0.46473,0.401634,0.373606,0,0
3619,2024 8 08,15:40:39.561,0.663225,0.420343,-0.526839,0.3254,-1.040782,-0.130184,0.020022,-0.318134,0.175284,0.449815,0,0
3620,2024 8 08,15:40:39.570,0.663211,0.415146,-0.527671,0.330709,-1.040848,-0.130829,0.019342,-0.228761,0.054307,0.487803,0,0
3621,2024 8 08,15:40:39.578,0.663171,0.415102,-0.52773,0.33075,-1.040195,-0.13339,0.018423,-0.149085,-0.00653,0.512344,0,0
3622,2024 8 08,15:40:39.586,0.663136,0.415058,-0.527788,0.330783,-1.043818,-0.131438,0.02042,-0.298591,-0.058736,0.664678,0,0
3623,2024 8 08,15:40:39.595,0.663129,0.415048,-0.5278,0.330789,-1.043781,-0.131419,0.020192,-0.328166,-0.060905,0.678796,0,0
3624,2024 8 08,15:40:39.603,0.66309,0.419976,-0.527119,0.325696,-1.043031,-0.131688,0.018093,-0.454023,-0.053353,0.705638,0,0
3625,2024 8 08,15:40:39.611,0.663055,0.414932,-0.527944,0.330855,-1.045083,-0.13063,0.018384,-0.355431,-0.027148,0.577508,0,0
3626,2024 8 08,15:40:39.620,0.663018,0.414871,-0.528021,0.330882,-1.041199,-0.128993,0.02562,-0.563361,-0.182952,0.662318,0,0
3627,2024 8 08,15:40:39.628,0.662972,0.414812,-0.528105,0.330915,-1.039795,-0.131329,0.023559,-0.434765,-0.299174,0.670396,0,0
3628,2024 8 08,15:40:39.636,0.662925,0.419108,-0.527528,0.326486,-1.042611,-0.133065,0.022595,-0.374544,-0.358063,0.671266,0,0
3629,2024 8 08,15:40:39.645,0.662912,0.41476,-0.5282,0.330947,-1.04272,-0.133216,0.021907,-0.353022,-0.379425,0.671371,0,0
3630,2024 8 08,15:40:39.653,0.662856,0.414725,-0.528281,0.330976,-1.041742,-0.132874,0.017868,-0.274055,-0.47248,0.671384,0,0
3631,2024 8 08,15:40:39.661,0.662797,0.414686,-0.528368,0.331002,-1.044674,-0.132269,0.015264,-0.365712,-0.478847,0.650503,0,0
3632,2024 8 08,15:40:39.670,0.662745,0.414642,-0.528457,0.331022,-1.045708,-0.12866,0.016499,-0.467747,-0.3878,0.515459,0,0
3633,2024 8 08,15:40:39.678,0.662707,0.41459,-0.52853,0.331045,-1.041163,-0.124424,0.020912,-0.477839,-0.096265,0.486345,0,0
3634,2024 8 08,15:40:39.686,0.662676,0.414544,-0.528594,0.331062,-1.043446,-0.129583,0.022864,-0.436796,-0.216227,0.438402,0,0
3635,2024 8 08,15:40:39.695,0.662665,0.414532,-0.528613,0.331069,-1.043607,-0.132763,0.018883,-0.402704,-0.245197,0.429466,0,0
3636,2024 8 08,15:40:39.703,0.662624,0.414504,-0.528673,0.33109,-1.041968,-0.128305,0.025205,-0.215932,-0.3057,0.440767,0,0
3637,2024 8 08,15:40:39.711,0.662564,0.414481,-0.528748,0.331119,-1.041424,-0.130479,0.021989,-0.094905,-0.394221,0.519133,0,0
3638,2024 8 08,15:40:39.720,0.662501,0.414465,-0.528822,0.331148,-1.039799,-0.129798,0.019593,-0.081502,-0.378971,0.50169,0,0
3639,2024 8 08,15:40:39.728,0.662439,0.41444,-0.528899,0.331178,-1.039051,-0.13051,0.020563,-0.171573,-0.434667,0.550597,0,0
3640,2024 8 08,15:40:39.736,0.66238,0.414411,-0.52898,0.331203,-1.044603,-0.13004,0.020154,-0.272252,-0.567058,0.641621,0,0
3641,2024 8 08,15:40:39.745,0.662359,0.414401,-0.529009,0.331212,-1.045513,-0.046928,0.067859,-0.28448,-0.593155,0.651497,0,0
3642,2024 8 08,15:40:39.753,0.662304,0.414376,-0.529085,0.331233,-1.043042,-0.129395,0.014064,-0.197705,-0.554809,0.588429,0,0
3643,2024 8 08,15:40:39.761,0.662239,0.41435,-0.529169,0.331262,-1.04282,-0.13154,0.018765,-0.134283,-0.536424,0.648798,0,0
3644,2024 8 08,15:40:39.770,0.662171,0.414314,-0.529271,0.33128,-1.041734,-0.129315,0.017626,-0.333188,-0.721354,0.670988,0,0
3645,2024 8 08,15:40:39.778,0.662097,0.414277,-0.529381,0.331298,-1.042964,-0.126689,0.015508,-0.307388,-0.755037,0.708823,0,0
3646,2024 8 08,15:40:39.786,0.662024,0.414244,-0.529485,0.331319,-1.045766,-0.12672,0.015833,-0.251277,-0.659048,0.647646,0,0
3647,2024 8 08,15:40:39.795,0.661961,0.414223,-0.529574,0.331329,-1.048939,-0.075408,0.016876,-0.161366,-0.667634,0.409333,0,0
3648,2024 8 08,15:40:39.803,0.661937,0.414216,-0.529607,0.331333,-1.04912,-0.128351,0.02342,-0.128637,-0.653175,0.331957,0,0
3649,2024 8 08,15:40:39.811,0.661887,0.414208,-0.529668,0.331344,-1.043838,-0.129154,0.022902,-0.082602,-0.546508,0.272157,0,0
3650,2024 8 08,15:40:39.820,0.661826,0.414204,-0.52974,0.331356,-1.039459,-0.129532,0.023325,-0.04583,-0.576202,0.253281,0,0
3651,2024 8 08,15:40:39.828,0.661751,0.414212,-0.529818,0.33137,-1.039066,-0.127455,0.021685,0.1068,-0.761736,0.252689,0,0
3652,2024 8 08,15:40:39.836,0.661635,0.414236,-0.52993,0.331393,-1.040547,-0.132291,0.020033,0.182515,-0.853774,0.30477,0,0
3653,2024 8 08,15:40:39.845,0.661538,0.414258,-0.53002,0.331414,-1.045807,-0.13185,0.01525,0.242724,-0.973741,0.364799,0,0
3654,2024 8 08,15:40:39.853,0.661536,0.414259,-0.530022,0.331415,-1.045926,-0.13184,0.015141,0.244087,-0.976456,0.366158,0,0
3655,2024 8 08,15:40:39.861,0.661444,0.414265,-0.530115,0.331444,-1.043616,-0.106275,0.021788,0.070572,-0.860846,0.655485,0,0
3656,2024 8 08,15:40:39.870,0.661361,0.414252,-0.530217,0.33146,-1.042585,-0.131659,0.019514,-0.109353,-0.7409,0.670337,0,0
3657,2024 8 08,15:40:39.878,0.661291,0.414209,-0.530333,0.33147,-1.043866,-0.126881,0.017733,-0.570506,-0.789277,0.727484,0,0
3658,2024 8 08,15:40:39.886,0.661224,0.414173,-0.530444,0.331471,-1.047954,-0.125621,0.021137,-0.4959,-0.848449,0.455067,0,0
3659,2024 8 08,15:40:39.895,0.661157,0.414149,-0.530543,0.331475,-1.043523,-0.125942,0.024069,-0.325282,-0.690053,0.430179,0,0
3660,2024 8 08,15:40:39.903,0.661151,0.414146,-0.530553,0.331475,-1.043062,-0.125976,0.024374,-0.307545,-0.673586,0.427592,0,0
3661,2024 8 08,15:40:39.911,0.661085,0.414132,-0.530635,0.331494,-1.043009,-0.130653,0.011239,-0.093055,-0.724779,0.480398,0,0
3662,2024 8 08,15:40:39.920,0.661008,0.414127,-0.530733,0.331496,-1.046774,-0.126642,0.018357,-0.117961,-0.888511,0.277603,0,0
3663,2024 8 08,15:40:39.928,0.660933,0.414138,-0.530812,0.331504,-1.042338,-0.127322,0.021006,-0.018056,-0.704621,0.145877,0,0
3664,2024 8 08,15:40:39.936,0.660856,0.414157,-0.530892,0.331507,-1.04534,-0.128241,0.01406,-0.002965,-0.778871,0.074966,0,0
3665,2024 8 08,15:40:39.945,0.66078,0.414179,-0.53097,0.331507,-1.042604,-0.127987,0.024214,0.049833,-0.6902,0.013121,0,0
3666,2024 8 08,15:40:39.953,0.660767,0.414182,-0.530983,0.331507,-1.042132,-0.127944,0.025968,0.058956,-0.674878,0.002435,0,0
3667,2024 8 08,15:40:39.961,0.660703,0.414207,-0.531037,0.331518,-1.039297,-0.131862,0.017652,0.355102,-0.72115,0.000477,0,0
3668,2024 8 08,15:40:39.970,0.66062,0.414243,-0.531107,0.331525,-1.037973,-0.129906,0.016043,0.315457,-0.778567,0.048565,0,0
3669,2024 8 08,15:40:39.978,0.660519,0.414286,-0.531192,0.331537,-1.033874,-0.129125,0.02529,0.546738,-1.077458,0.106214,0,0
3670,2024 8 08,15:40:39.986,0.660384,0.414352,-0.531291,0.331565,-1.040566,-0.125932,0.021585,0.83245,-1.519435,0.354927,0,0
3671,2024 8 08,15:40:39.995,0.660238,0.41441,-0.53141,0.331592,-1.046167,-0.130828,0.014407,0.709171,-1.711234,0.597148,0,0
3672,2024 8 08,15:40:40.003,0.660204,0.414424,-0.531438,0.331598,-1.047465,-0.131963,0.012744,0.680594,-1.755694,0.653295,0,0
3673,2024 8 08,15:40:40.011,0.660081,0.414463,-0.531544,0.331623,-1.040844,-0.130776,0.016722,0.628093,-1.583925,0.758055,0,0
3674,2024 8 08,15:40:40.020,0.659937,0.414495,-0.53168,0.331655,-1.035944,-0.131923,0.011944,0.344452,-1.631222,0.874386,0,0
3675,2024 8 08,15:40:40.028,0.659766,0.41452,-0.531858,0.331677,-1.036818,-0.132932,0.017485,0.404913,-2.133724,1.216431,0,0
3676,2024 8 08,15:40:40.036,0.659595,0.414519,-0.532054,0.331703,-1.035289,-0.132496,0.015085,0.156643,-2.223665,1.483909,0,0
3677,2024 8 08,15:40:40.045,0.6594,0.414523,-0.532274,0.331734,-1.028942,-0.131331,0.016517,0.088391,-2.466246,1.688155,0,0
3678,2024 8 08,15:40:40.053,0.659345,0.414524,-0.532336,0.331742,-1.027146,-0.131001,0.016922,0.069079,-2.534886,1.745947,0,0
3679,2024 8 08,15:40:40.061,0.65918,0.414499,-0.532553,0.331753,-1.019806,-0.1292,0.037154,-0.277454,-2.980994,1.975828,0,0
3680,2024 8 08,15:40:40.070,0.658958,0.414447,-0.532851,0.33178,-1.022673,-0.13136,0.025658,-0.591663,-3.451385,2.634581,0,0
3681,2024 8 08,15:40:40.078,0.658706,0.414355,-0.533239,0.331772,-1.033225,-0.130687,0.027144,-1.271619,-4.220841,3.044694,0,0
3682,2024 8 08,15:40:40.086,0.658456,0.414217,-0.533677,0.331736,-1.029601,-0.131796,0.025299,-1.856045,-4.338245,3.46203,0,0
3683,2024 8 08,15:40:40.095,0.658231,0.414011,-0.534144,0.331688,-1.037257,-0.131172,-0.005665,-3.02318,-4.00849,3.75914,0,0
3684,2024 8 08,15:40:40.103,0.65812,0.413909,-0.534375,0.331664,-1.041036,-0.130864,-0.020951,-3.599346,-3.845703,3.90581,0,0
3685,2024 8 08,15:40:40.111,0.658094,0.413869,-0.534452,0.331641,-1.045195,-0.129308,-0.020283,-3.746862,-3.96674,3.833332,0,0
3686,2024 8 08,15:40:40.120,0.657917,0.413581,-0.534996,0.331475,-1.070439,-0.119227,-0.013483,-4.484489,-4.582725,3.245148,0,0
3687,2024 8 08,15:40:40.128,0.65777,0.413346,-0.535446,0.331333,-1.061903,-0.11666,0.004045,-3.234795,-3.490793,2.390244,0,0
3688,2024 8 08,15:40:40.136,0.657638,0.413177,-0.535776,0.331271,-1.041743,-0.112949,0.021273,-2.340272,-2.479977,2.175159,0,0
3689,2024 8 08,15:40:40.145,0.657485,0.413048,-0.536074,0.331255,-1.047713,-0.115798,0.012549,-1.623882,-2.567827,2.277938,0,0
3690,2024 8 08,15:40:40.153,0.657346,0.412955,-0.536316,0.331254,-1.044308,-0.120627,0.006898,-1.089596,-2.285753,2.093177,0,0
3691,2024 8 08,15:40:40.161,0.657312,0.412937,-0.536371,0.331256,-1.043062,-0.125976,0.024374,-1.013221,-2.298162,2.077022,0,0
3692,2024 8 08,15:40:40.170,0.657152,0.412862,-0.536617,0.331267,-1.037829,-0.121121,0.013357,-0.869706,-2.47472,2.075404,0,0
3693,2024 8 08,15:40:40.178,0.656989,0.412756,-0.536886,0.331289,-1.04289,-0.126042,0.007983,-1.212446,-2.118423,2.089643,0,0
3694,2024 8 08,15:40:40.186,0.656847,0.41263,-0.537148,0.331302,-1.043565,-0.123284,-0.002573,-1.596409,-2.042783,2.21797,0,0
3695,2024 8 08,15:40:40.195,0.656723,0.412453,-0.537456,0.331268,-1.040864,-0.12167,0.003218,-2.514272,-2.262611,2.417774,0,0
3696,2024 8 08,15:40:40.203,0.65662,0.412259,-0.537788,0.331176,-1.050033,-0.107258,0.005844,-3.579946,-3.180938,2.18151,0,0
3697,2024 8 08,15:40:40.211,0.65659,0.412211,-0.537876,0.331151,-1.052637,-0.105735,0.006043,-3.550879,-3.244682,2.068819,0,0
3698,2024 8 08,15:40:40.220,0.656482,0.412089,-0.538145,0.33108,-1.060112,-0.110851,0.004533,-2.166253,-2.670155,1.561513,0,0
3699,2024 8 08,15:40:40.228,0.656354,0.412012,-0.538379,0.331049,-1.059189,-0.115607,0.001747,-1.034085,-2.067338,1.364955,0,0
3700,2024 8 08,15:40:40.236,0.656229,0.411964,-0.538563,0.331057,-1.051239,-0.118784,-0.005998,-0.401808,-1.483201,1.221053,0,0
3701,2024 8 08,15:40:40.245,0.656108,0.411916,-0.538727,0.331089,-1.037616,-0.117645,0.005996,-0.507511,-1.344091,1.368852,0,0
3702,2024 8 08,15:40:40.253,0.655972,0.411864,-0.538902,0.331139,-1.040767,-0.122577,0.006249,-0.134651,-1.412321,1.709019,0,0
3703,2024 8 08,15:40:40.261,0.655846,0.411823,-0.539057,0.331189,-1.042108,-0.121065,0.008576,0.109459,-1.265114,1.662103,0,0
3704,2024 8 08,15:40:40.270,0.655801,0.411811,-0.539108,0.33121,-1.042515,-0.129396,0.011231,0.17789,-1.250196,1.645095,0,0
3705,2024 8 08,15:40:40.278,0.655672,0.411792,-0.539232,0.331286,-1.043889,-0.119468,0.015192,0.322892,-1.340661,1.632405,0,0
3706,2024 8 08,15:40:40.286,0.655521,0.411776,-0.539367,0.331384,-1.048739,-0.120813,0.002325,0.61669,-1.212597,1.788218,0,0
3707,2024 8 08,15:40:40.295,0.655371,0.411753,-0.539517,0.331466,-1.052716,-0.118024,0.003173,0.319484,-1.176202,1.58992,0,0
3708,2024 8 08,15:40:40.303,0.655243,0.411717,-0.539652,0.331543,-1.053173,-0.120623,-0.005176,0.040192,-0.886952,1.487347,0,0
3709,2024 8 08,15:40:40.311,0.655149,0.411662,-0.539774,0.331599,-1.051483,-0.119214,0.007976,-0.338366,-0.732537,1.383785,0,0
3710,2024 8 08,15:40:40.320,0.655117,0.411639,-0.539817,0.331623,-1.049886,-0.118538,0.011104,-0.397792,-0.613226,1.354735,0,0
3711,2024 8 08,15:40:40.328,0.65506,0.41158,-0.539887,0.331692,-1.04302,-0.123978,0.009728,-0.072869,-0.074991,1.3637,0,0
3712,2024 8 08,15:40:40.336,0.654992,0.411523,-0.539943,0.331807,-1.046015,-0.117336,0.013084,0.407456,0.293627,1.470358,0,0
3713,2024 8 08,15:40:40.345,0.654922,0.411481,-0.539951,0.331984,-1.051702,-0.115708,0.010329,1.211436,0.91106,1.477892,0,0
3714,2024 8 08,15:40:40.353,0.654865,0.41145,-0.539894,0.332228,-1.05868,-0.120625,-0.007219,1.895591,1.89522,1.551824,0,0
3715,2024 8 08,15:40:40.361,0.654841,0.411408,-0.539799,0.332482,-1.064869,-0.123891,-0.018757,1.688472,2.916966,1.575369,0,0
3716,2024 8 08,15:40:40.370,0.654836,0.411386,-0.539753,0.332593,-1.066051,-0.124121,-0.019182,1.659397,3.293461,1.588514,0,0
3717,2024 8 08,15:40:40.378,0.654864,0.411295,-0.539587,0.33292,-1.058728,-0.116323,0.012258,2.00929,3.897837,1.647133,0,0
3718,2024 8 08,15:40:40.386,0.654977,0.411199,-0.539276,0.33332,-1.045825,-0.114795,0.004621,2.31041,6.277131,1.173701,0,0
3719,2024 8 08,15:40:40.395,0.655088,0.411113,-0.538933,0.333764,-1.0534,-0.104008,0.020286,3.019588,6.052663,1.393823,0,0
3720,2024 8 08,15:40:40.403,0.655222,0.41104,-0.538514,0.334265,-1.041758,-0.105848,0.014513,3.222471,7.308542,1.345712,0,0
3721,2024 8 08,15:40:40.411,0.655322,0.411029,-0.538091,0.334763,-1.056516,-0.117742,0.013732,4.480979,6.529555,0.776165,0,0
3722,2024 8 08,15:40:40.420,0.655329,0.411029,-0.538061,0.334798,-1.057554,-0.118579,0.013677,4.569451,6.474793,0.736126,0,0
3723,2024 8 08,15:40:40.428,0.655455,0.410997,-0.537644,0.33526,-1.046625,-0.115564,0.01191,3.971026,6.690516,0.732784,0,0
3724,2024 8 08,15:40:40.436,0.655594,0.411007,-0.53718,0.335721,-1.05513,-0.125266,0.005658,4.510732,7.688754,0.298034,0,0
3725,2024 8 08,15:40:40.445,0.655711,0.411032,-0.536728,0.336182,-1.055198,-0.10447,0.027257,3.498349,6.833354,0.250746,0,0
3726,2024 8 08,15:40:40.453,0.655805,0.411018,-0.536349,0.336622,-1.060701,-0.115903,0.019303,3.270303,5.039516,0.826112,0,0
3727,2024 8 08,15:40:40.461,0.655983,0.410977,-0.535898,0.337044,-1.050173,-0.127426,-0.014274,2.614643,7.98059,0.329179,0,0
3728,2024 8 08,15:40:40.470,0.656008,0.410971,-0.535833,0.337104,-1.048655,-0.129088,-0.019116,2.520105,8.404652,0.257528,0,0
3729,2024 8 08,15:40:40.478,0.656185,0.410931,-0.535433,0.337445,-1.052886,-0.126504,0.021143,2.860695,7.556968,0.094134,0,0
3730,2024 8 08,15:40:40.486,0.65641,0.410871,-0.534978,0.337801,-1.049581,-0.115252,0.023829,2.716929,6.864931,-0.584323,0,0
3731,2024 8 08,15:40:40.495,0.656655,0.410785,-0.534521,0.338153,-1.048205,-0.104161,0.005706,1.65282,7.632809,-0.605416,0,0
3732,2024 8 08,15:40:40.503,0.656907,0.410725,-0.534049,0.338483,-1.047557,-0.107164,0.01208,2.088471,7.678916,-1.097752,0,0
3733,2024 8 08,15:40:40.511,0.657192,0.410685,-0.533511,0.338825,-1.038554,-0.11393,0.013338,2.367372,8.31503,-1.436072,0,0
3734,2024 8 08,15:40:40.520,0.657251,0.410677,-0.533399,0.338896,-1.036689,-0.115332,0.013599,2.425158,8.446829,-1.506169,0,0
3735,2024 8 08,15:40:40.528,0.657459,0.410684,-0.532989,0.33913,-1.057369,-0.127308,0.014032,2.908313,7.110587,-1.75668,0,0
3736,2024 8 08,15:40:40.536,0.657754,0.41065,-0.532526,0.339326,-1.056467,-0.119228,0.013014,0.971639,7.226841,-2.231833,0,0
3737,2024 8 08,15:40:40.545,0.65813,0.410555,-0.532062,0.339439,-1.042653,-0.135192,0.018154,-0.540961,7.392046,-2.665297,0,0
3738,2024 8 08,15:40:40.553,0.658502,0.410467,-0.531668,0.339444,-1.065073,-0.120119,0.008827,-1.046701,5.888422,-3.270709,0,0
3739,2024 8 08,15:40:40.561,0.658928,0.410368,-0.531231,0.33942,-1.062127,-0.110425,0.018495,-1.084893,7.078989,-3.962527,0,0
3740,2024 8 08,15:40:40.570,0.659039,0.410343,-0.531116,0.339414,-1.061357,-0.107889,0.021024,-1.094882,7.390393,-4.143479,0,0
3741,2024 8 08,15:40:40.578,0.659379,0.41033,-0.530691,0.339434,-1.061851,-0.105099,0.048732,0.174705,7.035725,-4.587165,0,0
3742,2024 8 08,15:40:40.586,0.659764,0.410396,-0.530076,0.339567,-1.0606,-0.102935,0.035613,2.262993,8.238553,-4.753919,0,0
3743,2024 8 08,15:40:40.595,0.660094,0.410604,-0.529385,0.339751,-1.079806,-0.111926,0.027398,3.88998,7.939076,-5.316444,0,0
3744,2024 8 08,15:40:40.603,0.660509,0.410824,-0.528544,0.339989,-1.061347,-0.116944,0.019893,4.113458,10.100043,-5.863638,0,0
3745,2024 8 08,15:40:40.611,0.660934,0.411101,-0.527661,0.340198,-1.062834,-0.114092,0.035427,4.978348,9.702162,-6.616249,0,0
3746,2024 8 08,15:40:40.620,0.661066,0.411187,-0.527389,0.340262,-1.063293,-0.11321,0.040227,5.245555,9.579237,-6.848766,0,0
3747,2024 8 08,15:40:40.628,0.661409,0.411472,-0.526647,0.340398,-1.071656,-0.116876,0.027611,5.330062,9.745791,-7.70294,0,0
3748,2024 8 08,15:40:40.636,0.661851,0.411837,-0.525714,0.340541,-1.070132,-0.111557,0.040444,5.641985,10.246874,-8.548382,0,0
3749,2024 8 08,15:40:40.645,0.662134,0.412088,-0.525095,0.340643,-1.068852,-0.110092,0.044463,6.099518,10.585736,-9.009229,0,0
3750,2024 8 08,15:40:40.653,0.662595,0.412615,-0.523953,0.340868,-1.063483,-0.117302,0.034433,8.170256,11.066706,-9.359425,0,0
3751,2024 8 08,15:40:40.661,0.663009,0.413253,-0.522764,0.341113,-1.054049,-0.115749,0.06251,9.495913,10.623317,-10.028862,0,0
3752,2024 8 08,15:40:40.670,0.663338,0.413921,-0.52164,0.341386,-1.076873,-0.112491,0.052795,11.195828,11.2559,-10.704179,0,0
3753,2024 8 08,15:40:40.678,0.663403,0.416573,-0.526879,0.329791,-1.074561,-0.112998,0.051853,11.439046,11.150541,-10.947492,0,0
3754,2024 8 08,15:40:40.686,0.66374,0.414932,-0.520125,0.341688,-1.06533,-0.116391,0.049134,12.691208,10.171473,-12.395184,0,0
3755,2024 8 08,15:40:40.695,0.664027,0.41602,-0.518737,0.341917,-1.145856,-0.109664,0.045292,14.315372,9.88314,-13.76924,0,0
3756,2024 8 08,15:40:40.703,0.664498,0.417183,-0.517145,0.341995,-1.146354,-0.099821,0.026854,13.006067,11.934238,-17.694742,0,0
3757,2024 8 08,15:40:40.711,0.665094,0.418493,-0.515529,0.341675,-1.14265,-0.092812,0.079213,9.852926,8.828527,-23.159451,0,0
3758,2024 8 08,15:40:40.720,0.66581,0.420085,-0.513811,0.340913,-1.144812,-0.105191,0.131059,11.183598,7.893788,-29.090343,0,0
3759,2024 8 08,15:40:40.728,0.666544,0.421746,-0.512073,0.340044,-1.177675,-0.102083,0.07186,12.532063,6.77747,-34.291206,0,0
3760,2024 8 08,15:40:40.736,0.666739,0.420483,-0.522666,0.324768,-1.194476,-0.104885,0.055934,12.61708,5.943166,-35.853851,0,0
3761,2024 8 08,15:40:40.745,0.667471,0.424375,-0.509955,0.338126,-1.279894,-0.12394,0.007661,11.266203,1.438478,-42.38266,0,0
3762,2024 8 08,15:40:40.753,0.66855,0.42688,-0.508046,0.335703,-1.334465,-0.12122,0.007957,6.160553,0.568745,-51.193886,0,0
3763,2024 8 08,15:40:40.761,0.670218,0.429465,-0.505691,0.332616,-1.363161,-0.151963,-0.016205,1.734801,4.419665,-60.982864,0,0
3764,2024 8 08,15:40:40.770,0.672581,0.431984,-0.50282,0.328909,-1.38319,-0.128017,0.024584,-3.995859,10.243221,-70.899887,0,0
3765,2024 8 08,15:40:40.778,0.675209,0.434252,-0.499793,0.325135,-1.398805,-0.116331,0.009731,-8.040104,14.221777,-80.698059,0,0
3766,2024 8 08,15:40:40.786,0.67614,0.435007,-0.498743,0.323803,-1.406752,-0.110789,0.005146,-9.389715,15.286411,-84.06324,0,0
3767,2024 8 08,15:40:40.795,0.679287,0.437327,-0.495292,0.319337,-1.446235,-0.091712,-0.004311,-13.153335,17.688522,-94.775688,0,0
3768,2024 8 08,15:40:40.803,0.683359,0.440178,-0.490767,0.313644,-1.510776,-0.099912,0.002578,-15.106361,22.762232,-107.259018,0,0
3769,2024 8 08,15:40:40.811,0.688155,0.443343,-0.485206,0.30726,-1.574604,-0.098599,0.006562,-15.828431,30.415901,-120.647972,0,0
3770,2024 8 08,15:40:40.820,0.693598,0.446865,-0.478492,0.300338,-1.625961,-0.096173,-4.2e-05,-14.928731,39.370544,-135.384415,0,0
3771,2024 8 08,15:40:40.828,0.698938,0.45038,-0.471546,0.293633,-1.67466,-0.096189,0.008278,-13.145285,46.170261,-149.74762,0,0
3772,2024 8 08,15:40:40.836,0.701004,0.451737,-0.468783,0.291074,-1.6944,-0.092339,0.004315,-12.532898,49.261814,-155.171219,0,0
3773,2024 8 08,15:40:40.845,0.706598,0.45542,-0.460835,0.284335,-1.754899,-0.06942,-0.029569,-10.839983,59.704563,-169.133636,0,0
3774,2024 8 08,15:40:40.853,0.71346,0.460156,-0.450322,0.276197,-1.830635,-0.086958,-0.00822,-6.033293,71.611008,-185.680573,0,0
3775,2024 8 08,15:40:40.861,0.720987,0.465605,-0.437778,0.267445,-1.818087,-0.14678,-0.034642,0.052237,84.852478,-202.537292,0,0
3776,2024 8 08,15:40:40.870,0.72886,0.471588,-0.423591,0.258201,-1.797858,-0.193265,0.014935,4.600396,95.592392,-216.978073,0,0
3777,2024 8 08,15:40:40.878,0.736233,0.477188,-0.409471,0.249682,-1.761504,-0.269815,0.082795,8.838165,108.092308,-226.833969,0,0
3778,2024 8 08,15:40:40.886,0.739267,0.479488,-0.403496,0.246206,-1.7399,-0.302665,0.096396,10.509613,112.838409,-230.076309,0,0
3779,2024 8 08,15:40:40.895,0.74583,0.484456,-0.389578,0.238808,-1.668693,-0.373146,0.049956,13.693695,119.847176,-231.983139,0,0
3780,2024 8 08,15:40:40.903,0.753125,0.490086,-0.373148,0.230325,-1.655896,-0.39859,0.010987,16.513132,121.016716,-228.610596,0,0
3781,2024 8 08,15:40:40.911,0.762966,0.49773,-0.349734,0.218698,-1.640741,-0.386782,0.069087,16.540409,126.74527,-219.217819,0,0
3782,2024 8 08,15:40:40.920,0.770081,0.502536,-0.331329,0.211292,-1.352497,-0.396306,-0.054651,17.019213,141.728531,-212.655914,0,0
3783,2024 8 08,15:40:40.928,0.776569,0.506979,-0.313494,0.204004,-1.229532,-0.433262,-0.002358,17.087404,130.7043,-203.218353,0,0
3784,2024 8 08,15:40:40.936,0.77679,0.507131,-0.312887,0.203756,-1.22535,-0.434519,-0.00058,17.089724,130.329361,-202.897385,0,0
3785,2024 8 08,15:40:40.945,0.782549,0.510696,-0.296659,0.196915,-1.077361,-0.295485,-0.090631,9.883679,126.079086,-194.703491,0,0
3786,2024 8 08,15:40:40.953,0.788342,0.513601,-0.280474,0.189826,-0.799437,-0.16376,-0.116059,2.053143,120.235542,-184.444458,0,0
3787,2024 8 08,15:40:40.961,0.794001,0.515404,-0.264577,0.184081,-0.154447,0.24708,-0.334427,-3.093399,130.572159,-161.948135,0,0
3788,2024 8 08,15:40:40.970,0.798878,0.515625,-0.251067,0.18128,0.300956,0.800504,-0.48346,-7.32819,116.151199,-102.173065,0,0
3789,2024 8 08,15:40:40.978,0.800852,0.516129,-0.244159,0.180622,-0.450591,0.490532,0.06879,12.226706,50.096634,-43.842789,0,0
3790,2024 8 08,15:40:40.986,0.801076,0.516186,-0.243374,0.180548,-0.535916,0.45534,0.131488,14.446804,42.597347,-37.220459,0,0
3791,2024 8 08,15:40:40.995,0.801096,0.51665,-0.240902,0.182436,-0.621877,0.90999,-0.227644,20.873535,41.130489,3.967216,0,0
3792,2024 8 08,15:40:41.003,0.799693,0.51776,-0.239111,0.187713,-0.752298,0.787795,-0.103127,42.286209,47.202553,39.170479,0,0
3793,2024 8 08,15:40:41.011,0.797385,0.519495,-0.236711,0.195589,-0.577661,0.665675,-0.181634,62.555893,65.551117,57.191475,0,0
3794,2024 8 08,15:40:41.020,0.79419,0.521976,-0.234477,0.204451,-0.355058,0.595276,-0.278601,75.032913,57.472126,67.441101,0,0
3795,2024 8 08,15:40:41.028,0.789957,0.525193,-0.233758,0.213236,-0.360986,0.542599,-0.275587,82.642845,37.601288,77.413078,0,0
3796,2024 8 08,15:40:41.036,0.789191,0.525775,-0.233628,0.214826,-0.362058,0.533067,-0.275042,84.019913,34.005535,79.217567,0,0
3797,2024 8 08,15:40:41.045,0.784691,0.528949,-0.234593,0.222295,-0.459856,0.519969,-0.274937,88.900284,20.633224,89.574341,0,0
3798,2024 8 08,15:40:41.053,0.778867,0.532644,-0.236616,0.231575,-0.564016,0.48546,-0.257636,93.14624,15.542617,105.098152,0,0
3799,2024 8 08,15:40:41.061,0.772292,0.5362,-0.239315,0.242327,-0.615198,0.405351,-0.266883,96.128181,17.218678,123.07132,0,0
3800,2024 8 08,15:40:41.070,0.76517,0.539342,-0.242617,0.254329,-0.617489,0.316112,-0.283537,96.364067,18.899784,140.102905,0,0
3801,2024 8 08,15:40:41.078,0.757605,0.541948,-0.246705,0.267147,-0.612831,0.213405,-0.304026,93.178444,16.092522,154.754028,0,0
3802,2024 8 08,15:40:41.086,0.755798,0.54257,-0.247682,0.270208,-0.611719,0.188874,-0.30892,92.417564,15.422009,158.253433,0,0
3803,2024 8 08,15:40:41.095,0.74931,0.544086,-0.252039,0.28091,-0.637844,0.11336,-0.323513,86.533203,8.610722,167.483276,0,0
3804,2024 8 08,15:40:41.103,0.741497,0.545309,-0.258148,0.293374,-0.694948,0.047169,-0.324752,78.009071,-0.68727,176.507614,0,0
3805,2024 8 08,15:40:41.111,0.733221,0.545944,-0.265542,0.306071,-0.775455,-0.008884,-0.301401,68.727524,-9.731991,183.977859,0,0
3806,2024 8 08,15:40:41.120,0.724757,0.5459,-0.273941,0.31862,-0.851256,-0.054943,-0.270213,59.378689,-17.268963,190.123886,0,0
3807,2024 8 08,15:40:41.128,0.716107,0.545235,-0.283224,0.330934,-0.930625,-0.108325,-0.24451,51.437073,-24.701103,196.171448,0,0
3808,2024 8 08,15:40:41.136,0.713607,0.545043,-0.285908,0.334494,-0.95357,-0.123758,-0.23708,49.141171,-26.849718,197.919785,0,0
3809,2024 8 08,15:40:41.145,0.706489,0.543987,-0.294057,0.344048,-1.037792,-0.169918,-0.198704,44.952621,-31.670605,203.678192,0,0
3810,2024 8 08,15:40:41.153,0.697729,0.542338,-0.304132,0.355483,-1.145023,-0.218078,-0.144554,42.716236,-33.806885,210.655914,0,0
3811,2024 8 08,15:40:41.161,0.688161,0.540274,-0.314773,0.367734,-1.23801,-0.253937,-0.105503,43.755745,-32.612103,216.470764,0,0
3812,2024 8 08,15:40:41.170,0.677977,0.538021,-0.325344,0.380483,-1.302705,-0.284693,-0.080931,48.465603,-29.857664,220.208298,0,0
3813,2024 8 08,15:40:41.178,0.667212,0.535796,-0.335504,0.393572,-1.343567,-0.315132,-0.086845,55.872986,-26.894218,221.629822,0,0
3814,2024 8 08,15:40:41.186,0.660246,0.534433,-0.341844,0.401925,-1.369841,-0.333596,-0.092013,61.005604,-25.283134,222.202057,0,0
3815,2024 8 08,15:40:41.195,0.650162,0.53283,-0.349893,0.413456,-1.407093,-0.354349,-0.106015,70.092201,-24.440163,221.340164,0,0
3816,2024 8 08,15:40:41.203,0.648232,0.532603,-0.351266,0.415563,-1.412736,-0.363037,-0.109142,71.898499,-24.375803,221.046585,0,0
3817,2024 8 08,15:40:41.211,0.636167,0.531354,-0.35951,0.428525,-1.440111,-0.424735,-0.127862,83.126266,-24.287693,219.002716,0,0
3818,2024 8 08,15:40:41.220,0.622984,0.530581,-0.367436,0.441906,-1.425865,-0.505498,-0.139448,94.227898,-25.930737,216.225052,0,0
3819,2024 8 08,15:40:41.228,0.609085,0.530442,-0.374865,0.455005,-1.388296,-0.597013,-0.146922,103.99527,-31.420336,211.966705,0,0
3820,2024 8 08,15:40:41.236,0.594489,0.531153,-0.381964,0.4674,-1.417318,-0.705222,-0.148389,112.580315,-42.095081,204.972717,0,0
3821,2024 8 08,15:40:41.245,0.581299,0.53239,-0.387893,0.477641,-1.464799,-0.794937,-0.165793,118.247505,-49.326008,197.255875,0,0
3822,2024 8 08,15:40:41.253,0.578016,0.532769,-0.389287,0.480063,-1.474121,-0.811384,-0.165911,119.282051,-50.561184,195.27298,0,0
3823,2024 8 08,15:40:41.261,0.564245,0.534629,-0.394787,0.489742,-1.504088,-0.860314,-0.156206,122.265961,-53.473831,186.618668,0,0
3824,2024 8 08,15:40:41.270,0.549332,0.536923,-0.400153,0.499716,-1.526405,-0.908459,-0.16505,124.172897,-53.735157,176.168671,0,0
3825,2024 8 08,15:40:41.278,0.534591,0.539456,-0.404918,0.509049,-1.523955,-0.978571,-0.172579,123.176285,-53.963371,164.180923,0,0
3826,2024 8 08,15:40:41.286,0.520406,0.542155,-0.409135,0.517445,-1.484086,-1.077501,-0.209071,118.33812,-55.372189,151.086472,0,0
3827,2024 8 08,15:40:41.295,0.508367,0.544655,-0.412676,0.523973,-1.44072,-1.173328,-0.2034,110.388405,-58.464066,139.506058,0,0
3828,2024 8 08,15:40:41.303,0.504842,0.545411,-0.413742,0.525778,-1.424299,-1.199449,-0.200628,107.565552,-59.461315,136.071167,0,0
3829,2024 8 08,15:40:41.311,0.494169,0.547821,-0.417154,0.530668,-1.360756,-1.266757,-0.178677,96.404037,-63.13533,125.361694,0,0
3830,2024 8 08,15:40:41.320,0.482985,0.55053,-0.421187,0.534951,-1.308564,-1.318696,-0.101402,81.666161,-68.603447,113.23703,0,0
3831,2024 8 08,15:40:41.328,0.472573,0.553275,-0.425474,0.538022,-1.256627,-1.374373,-0.025448,66.909889,-73.304695,100.945938,0,0
3832,2024 8 08,15:40:41.336,0.463314,0.555865,-0.429866,0.539918,-1.182509,-1.385029,0.071973,52.480133,-73.917267,88.329559,0,0
3833,2024 8 08,15:40:41.345,0.456043,0.558023,-0.433787,0.540765,-1.081164,0.235741,0.077034,39.202469,-73.775101,75.825005,0,0
3834,2024 8 08,15:40:41.353,0.453651,0.558793,-0.435151,0.540903,-1.0552,-1.319938,0.258406,34.8573,-74.207039,71.209274,0,0
3835,2024 8 08,15:40:41.361,0.448234,0.560939,-0.438664,0.540353,-1.042889,-1.29751,0.356706,25.43684,-77.856461,57.79734,0,0
3836,2024 8 08,15:40:41.370,0.44284,0.563776,-0.442434,0.538768,-1.094522,-1.316102,0.431831,17.913769,-81.176186,41.855324,0,0
3837,2024 8 08,15:40:41.378,0.438482,0.566624,-0.445692,0.536659,-1.174328,-1.389703,0.44582,10.882139,-70.53933,27.841326,0,0
3838,2024 8 08,15:40:41.386,0.435785,0.568766,-0.447939,0.534726,-1.16308,-1.461344,0.425049,3.076523,-48.882938,15.620823,0,0
3839,2024 8 08,15:40:41.395,0.434739,0.569989,-0.449138,0.533274,-1.08648,-1.513098,0.394372,-4.309022,-28.603796,5.655373,0,0
3840,2024 8 08,15:40:41.403,0.434557,0.570379,-0.449481,0.532722,-1.051073,-1.525339,0.378019,-7.12773,-21.329258,1.453696,0,0
3841,2024 8 08,15:40:41.411,0.43548,0.570793,-0.449537,0.531475,-1.004061,-1.493716,0.30407,-13.362688,-10.246188,-9.825526,0,0
3842,2024 8 08,15:40:41.420,0.437791,0.571615,-0.449248,0.528919,-1.220775,-1.303874,0.34374,-25.106403,-12.083855,-31.463619,0,0
3843,2024 8 08,15:40:41.428,0.443074,0.573727,-0.448205,0.523051,-0.817262,-0.776292,1.281703,-53.713188,-22.482885,-91.275414,0,0
3844,2024 8 08,15:40:41.436,0.452489,0.572788,-0.44472,0.518945,-0.828307,-0.063783,-0.307846,-72.347672,35.075043,-105.630783,0,0
3845,2024 8 08,15:40:41.445,0.460624,0.573316,-0.442913,0.512716,-1.360507,0.384881,0.066017,-84.357277,-3.744476,-110.8442,0,0
3846,2024 8 08,15:40:41.453,0.464671,0.573579,-0.442014,0.509618,-1.625216,0.60804,0.251973,-90.330704,-23.052809,-113.437286,1,0
3847,2024 8 08,15:40:41.461,0.471347,0.575857,-0.439234,0.503281,-1.694052,-0.201009,-0.290029,-45.663177,3.040516,-106.802002,0,0
3848,2024 8 08,15:40:41.470,0.48042,0.575144,-0.433071,0.50085,-1.36865,-0.056353,-0.089457,-30.423424,89.63501,-102.124611,0,0
3849,2024 8 08,15:40:41.478,0.488419,0.573379,-0.42354,0.503277,-1.05335,-0.123112,-0.096751,13.001553,125.439987,-83.18335,0,0
3850,2024 8 08,15:40:41.486,0.493012,0.572569,-0.414404,0.50731,-0.884934,-0.37964,0.065726,41.547096,97.052185,-53.620285,0,0
3851,2024 8 08,15:40:41.495,0.495137,0.572297,-0.407768,0.510915,-0.980307,-0.274955,0.163649,38.817291,68.071289,-28.147127,0,0
3852,2024 8 08,15:40:41.503,0.495309,0.572275,-0.407233,0.511205,-0.987994,-0.266517,0.171542,38.597271,65.735435,-26.094,0,0
3853,2024 8 08,15:40:41.511,0.496734,0.571595,-0.402898,0.514007,-0.984791,-0.115381,0.070741,27.409918,56.747028,-19.256439,0,0
3854,2024 8 08,15:40:41.520,0.497706,0.571186,-0.398996,0.51656,-1.062238,-0.094626,-0.019454,26.545906,45.211357,-14.771086,0,0
3855,2024 8 08,15:40:41.528,0.498142,0.570906,-0.395309,0.519276,-1.095981,-0.105313,-0.058096,32.219143,43.635422,-9.207127,0,0
3856,2024 8 08,15:40:41.536,0.498355,0.570586,-0.391686,0.522161,-1.03848,-0.126359,0.031387,30.97097,43.587189,-6.705937,0,0
3857,2024 8 08,15:40:41.545,0.498496,0.570216,-0.388383,0.52489,-1.016304,-0.133054,0.018068,28.369999,38.525757,-4.649538,0,0
3858,2024 8 08,15:40:41.553,0.498518,0.57016,-0.387878,0.525307,-1.012913,-0.134078,0.016031,27.972254,37.751751,-4.335068,0,0
3859,2024 8 08,15:40:41.561,0.498521,0.569938,-0.385403,0.527361,-1.048533,-0.130156,0.065772,28.30901,34.107922,-4.434259,0,0
3860,2024 8 08,15:40:41.570,0.49833,0.569881,-0.382794,0.529498,-1.00753,-0.144265,0.050632,27.524584,27.866949,-3.905967,0,0
3861,2024 8 08,15:40:41.578,0.498231,0.569869,-0.380719,0.531099,-0.952928,-0.132728,0.161636,18.514996,20.492672,-4.102094,0,0
3862,2024 8 08,15:40:41.586,0.498024,0.57003,-0.379245,0.532175,-0.988318,-0.12506,0.094302,15.692915,10.638217,-3.173066,0,0
3863,2024 8 08,15:40:41.595,0.497815,0.570393,-0.37839,0.532591,-0.960414,-0.082977,0.134764,10.050684,2.4554,-4.08129,0,0
3864,2024 8 08,15:40:41.603,0.49777,0.570471,-0.378206,0.53268,-0.954424,-0.073942,0.143452,8.839316,0.698578,-4.276283,0,0
3865,2024 8 08,15:40:41.611,0.497397,0.570999,-0.377868,0.532703,-1.028052,-0.106605,0.079752,7.402251,-3.891207,-3.620647,0,0
3866,2024 8 08,15:40:41.620,0.497028,0.57162,-0.377638,0.532544,-1.062555,-0.108698,-0.018776,7.435491,-5.837476,-2.638417,0,0
3867,2024 8 08,15:40:41.628,0.496635,0.572331,-0.377488,0.532254,-1.063267,-0.099007,-0.006227,6.988255,-6.536748,-2.992277,0,0
3868,2024 8 08,15:40:41.636,0.496255,0.572995,-0.377318,0.532013,-1.092247,-0.109174,0.032926,7.370966,-5.452301,-3.396144,0,0
3869,2024 8 08,15:40:41.645,0.495994,0.573511,-0.37694,0.531969,-1.118636,-0.082987,-0.032,6.803065,-1.478364,-4.168309,0,0
3870,2024 8 08,15:40:41.653,0.49592,0.573888,-0.376297,0.532087,-1.102486,-0.094615,-0.002607,6.870735,3.545308,-5.298925,0,0
3871,2024 8 08,15:40:41.661,0.495899,0.573992,-0.37612,0.532119,-1.098025,-0.097828,0.005513,6.88943,4.933208,-5.611282,0,0
3872,2024 8 08,15:40:41.670,0.495974,0.57414,-0.375467,0.532351,-1.078521,-0.100462,0.047046,5.346477,6.402958,-5.442037,0,0
3873,2024 8 08,15:40:41.678,0.496153,0.574225,-0.374657,0.532663,-1.032327,-0.104634,0.053053,5.406169,7.555432,-5.945567,0,0
3874,2024 8 08,15:40:41.686,0.496369,0.574256,-0.373954,0.532921,-1.025211,-0.120023,0.057547,4.119731,6.428311,-5.08672,0,0
3875,2024 8 08,15:40:41.695,0.496562,0.574356,-0.37338,0.533037,-1.016697,-0.094781,0.072581,3.224908,4.083977,-5.280654,0,0
3876,2024 8 08,15:40:41.703,0.496763,0.574463,-0.372956,0.533032,-1.024231,-0.085192,0.064462,1.090126,1.781376,-5.259312,0,0
3877,2024 8 08,15:40:41.711,0.496827,0.574497,-0.372819,0.533031,-1.026656,-0.082105,0.061849,0.403049,1.040286,-5.252443,0,0
3878,2024 8 08,15:40:41.720,0.496886,0.574539,-0.372717,0.533003,-1.028448,-0.081956,0.058521,-0.002698,-0.746458,0.013974,0,0
3879,2024 8 08,15:40:41.728,0.497081,0.574722,-0.372476,0.532791,-1.034118,-0.093029,0.046332,-0.474928,-0.353437,-5.444975,0,0
3880,2024 8 08,15:40:41.736,0.497283,0.574939,-0.372306,0.532488,-1.049378,-0.107432,0.048816,-0.825005,-1.558726,-5.605997,0,0
3881,2024 8 08,15:40:41.745,0.497525,0.575156,-0.372163,0.532126,-1.068993,-0.104142,0.04117,-0.948713,-1.795514,-5.954776,0,0
3882,2024 8 08,15:40:41.753,0.497812,0.575343,-0.372043,0.531741,-1.071196,-0.116738,0.043409,-2.06458,-2.129664,-6.030743,0,0
3883,2024 8 08,15:40:41.761,0.498074,0.575535,-0.371861,0.531414,-1.054199,-0.125713,0.032646,-0.723342,-0.446935,-6.717083,0,0
3884,2024 8 08,15:40:41.770,0.498137,0.575576,-0.371816,0.531342,-1.052777,-0.12526,0.033922,-0.673139,-0.393086,-6.844675,0,0
3885,2024 8 08,15:40:41.778,0.49846,0.575771,-0.371581,0.530993,-1.049348,-0.093757,0.008792,-1.088571,-0.861356,-7.351393,0,0
3886,2024 8 08,15:40:41.786,0.49883,0.575965,-0.371323,0.530616,-1.034465,-0.115591,0.058359,-1.610637,-0.850882,-7.492101,0,0
3887,2024 8 08,15:40:41.795,0.499166,0.576168,-0.371073,0.530254,-1.041986,-0.119804,0.044968,-1.236243,-0.5823,-7.229295,0,0
3888,2024 8 08,15:40:41.803,0.499524,0.576371,-0.370832,0.529864,-1.038488,-0.112394,0.058369,-1.600199,-1.190885,-7.390322,0,0
3889,2024 8 08,15:40:41.811,0.499819,0.576557,-0.370649,0.529512,-1.023673,-0.118536,0.086735,-1.381777,-1.319761,-6.919933,0,0
3890,2024 8 08,15:40:41.820,0.499892,0.576618,-0.370593,0.529415,-1.024388,-0.121721,0.081412,-1.286927,-1.477233,-6.891063,0,0
3891,2024 8 08,15:40:41.828,0.500132,0.576862,-0.370397,0.52906,-1.043544,-0.136322,0.020838,-1.16556,-2.381769,-7.114055,0,0
3892,2024 8 08,15:40:41.836,0.500498,0.577063,-0.370322,0.528546,-1.048009,-0.135884,0.018418,-3.067832,-2.613473,-7.064876,0,0
3893,2024 8 08,15:40:41.845,0.50094,0.577247,-0.37029,0.527949,-1.036928,-0.125621,0.041862,-4.256159,-2.928016,-7.903638,0,0
3894,2024 8 08,15:40:41.853,0.501437,0.57741,-0.37028,0.527306,-1.049442,-0.122054,0.04248,-5.332022,-3.300647,-8.323205,0,0
3895,2024 8 08,15:40:41.861,0.501926,0.577529,-0.370279,0.52671,-1.048985,-0.123988,0.028671,-6.129918,-2.961266,-8.449439,0,0
3896,2024 8 08,15:40:41.870,0.502095,0.577566,-0.370278,0.526509,-1.047248,-0.123526,0.027797,-6.292485,-2.870182,-8.527407,0,0
3897,2024 8 08,15:40:41.878,0.502603,0.577667,-0.370269,0.52592,-1.038478,-0.118477,0.041565,-6.098175,-2.703318,-8.836759,0,0
3898,2024 8 08,15:40:41.886,0.503133,0.577816,-0.370208,0.525292,-1.049083,-0.121382,0.049487,-4.841321,-2.473649,-8.739412,0,0
3899,2024 8 08,15:40:41.895,0.503661,0.577986,-0.370096,0.524677,-1.052324,-0.124814,0.042188,-4.442613,-2.214869,-8.895125,0,0
3900,2024 8 08,15:40:41.903,0.504177,0.578162,-0.36995,0.52409,-1.050297,-0.121713,0.045499,-4.073732,-1.934437,-8.81054,0,0
3901,2024 8 08,15:40:41.911,0.504622,0.57832,-0.36976,0.523621,-1.041746,-0.125549,0.029364,-3.013752,-0.742772,-8.750189,0,0
3902,2024 8 08,15:40:41.920,0.504788,0.578382,-0.369679,0.523451,-1.041242,-0.126376,0.026272,-2.672617,-0.402476,-8.781904,0,0
3903,2024 8 08,15:40:41.928,0.505183,0.578537,-0.369426,0.523077,-1.051519,-0.125301,0.033068,-2.21364,-0.040346,-9.110193,0,0
3904,2024 8 08,15:40:41.936,0.505664,0.578698,-0.369078,0.52268,-1.052253,-0.123653,0.037121,-2.199754,0.790589,-9.384698,0,0
3905,2024 8 08,15:40:41.945,0.506203,0.578857,-0.368659,0.522277,-1.066832,-0.118867,0.04684,-2.263654,1.111066,-10.028322,0,0
3906,2024 8 08,15:40:41.953,0.506788,0.579031,-0.36811,0.521904,-1.05904,-0.118565,0.045607,-0.99802,2.336927,-11.060636,0,0
3907,2024 8 08,15:40:41.961,0.507313,0.579237,-0.367526,0.521577,-1.066775,-0.108938,0.06719,-0.10636,2.241369,-11.845012,0,0
3908,2024 8 08,15:40:41.970,0.507522,0.579335,-0.367268,0.521447,-1.066421,-0.109283,0.070178,0.418027,2.256206,-12.112419,0,0
3909,2024 8 08,15:40:41.978,0.507919,0.579622,-0.366625,0.521193,-1.047887,-0.128704,0.055159,2.097001,2.411115,-12.411177,0,0
3910,2024 8 08,15:40:41.986,0.508536,0.580162,-0.365591,0.520718,-1.03032,-0.120128,0.122018,2.502101,1.221702,-13.243929,0,0
3911,2024 8 08,15:40:41.995,0.508913,0.580727,-0.364692,0.52035,-1.06585,-0.137413,0.062511,5.744641,0.079943,-13.664904,0,0
3912,2024 8 08,15:40:42.003,0.509309,0.581343,-0.363783,0.51991,-1.049865,-0.133433,0.035067,3.549855,0.298132,-14.558554,0,0
3913,2024 8 08,15:40:42.011,0.509751,0.581975,-0.362909,0.519381,-1.059157,-0.145891,0.039347,4.239363,-0.685219,-14.877278,0,0
3914,2024 8 08,15:40:42.020,0.509771,0.582004,-0.362869,0.519357,-1.059576,-0.146453,0.03954,4.270478,-0.729594,-14.891662,0,0
3915,2024 8 08,15:40:42.028,0.51022,0.582641,-0.362039,0.51878,-1.07091,-0.153272,0.034575,3.706883,-0.449498,-16.306091,0,0
3916,2024 8 08,15:40:42.036,0.510796,0.583295,-0.3611,0.518133,-1.090012,-0.154658,0.019501,2.551369,-0.373448,-17.188934,0,0
3917,2024 8 08,15:40:42.045,0.511531,0.583962,-0.360097,0.517354,-1.089451,-0.142909,0.043704,1.573297,0.292381,-19.956762,0,0
3918,2024 8 08,15:40:42.053,0.512403,0.584635,-0.358997,0.516494,-1.079427,-0.16429,0.010546,0.50186,0.195386,-21.475235,0,0
3919,2024 8 08,15:40:42.061,0.513429,0.585286,-0.357961,0.515454,-1.068057,-0.159821,0.050899,-1.914404,-0.242809,-23.139585,0,0
3920,2024 8 08,15:40:42.070,0.513556,0.585367,-0.357834,0.515327,-1.06666,-0.159271,0.055859,-2.211367,-0.296664,-23.344137,0,0
3921,2024 8 08,15:40:42.078,0.514573,0.585951,-0.356948,0.51426,-1.074376,-0.17043,0.028238,-2.927345,-1.863897,-24.515665,0,0
3922,2024 8 08,15:40:42.086,0.515867,0.586554,-0.355983,0.512943,-1.077966,-0.169186,0.015172,-5.802794,-0.96398,-26.123549,0,0
3923,2024 8 08,15:40:42.095,0.517317,0.587173,-0.355068,0.511406,-1.085013,-0.179119,0.064977,-7.166455,-2.949491,-27.743704,0,0
3924,2024 8 08,15:40:42.103,0.518894,0.587784,-0.3541,0.509776,-1.078998,-0.187588,0.020556,-8.095523,-2.833289,-29.165798,0,0
3925,2024 8 08,15:40:42.111,0.520597,0.588424,-0.353182,0.507934,-1.118989,-0.19226,-0.007122,-11.469594,-3.602214,-31.295357,0,0
3926,2024 8 08,15:40:42.120,0.522654,0.588867,-0.352238,0.505958,-1.093794,-0.208348,-0.02132,-14.495214,-1.310725,-33.208569,0,0
3927,2024 8 08,15:40:42.128,0.523064,0.588956,-0.35205,0.505565,-1.08878,0.143239,-0.013094,-15.09736,-0.854683,-33.589329,0,0
3928,2024 8 08,15:40:42.136,0.525012,0.589245,-0.35129,0.503731,-1.113977,-0.204612,0.023188,-18.02809,-2.470968,-35.808235,0,0
3929,2024 8 08,15:40:42.145,0.527495,0.589517,-0.350322,0.501486,-1.102195,-0.195582,-0.007806,-19.325684,-0.992242,-38.45332,0,0
3930,2024 8 08,15:40:42.153,0.530194,0.589829,-0.349301,0.498979,-1.123273,-0.205777,0.022261,-21.616638,-1.026726,-40.865524,0,0
3931,2024 8 08,15:40:42.161,0.533164,0.590077,-0.348114,0.496342,-1.163118,-0.197552,0.023879,-23.030563,-0.713892,-44.417614,0,0
3932,2024 8 08,15:40:42.170,0.536416,0.590344,-0.346725,0.493482,-1.138102,-0.206771,0.00796,-24.239182,1.765071,-48.9617,0,0
3933,2024 8 08,15:40:42.178,0.537243,0.590412,-0.346372,0.492754,-1.131736,-0.209117,0.00391,-24.54674,2.395893,-50.118038,0,0
3934,2024 8 08,15:40:42.186,0.540053,0.590669,-0.345016,0.490316,-1.165494,-0.203356,0.008159,-24.671907,1.498865,-52.902264,0,0
3935,2024 8 08,15:40:42.195,0.54363,0.591067,-0.343366,0.487026,-1.148378,-0.185328,0.059408,-28.559271,0.117007,-59.393909,0,0
3936,2024 8 08,15:40:42.203,0.54748,0.591548,-0.341274,0.483583,-1.135628,-0.233639,-0.000405,-24.622616,2.761921,-62.030476,0,0
3937,2024 8 08,15:40:42.211,0.551507,0.59221,-0.339114,0.479696,-1.176501,-0.197503,0.061546,-26.660254,-1.488294,-67.327339,0,0
3938,2024 8 08,15:40:42.220,0.555695,0.593098,-0.336631,0.475492,-1.164505,-0.209541,0.053738,-26.202745,-1.048465,-73.59211,0,0
3939,2024 8 08,15:40:42.228,0.556963,0.593366,-0.335879,0.47422,-1.160874,-0.213186,0.051374,-26.064238,-0.915309,-75.488724,0,0
3940,2024 8 08,15:40:42.236,0.560446,0.594241,-0.333612,0.470598,-1.148141,-0.194087,0.051636,-26.062725,-2.117542,-80.553757,0,0
3941,2024 8 08,15:40:42.245,0.564574,0.595553,-0.330676,0.466044,-1.233346,-0.185727,0.129482,-22.781181,-3.442525,-85.89399,0,0
3942,2024 8 08,15:40:42.253,0.568979,0.597214,-0.326965,0.461142,-1.251588,-0.187235,0.092412,-18.266273,-1.112876,-93.512238,0,0
3943,2024 8 08,15:40:42.261,0.571807,0.598348,-0.324459,0.457965,-1.270723,-0.189747,0.077213,-15.348799,0.063704,-98.766518,0,0
3944,2024 8 08,15:40:42.270,0.576504,0.600629,-0.319514,0.452532,-1.340916,-0.200422,0.092447,-10.38816,1.015239,-109.435646,0,0
3945,2024 8 08,15:40:42.278,0.580812,0.602824,-0.314489,0.44761,-1.384863,-0.19787,0.060465,-5.754386,6.302349,-118.621704,0,0
3946,2024 8 08,15:40:42.286,0.581694,0.603272,-0.313398,0.446612,-1.398751,-0.189224,0.064772,-5.760176,6.876554,-121.069542,0,0
3947,2024 8 08,15:40:42.295,0.586975,0.605927,-0.306687,0.440714,-1.480904,-0.148618,0.09171,-6.37404,10.726323,-136.349823,0,0
3948,2024 8 08,15:40:42.303,0.593085,0.608844,-0.298349,0.434177,-1.513247,-0.223723,0.041007,-3.012679,20.491253,-152.853226,0,0
3949,2024 8 08,15:40:42.311,0.59993,0.611957,-0.288933,0.426683,-1.493326,-0.177366,0.055934,-5.972776,19.431046,-171.274887,0,0
3950,2024 8 08,15:40:42.320,0.607408,0.615327,-0.278531,0.418067,-1.598464,-0.185597,0.09527,-7.81704,20.789536,-190.26445,0,0
3951,2024 8 08,15:40:42.328,0.614339,0.618535,-0.268449,0.409752,-1.724429,-0.228055,0.096512,-6.900896,22.419836,-208.491806,0,0
3952,2024 8 08,15:40:42.336,0.616174,0.619385,-0.265693,0.407496,-1.750099,-0.248633,0.091679,-6.36228,22.964897,-213.255936,0,0
3953,2024 8 08,15:40:42.345,0.623832,0.62291,-0.253811,0.39786,-1.811391,-0.35493,0.05301,-3.300092,26.096033,-232.442688,0,0
3954,2024 8 08,15:40:42.353,0.632666,0.626832,-0.239425,0.386449,-1.755602,-0.421194,0.000441,-0.983664,32.216492,-251.140564,0,0
3955,2024 8 08,15:40:42.361,0.641788,0.630929,-0.223517,0.374024,-1.69872,-0.53277,-0.053628,-0.410433,35.534126,-267.437164,0,0
3956,2024 8 08,15:40:42.370,0.650958,0.634825,-0.206803,0.360939,-1.615152,-0.603956,-0.153846,-2.989365,38.210373,-275.763275,0,1
3957,2024 8 08,15:40:42.378,0.659009,0.637844,-0.191724,0.349234,-1.528845,-0.708658,-0.261242,-4.427347,39.793976,-273.924774,0,0
3958,2024 8 08,15:40:42.386,0.661496,0.638667,-0.187151,0.345562,-1.49169,-0.725893,-0.282206,-6.024205,39.314316,-273.047302,0,0
3959,2024 8 08,15:40:42.395,0.669192,0.640709,-0.173416,0.333812,-1.34116,-0.722234,-0.288484,-15.290548,32.679077,-269.379974,0,0
3960,2024 8 08,15:40:42.403,0.677687,0.642733,-0.15862,0.319766,-1.225731,-0.767787,-0.272759,-21.570488,18.923704,-267.49118,0,0
3961,2024 8 08,15:40:42.411,0.686141,0.644504,-0.144702,0.304369,-1.054554,-0.055843,0.092602,-30.056595,1.244774,-263.339233,0,0
3962,2024 8 08,15:40:42.420,0.694528,0.645699,-0.132515,0.287901,-0.968967,-0.678685,-0.298317,-43.739773,-20.120346,-255.913071,0,0
3963,2024 8 08,15:40:42.428,0.702144,0.64622,-0.122984,0.27217,-0.932374,-0.513399,-0.217337,-54.664265,-39.05204,-253.617432,0,0
3964,2024 8 08,15:40:42.436,0.704852,0.646382,-0.119777,0.266291,-0.916493,-0.473567,-0.205919,-57.91008,-46.765682,-253.988083,0,0
3965,2024 8 08,15:40:42.445,0.711833,0.646588,-0.112631,0.249626,-0.824119,-0.474808,-0.277135,-64.873146,-70.016129,-259.429352,0,0
3966,2024 8 08,15:40:42.453,0.720207,0.645874,-0.105696,0.229517,-0.451049,-0.500851,-0.444218,-85.477966,-83.308411,-252.799637,0,0
3967,2024 8 08,15:40:42.461,0.729537,0.64269,-0.099885,0.210834,0.105583,-0.245925,-0.574979,-114.993042,-65.455566,-211.590149,0,0
3968,2024 8 08,15:40:42.470,0.738921,0.636788,-0.097191,0.197023,0.253337,0.175189,-0.620408,-133.934753,-55.235054,-131.111908,0,0
3969,2024 8 08,15:40:42.478,0.745835,0.631077,-0.100243,0.187835,-0.416226,0.072828,0.09169,-142.08194,-91.672714,-49.209999,0,0
3970,2024 8 08,15:40:42.486,0.748434,0.62863,-0.10207,0.184882,-0.606699,0.0943,0.241107,-142.777908,-98.605957,-18.47897,0,0
3971,2024 8 08,15:40:42.495,0.753271,0.62223,-0.109465,0.182581,-0.632553,0.430378,-0.061714,-131.08284,-74.444847,37.504272,0,0
3972,2024 8 08,15:40:42.503,0.757676,0.614755,-0.118482,0.183978,-0.668731,0.545491,0.015866,-117.502373,-47.560089,81.610153,0,0
3973,2024 8 08,15:40:42.511,0.76096,0.607549,-0.127173,0.188482,-0.68101,0.484548,0.072327,-96.7938,-20.033777,103.453156,0,0
3974,2024 8 08,15:40:42.520,0.763234,0.60114,-0.134853,0.194416,-0.509856,0.440529,0.04181,-76.222084,-7.414129,106.933304,0,0
3975,2024 8 08,15:40:42.528,0.76525,0.593599,-0.144686,0.202722,-0.248894,0.385163,0.018716,-53.078568,-7.082387,104.569672,0,0
3976,2024 8 08,15:40:42.536,0.765264,0.593548,-0.144753,0.202779,-0.247118,0.384786,0.018559,-52.921055,-7.080129,104.553589,0,0
3977,2024 8 08,15:40:42.545,0.765246,0.58988,-0.1521,0.20809,-0.225448,0.312361,0.018555,-39.516232,-25.066145,105.258575,0,0
3978,2024 8 08,15:40:42.553,0.764369,0.586934,-0.161016,0.212877,-0.277003,0.239312,0.032452,-30.805895,-45.697357,111.190201,0,0
3979,2024 8 08,15:40:42.561,0.762743,0.584452,-0.171465,0.217319,-0.378198,0.164872,0.032699,-26.714012,-63.399841,120.161964,0,0
3980,2024 8 08,15:40:42.570,0.760596,0.581953,-0.183327,0.221811,-0.484116,0.09621,0.016521,-28.699724,-74.434273,131.815399,0,0
3981,2024 8 08,15:40:42.578,0.758248,0.57895,-0.196278,0.226561,-0.570382,-0.024406,0.02901,-36.003418,-80.501236,142.364197,0,0
3982,2024 8 08,15:40:42.586,0.756032,0.575021,-0.210112,0.231493,-0.595253,-0.128455,-0.000896,-48.413666,-84.111298,151.462326,0,0
3983,2024 8 08,15:40:42.595,0.755803,0.574615,-0.211541,0.232002,-0.597822,-0.139203,-0.003985,-49.69558,-84.4842,152.402115,0,0
3984,2024 8 08,15:40:42.603,0.754109,0.569961,-0.224968,0.236263,-0.634259,-0.169357,0.026696,-64.033676,-90.639069,158.888229,0,0
3985,2024 8 08,15:40:42.611,0.752537,0.563691,-0.240662,0.240763,-0.685882,-0.15978,0.038578,-80.384575,-96.823997,166.268829,0,0
3986,2024 8 08,15:40:42.620,0.751176,0.556085,-0.257475,0.245229,-0.78287,-0.139824,0.090721,-96.109314,-100.322762,174.48616,0,0
3987,2024 8 08,15:40:42.628,0.750011,0.547198,-0.274893,0.249802,-0.859541,-0.117218,0.147167,-109.093491,-99.879234,181.593201,0,0
3988,2024 8 08,15:40:42.636,0.748976,0.537239,-0.292631,0.254299,-0.891674,-0.085753,0.208686,-119.201729,-100.160324,184.756348,0,0
3989,2024 8 08,15:40:42.645,0.748798,0.535524,-0.295686,0.255074,-0.897208,-0.080334,0.219281,-120.942619,-100.208733,185.301117,0,0
3990,2024 8 08,15:40:42.653,0.747885,0.526378,-0.310889,0.25857,-0.892326,-0.095061,0.24597,-126.466568,-102.820526,184.811295,0,0
3991,2024 8 08,15:40:42.661,0.746568,0.515627,-0.328628,0.261985,-0.932512,-0.101782,0.298454,-130.0056,-110.890152,183.698334,0,0
3992,2024 8 08,15:40:42.670,0.744747,0.504514,-0.347106,0.264905,-0.998147,-0.088966,0.349339,-131.010941,-118.945831,182.610352,0,0
3993,2024 8 08,15:40:42.678,0.742275,0.493425,-0.365789,0.267547,-1.102193,-0.091163,0.401039,-126.776901,-123.308014,182.473694,0,0
3994,2024 8 08,15:40:42.686,0.739146,0.48258,-0.38417,0.270197,-1.180273,-0.068837,0.45104,-118.029968,-123.435234,181.181183,0,0
3995,2024 8 08,15:40:42.695,0.738423,0.480072,-0.388422,0.27081,-1.198334,-0.063673,0.462606,-116.006676,-123.464661,180.882217,0,0
3996,2024 8 08,15:40:42.703,0.735226,0.471758,-0.402666,0.273199,-1.223491,-0.055859,0.451874,-105.751778,-120.002518,178.025848,0,0
3997,2024 8 08,15:40:42.711,0.730932,0.462662,-0.418652,0.276143,-1.238422,-0.080261,0.440898,-92.684166,-118.011894,173.930313,0,0
3998,2024 8 08,15:40:42.720,0.725776,0.454093,-0.434572,0.279321,-1.2726,-0.076918,0.430932,-77.98716,-118.390678,169.752548,0,0
3999,2024 8 08,15:40:42.728,0.71975,0.446443,-0.450046,0.282708,-1.322971,-0.071442,0.436392,-61.684361,-120.167038,165.950653,0,0
4000,2024 8 08,15:40:42.736,0.712871,0.439788,-0.464949,0.286426,-1.374814,-0.070986,0.429171,-44.958847,-121.003372,163.206833,0,0
4001,2024 8 08,15:40:42.745,0.710927,0.437908,-0.46916,0.287477,-1.389462,-0.070857,0.427131,-40.233398,-121.239662,162.431625,0,0
4002,2024 8 08,15:40:42.753,0.704695,0.43361,-0.480313,0.290834,-1.414865,-0.099133,0.425856,-27.177814,-120.753967,160.415634,0,0
4003,2024 8 08,15:40:42.761,0.696797,0.42926,-0.492955,0.295055,-1.447745,-0.150415,0.425813,-13.796011,-120.313942,156.693573,0,0
4004,2024 8 08,15:40:42.769,0.688169,0.425432,-0.505513,0.299529,-1.507865,-0.243197,0.419792,-3.655859,-119.13636,150.632553,0,0
4005,2024 8 08,15:40:42.778,0.67941,0.422034,-0.517492,0.303836,-1.549472,-0.370985,0.405358,0.055078,-115.176407,142.419403,0,0
4006,2024 8 08,15:40:42.786,0.67099,0.418725,-0.528828,0.307595,-1.562144,-0.512885,0.38603,-3.65786,-110.640526,133.335419,0,0
4007,2024 8 08,15:40:42.794,0.666837,0.417093,-0.534419,0.309448,-1.568394,-0.582874,0.376497,-5.489208,-108.403267,128.854889,0,0
4008,2024 8 08,15:40:42.803,0.665815,0.416584,-0.535878,0.309776,-1.564969,-0.596839,0.376477,-7.438955,-108.074211,127.718414,0,0
4009,2024 8 08,15:40:42.811,0.658523,0.41279,-0.546446,0.311962,-1.538339,-0.690808,0.374688,-22.235764,-105.890121,119.698257,0,0
4010,2024 8 08,15:40:42.819,0.651901,0.408179,-0.557206,0.312898,-1.504737,-0.741734,0.364684,-41.052444,-105.004387,112.947296,0,0
4011,2024 8 08,15:40:42.828,0.645994,0.402741,-0.568162,0.312486,-1.486624,-0.782752,0.369757,-60.158348,-105.110428,106.902435,0,0
4012,2024 8 08,15:40:42.836,0.64076,0.396516,-0.579223,0.310906,-1.445653,-0.807823,0.355779,-76.61998,-104.077202,102.094055,0,0
4013,2024 8 08,15:40:42.844,0.636628,0.390533,-0.588894,0.308826,-1.407975,-0.833932,0.375546,-87.845169,-101.449791,98.659058,0,0
4014,2024 8 08,15:40:42.853,0.635744,0.389124,-0.591065,0.30827,-1.395683,-0.8378,0.381594,-89.479347,-100.873116,97.76004,0,0
4015,2024 8 08,15:40:42.861,0.631855,0.38251,-0.600933,0.30542,-1.327662,-0.847239,0.41772,-93.836037,-98.374886,92.980171,0,0
4016,2024 8 08,15:40:42.869,0.627899,0.375547,-0.611114,0.30199,-1.249051,-0.841822,0.48044,-93.851303,-96.125,85.599693,0,0
4017,2024 8 08,15:40:42.878,0.62409,0.369091,-0.620677,0.298323,-1.181454,-0.841446,0.544241,-88.557068,-92.624939,75.779449,0,0
4018,2024 8 08,15:40:42.886,0.620425,0.363589,-0.629352,0.294538,-1.138915,-0.842208,0.634426,-79.108589,-88.911476,63.013435,0,0
4019,2024 8 08,15:40:42.894,0.617386,0.359639,-0.63615,0.29118,-1.06493,-0.879199,0.685984,-68.544106,-83.800011,49.922218,0,0
4020,2024 8 08,15:40:42.903,0.616555,0.358679,-0.63794,0.290224,-1.044584,-0.129182,0.015685,-65.416443,-82.280289,46.196602,0,0
4021,2024 8 08,15:40:42.911,0.61387,0.356217,-0.643357,0.286959,-0.989151,-0.953927,0.705528,-54.345947,-77.403999,33.644424,0,0
4022,2024 8 08,15:40:42.919,0.61097,0.354573,-0.648617,0.283319,-0.991466,-1.03506,0.708432,-42.907253,-74.571869,20.762989,0,0
4023,2024 8 08,15:40:42.928,0.6084,0.353862,-0.652989,0.279677,-1.041174,-0.130147,0.017702,-33.834763,-65.732986,8.666592,0,0
4024,2024 8 08,15:40:42.936,0.606313,0.354122,-0.656562,0.27547,-1.5692,-1.250312,0.80885,-32.887035,-59.794598,-9.308332,0,0
4025,2024 8 08,15:40:42.944,0.60448,0.355845,-0.660366,0.268082,-1.951961,-1.143711,3.974861,-69.940315,-74.485481,-62.239265,0,0
4026,2024 8 08,15:40:42.953,0.605389,0.356158,-0.659871,0.266811,-1.858421,-1.228299,4.042252,-67.600555,-48.097679,-72.191643,1,0
4027,2024 8 08,15:40:42.961,0.614488,0.355713,-0.651018,0.268296,-0.782149,-1.71866,0.2118,-9.763203,125.49752,-60.563343,0,0
4028,2024 8 08,15:40:42.969,0.620743,0.354528,-0.646732,0.265868,-0.961218,-0.504161,-0.097262,-49.86195,46.076302,-30.980837,0,0
4029,2024 8 08,15:40:42.978,0.624189,0.351479,-0.645572,0.264702,-1.126881,-0.194754,-0.818602,-48.400043,41.11248,6.516157,0,0
4030,2024 8 08,15:40:42.986,0.626633,0.347887,-0.64563,0.263539,-1.322502,0.135585,-0.317374,-43.795036,25.031637,10.785326,0,0
4031,2024 8 08,15:40:42.994,0.629377,0.345789,-0.644061,0.263611,-1.317758,0.484724,0.347736,-9.215233,55.113571,-8.138922,0,0
4032,2024 8 08,15:40:43.003,0.630562,0.345571,-0.642837,0.264042,-1.286134,0.511726,0.466496,6.560318,66.240921,-17.142574,0,0
4033,2024 8 08,15:40:43.011,0.634089,0.348162,-0.636713,0.266969,-1.069893,0.058758,0.144083,49.023926,86.42627,-44.290054,0,0
4034,2024 8 08,15:40:43.019,0.638139,0.351779,-0.629683,0.269213,-0.90698,-0.244516,0.28699,45.190075,81.036804,-51.338749,0,0
4035,2024 8 08,15:40:43.028,0.642075,0.354251,-0.623514,0.27098,-0.854482,0.654165,-0.03789,32.377739,69.79792,-37.380066,0,0
4036,2024 8 08,15:40:43.036,0.645009,0.355792,-0.618694,0.273054,-0.915436,-0.117154,0.145073,28.642206,56.627735,-21.502239,0,0
4037,2024 8 08,15:40:43.044,0.646965,0.357095,-0.615067,0.274935,-0.989112,-0.116528,0.121773,25.61207,40.729744,-15.166016,0,0
4038,2024 8 08,15:40:43.053,0.648291,0.35817,-0.612406,0.276367,-0.970872,-0.14156,0.090832,24.152138,31.455997,-12.441868,0,0
4039,2024 8 08,15:40:43.061,0.648773,0.358622,-0.611375,0.276944,-0.96823,-0.147595,0.076164,23.205851,27.551962,-11.205076,0,0
4040,2024 8 08,15:40:43.069,0.649501,0.359825,-0.609284,0.278292,-0.998174,-0.130597,0.025083,18.25326,17.16468,-7.253833,0,0
4041,2024 8 08,15:40:43.078,0.64996,0.360493,-0.607943,0.279288,-1.04934,-0.16408,-0.153077,13.740804,14.362921,-3.288047,0,0
4042,2024 8 08,15:40:43.086,0.650359,0.360898,-0.606923,0.280054,-1.077397,-0.100023,-0.13368,10.636267,13.233862,-2.886529,0,0
4043,2024 8 08,15:40:43.094,0.650927,0.361142,-0.605806,0.280837,-1.067522,-0.091346,-0.177539,7.109437,16.237511,-2.236429,0,0
4044,2024 8 08,15:40:43.103,0.651517,0.361168,-0.604842,0.281512,-1.063792,-0.097213,-0.071985,3.735313,14.987531,-1.178961,0,0
4045,2024 8 08,15:40:43.111,0.651558,0.36117,-0.604775,0.281559,-1.063533,-0.097622,-0.06464,3.50053,14.900553,-1.105379,0,0
4046,2024 8 08,15:40:43.119,0.652143,0.361011,-0.603971,0.282135,-1.071448,-0.085309,-0.039781,2.985052,13.846157,0.003023,0,0
4047,2024 8 08,15:40:43.128,0.652727,0.360872,-0.603174,0.282666,-1.049597,-0.091958,-0.037838,2.555349,12.169348,-0.597453,0,0
4048,2024 8 08,15:40:43.136,0.653192,0.360832,-0.602541,0.282993,-1.039946,-0.102109,-0.013188,2.508892,9.415555,-2.270189,0,0
4049,2024 8 08,15:40:43.144,0.653538,0.360862,-0.602078,0.28314,-1.029904,-0.080069,-0.016991,0.970245,5.912541,-2.99999,0,0
4050,2024 8 08,15:40:43.153,0.653795,0.360933,-0.601746,0.283162,-1.041095,-0.108869,-0.062973,0.036871,4.250337,-3.096379,0,0
4051,2024 8 08,15:40:43.161,0.653832,0.360943,-0.601699,0.283165,-1.042702,-0.076109,0.060971,-0.097143,4.011678,-3.110219,0,0
4052,2024 8 08,15:40:43.169,0.654018,0.360926,-0.601543,0.283089,-1.06408,-0.075449,-0.066127,-1.438413,3.162105,-1.994992,0,0
4053,2024 8 08,15:40:43.178,0.654297,0.360862,-0.601304,0.283033,-1.051177,-0.082061,-0.068765,-2.763598,4.374942,-2.211271,0,0
4054,2024 8 08,15:40:43.186,0.65465,0.360724,-0.601038,0.282958,-1.058406,-0.106193,-0.058538,-2.551821,5.331223,-2.150419,0,0
4055,2024 8 08,15:40:43.194,0.655046,0.360564,-0.600741,0.282875,-1.053499,-0.117345,-0.054674,-2.365668,5.509763,-2.090187,0,0
4056,2024 8 08,15:40:43.203,0.655488,0.360424,-0.600406,0.282741,-1.063731,-0.110273,-0.062409,-1.894655,6.027541,-3.719308,0,0
4057,2024 8 08,15:40:43.211,0.655579,0.360395,-0.600337,0.282713,-1.065846,-0.108811,-0.064007,-1.797309,6.134552,-4.056004,0,0
4058,2024 8 08,15:40:43.219,0.656001,0.360345,-0.599989,0.282537,-1.062913,-0.104728,-0.05305,-2.341371,6.346071,-5.0236,0,0
4059,2024 8 08,15:40:43.228,0.656476,0.360338,-0.599579,0.282313,-1.056667,-0.103434,-0.026754,-2.184987,5.881992,-5.614205,0,0
4060,2024 8 08,15:40:43.236,0.65697,0.360379,-0.599121,0.282083,-1.045269,-0.114165,-0.045223,-1.826414,5.864954,-6.02878,0,0
4061,2024 8 08,15:40:43.244,0.657458,0.360405,-0.598703,0.2818,-1.047579,-0.118599,-0.03991,-1.784429,5.451844,-6.311618,0,0
4062,2024 8 08,15:40:43.253,0.657943,0.360429,-0.598306,0.281482,-1.04924,-0.112892,-0.042521,-3.121245,4.853455,-6.02374,0,0
4063,2024 8 08,15:40:43.261,0.658069,0.360435,-0.598203,0.281399,-1.049674,-0.111402,-0.043203,-3.470299,4.69721,-5.948572,0,0
4064,2024 8 08,15:40:43.269,0.658417,0.360482,-0.597914,0.281138,-1.036446,-0.112054,-0.052869,-2.730289,4.655107,-5.928317,0,0
4065,2024 8 08,15:40:43.278,0.658801,0.360531,-0.597629,0.280782,-1.044927,-0.104942,-0.04826,-3.045729,3.601638,-6.183139,0,0
4066,2024 8 08,15:40:43.286,0.659181,0.360621,-0.597349,0.280367,-1.050441,-0.097763,-0.014223,-2.964114,3.086111,-6.728124,0,0
4067,2024 8 08,15:40:43.294,0.659557,0.360748,-0.597081,0.279893,-1.046624,-0.106966,-0.0458,-3.364747,2.510258,-7.355078,0,0
4068,2024 8 08,15:40:43.303,0.659929,0.360891,-0.596829,0.279368,-1.038419,-0.111314,-0.038813,-3.485367,2.042892,-7.627835,0,0
4069,2024 8 08,15:40:43.311,0.660044,0.360936,-0.596751,0.279206,-1.035887,-0.112656,-0.036657,-3.522585,1.898685,-7.711996,0,0
4070,2024 8 08,15:40:43.319,0.660322,0.361041,-0.596579,0.278778,-1.038047,-0.117355,-0.047158,-3.534341,1.729805,-7.491923,0,0
4071,2024 8 08,15:40:43.328,0.660663,0.361163,-0.59638,0.278237,-1.038745,-0.113991,-0.046319,-3.944926,1.634571,-7.868296,0,0
4072,2024 8 08,15:40:43.336,0.660882,0.361246,-0.596252,0.277885,-1.039877,-0.112322,-0.04551,-4.132334,1.521826,-8.104204,0,0
4073,2024 8 08,15:40:43.344,0.661242,0.361414,-0.596038,0.27727,-1.046576,-0.112695,-0.044061,-3.925987,1.181085,-8.463739,0,0
4074,2024 8 08,15:40:43.353,0.661609,0.361616,-0.595798,0.276644,-1.058395,-0.115458,-0.047922,-3.285079,1.622176,-8.808383,0,0
4075,2024 8 08,15:40:43.361,0.661938,0.361807,-0.595575,0.276088,-1.06324,-0.117563,-0.031664,-3.410988,1.588766,-9.021394,0,0
4076,2024 8 08,15:40:43.369,0.662008,0.361847,-0.59552,0.275986,-1.062258,-0.11835,-0.031192,-3.301938,1.748831,-9.032418,0,0
4077,2024 8 08,15:40:43.378,0.662402,0.362073,-0.595191,0.275454,-1.054545,-0.121824,-0.033189,-2.505608,2.832287,-9.093884,0,0
4078,2024 8 08,15:40:43.386,0.662841,0.362351,-0.594775,0.274929,-1.054584,-0.118593,-0.035623,-1.872773,3.514723,-9.519117,0,0
4079,2024 8 08,15:40:43.394,0.663318,0.362673,-0.594244,0.274503,-1.053065,-0.130179,-0.058972,-0.708563,5.295673,-9.764603,0,0
4080,2024 8 08,15:40:43.403,0.663842,0.36297,-0.593663,0.274099,-1.049812,-0.132738,-0.041662,-1.088912,6.07504,-9.494884,0,0
4081,2024 8 08,15:40:43.411,0.664353,0.363169,-0.593116,0.273782,-1.060451,-0.134505,-0.046622,-1.362791,7.267673,-8.774832,0,0
4082,2024 8 08,15:40:43.419,0.664499,0.363212,-0.592963,0.273701,-1.061875,-0.133543,-0.046013,-1.461713,7.59795,-8.746032,0,0
4083,2024 8 08,15:40:43.428,0.665122,0.36334,-0.592321,0.273409,-1.05919,-0.127968,-0.041025,-1.905685,9.068766,-9.137177,0,0
4084,2024 8 08,15:40:43.436,0.665906,0.363435,-0.5915,0.273151,-1.037824,-0.139682,-0.053066,-2.204452,11.169706,-9.083347,0,0
4085,2024 8 08,15:40:43.444,0.666729,0.363459,-0.590686,0.272873,-1.032636,-0.138504,-0.019831,-2.607988,11.119149,-8.57809,0,0
4086,2024 8 08,15:40:43.453,0.66755,0.363453,-0.589877,0.272621,-1.039333,-0.150858,0.032086,-2.693942,11.049932,-8.103896,0,0
4087,2024 8 08,15:40:43.461,0.668264,0.363455,-0.589174,0.272393,-1.032076,-0.145521,-0.028482,-2.540014,10.655386,-8.016852,0,0
4088,2024 8 08,15:40:43.469,0.668487,0.363451,-0.58896,0.272312,-1.027893,-0.142642,-0.026069,-2.759119,10.493783,-8.02619,0,0
4089,2024 8 08,15:40:43.478,0.66915,0.363419,-0.588355,0.272036,-1.013325,-0.119876,-0.011592,-4.169176,9.909977,-8.115975,0,0
4090,2024 8 08,15:40:43.486,0.669875,0.363375,-0.587694,0.271738,-1.035183,-0.134823,-0.023033,-3.213125,9.601388,-7.606263,0,0
4091,2024 8 08,15:40:43.494,0.670569,0.363344,-0.58706,0.271438,-1.043234,-0.132764,-0.013293,-3.247384,8.930656,-7.275622,0,0
4092,2024 8 08,15:40:43.503,0.671251,0.363337,-0.586418,0.271149,-1.034916,-0.140345,-0.067838,-2.919976,8.898347,-7.358507,0,0
4093,2024 8 08,15:40:43.511,0.671894,0.363308,-0.585873,0.270773,-1.036106,-0.126675,0.013517,-3.624758,7.892311,-7.366159,0,0
4094,2024 8 08,15:40:43.519,0.672461,0.363322,-0.58534,0.270499,-1.04264,-0.13698,-0.032885,-3.021317,7.562933,-7.290114,0,0
4095,2024 8 08,15:40:43.528,0.672666,0.363329,-0.585152,0.27039,-1.045004,-0.140078,-0.043628,-2.895438,7.411513,-7.300577,0,0
4096,2024 8 08,15:40:43.536,0.673147,0.363351,-0.584731,0.27007,-1.04952,-0.14441,-0.035046,-3.260774,6.862715,-7.529578,0,0
4097,2024 8 08,15:40:43.544,0.673723,0.363345,-0.584281,0.269617,-1.048211,-0.149811,-0.011044,-4.791536,6.164374,-7.918709,0,0
4098,2024 8 08,15:40:43.553,0.674377,0.363296,-0.583819,0.269048,-1.049555,-0.147653,-0.012053,-6.025959,6.037585,-8.662144,0,0
4099,2024 8 08,15:40:43.561,0.675068,0.363218,-0.583378,0.268375,-1.060691,-0.148665,-0.031189,-7.262704,5.76584,-9.028293,0,0
4100,2024 8 08,15:40:43.569,0.675761,0.363076,-0.583008,0.267626,-1.027577,-0.151882,-0.010668,-9.454212,5.830415,-10.085134,0,0
4101,2024 8 08,15:40:43.578,0.676044,0.363016,-0.582868,0.2673,-1.020951,-0.150883,0.002427,-10.204351,5.590919,-10.437012,0,0
4102,2024 8 08,15:40:43.586,0.676646,0.362889,-0.582617,0.266494,-1.041353,-0.140023,0.040965,-10.788398,3.997837,-10.831666,0,0
4103,2024 8 08,15:40:43.594,0.677368,0.362787,-0.582273,0.265546,-1.052577,-0.149861,-0.002238,-10.1664,4.16927,-11.739192,0,0
4104,2024 8 08,15:40:43.603,0.678409,0.362688,-0.581796,0.264068,-1.089261,-0.160612,-0.03115,-11.226778,3.359751,-13.239408,0,0
4105,2024 8 08,15:40:43.611,0.679318,0.362568,-0.581406,0.262753,-1.089865,-0.144839,0.00085,-12.607761,4.494808,-14.502122,0,0
4106,2024 8 08,15:40:43.619,0.680303,0.362487,-0.580911,0.261408,-1.072419,-0.160116,-0.075462,-11.866699,6.22616,-15.528135,0,0
4107,2024 8 08,15:40:43.628,0.680335,0.362484,-0.580894,0.261364,-1.071839,-0.160624,-0.077999,-11.842068,6.283707,-15.562238,0,0
4108,2024 8 08,15:40:43.636,0.681298,0.362384,-0.580493,0.259882,-1.060364,-0.156069,0.013462,-14.874447,4.85552,-17.052013,0,0
4109,2024 8 08,15:40:43.644,0.682369,0.362344,-0.579982,0.258263,-1.015889,-0.153984,0.049306,-14.834798,4.711526,-18.553511,0,0
4110,2024 8 08,15:40:43.653,0.683359,0.440178,-0.490767,0.313644,-1.085065,-0.173844,0.023519,-12.941518,3.088432,-19.277349,0,0
4111,2024 8 08,15:40:43.661,0.684451,0.362522,-0.578892,0.254928,-1.038519,-0.198391,-0.029614,-14.803291,4.699874,-20.272741,0,0
4112,2024 8 08,15:40:43.669,0.685593,0.362522,-0.578385,0.253002,-1.050703,-0.196967,-0.009876,-17.530785,3.510637,-21.615948,0,0
4113,2024 8 08,15:40:43.678,0.685722,0.362521,-0.578328,0.252784,-1.052079,-0.196807,-0.007647,-17.838669,3.376394,-21.76757,0,0
4114,2024 8 08,15:40:43.686,0.686898,0.36236,-0.577879,0.250842,-1.064871,-0.193421,-0.004004,-21.137417,3.938067,-22.785631,0,0
4115,2024 8 08,15:40:43.694,0.688253,0.362123,-0.577417,0.248522,-1.108956,-0.20209,-0.016373,-21.899292,3.547842,-23.806694,0,0
4116,2024 8 08,15:40:43.703,0.689776,0.36175,-0.576987,0.245824,-1.052402,-0.180026,-0.01206,-26.5175,3.950885,-26.005728,0,0
4117,2024 8 08,15:40:43.711,0.69123,0.361486,-0.576588,0.24305,-1.07413,-0.199559,-0.031587,-26.291988,2.448499,-26.86084,0,0
4118,2024 8 08,15:40:43.719,0.692788,0.361125,-0.576193,0.240065,-1.066647,-0.188112,-0.014152,-28.64806,2.692117,-28.303055,0,0
4119,2024 8 08,15:40:43.728,0.693069,0.36106,-0.576122,0.239527,-1.065297,-0.186047,-0.011007,-29.073097,2.736066,-28.563231,0,0
4120,2024 8 08,15:40:43.736,0.694376,0.360818,-0.575822,0.236811,-1.071654,-0.210165,0.004378,-30.224068,1.13955,-30.412266,0,0
4121,2024 8 08,15:40:43.744,0.695984,0.360483,-0.575407,0.23358,-1.011063,-0.224996,-0.025966,-30.455046,2.308139,-30.975456,0,0
4122,2024 8 08,15:40:43.753,0.697455,0.360223,-0.575193,0.230095,-1.022225,-0.220905,0.01016,-32.780994,-2.996951,-32.327538,0,0
4123,2024 8 08,15:40:43.761,0.698955,0.3599,-0.574942,0.22665,-1.053179,-0.22113,-0.036266,-29.402296,-1.304783,-30.890711,0,0
4124,2024 8 08,15:40:43.769,0.700364,0.359644,-0.574844,0.222924,-1.078061,-0.204509,0.008666,-34.0462,-3.649244,-33.664219,0,0
4125,2024 8 08,15:40:43.778,0.700699,0.359583,-0.574821,0.222035,-1.083992,-0.200547,0.019377,-35.153164,-4.208092,-34.32534,0,0
4126,2024 8 08,15:40:43.786,0.701793,0.35964,-0.574619,0.218984,-1.157834,-0.178216,0.012978,-29.591724,-5.296168,-36.524307,0,0
4127,2024 8 08,15:40:43.794,0.702992,0.360134,-0.574255,0.215245,-1.213576,-0.142811,0.04425,-27.095383,-6.021746,-42.497276,0,0
4128,2024 8 08,15:40:43.803,0.704177,0.361289,-0.573602,0.211129,-1.201436,-0.180839,0.027409,-21.042559,-7.760701,-50.353333,0,0
4129,2024 8 08,15:40:43.811,0.705241,0.363026,-0.572901,0.206443,-1.208966,-0.174074,0.049741,-18.998814,-11.731327,-58.308292,0,0
4130,2024 8 08,15:40:43.819,0.706208,0.365469,-0.572,0.201246,-1.235629,-0.186351,0.040106,-15.269992,-14.574902,-68.537331,0,0
4131,2024 8 08,15:40:43.828,0.706488,0.366174,-0.57174,0.199746,-1.243326,-0.189895,0.037324,-14.193557,-15.395784,-71.490242,0,0
4132,2024 8 08,15:40:43.836,0.707118,0.368775,-0.570874,0.195131,-1.271652,-0.189931,0.032779,-12.310183,-18.260359,-78.79184,0,0
4133,2024 8 08,15:40:43.844,0.707828,0.372315,-0.569747,0.188998,-1.24145,-0.181577,0.035412,-12.657728,-21.598743,-88.456001,0,0
4134,2024 8 08,15:40:43.853,0.708501,0.376656,-0.56831,0.18204,-1.312484,-0.17699,-0.012428,-10.03508,-24.334846,-99.616898,0,0
4135,2024 8 08,15:40:43.861,0.708997,0.381778,-0.566758,0.174058,-1.373771,-0.209264,-0.001144,-10.427506,-31.306955,-113.531677,0,0
4136,2024 8 08,15:40:43.869,0.709562,0.387478,-0.564962,0.164672,-1.356788,-0.244735,-0.041548,-15.741079,-34.915359,-129.611343,0,0
4137,2024 8 08,15:40:43.878,0.709845,0.390324,-0.564066,0.159985,-1.348308,-0.262448,-0.061723,-18.394407,-36.717216,-137.640717,0,0
4138,2024 8 08,15:40:43.886,0.70998,0.391161,-0.563763,0.158339,-1.35165,-0.265003,-0.064248,-20.13793,-37.399342,-140.140366,0,0
4139,2024 8 08,15:40:43.894,0.710985,0.397009,-0.561577,0.146561,-1.376327,-0.297099,-0.102568,-32.492535,-41.588997,-157.17749,0,0
4140,2024 8 08,15:40:43.903,0.712323,0.403073,-0.558957,0.132835,-1.364296,-0.406992,-0.279624,-45.557667,-43.531406,-172.307495,0,0
4141,2024 8 08,15:40:43.911,0.713739,0.40886,-0.556514,0.11677,-1.175596,-0.428736,-0.447385,-65.121277,-56.325031,-188.226624,0,0
4142,2024 8 08,15:40:43.919,0.714542,0.414282,-0.554936,0.09881,-1.174653,-0.599421,-0.536731,-78.329636,-76.630112,-194.759583,0,0
4143,2024 8 08,15:40:43.928,0.714976,0.418397,-0.554085,0.081856,-1.060315,-0.64497,-0.640584,-91.57724,-87.99749,-197.735519,0,0
4144,2024 8 08,15:40:43.936,0.714961,0.419275,-0.554032,0.077671,-1.031351,-0.667694,-0.661312,-94.311371,-92.127777,-197.788422,0,1
4145,2024 8 08,15:40:43.944,0.714278,0.422803,-0.554538,0.058443,-0.917025,-0.810337,-0.751306,-104.311562,-117.604218,-195.784409,0,0
4146,2024 8 08,15:40:43.953,0.711535,0.426118,-0.557383,0.035977,-0.938933,-0.979184,-0.859488,-110.388412,-163.845703,-192.257889,0,0
4147,2024 8 08,15:40:43.961,0.706378,0.428697,-0.562942,0.011116,-1.117128,-0.970276,-0.667939,-121.497429,-209.229492,-191.399643,0,0
4148,2024 8 08,15:40:43.969,0.699933,0.43016,-0.569724,-0.014721,-1.268145,-0.898045,-0.559491,-130.47937,-227.118195,-185.843124,0,0
4149,2024 8 08,15:40:43.978,0.693663,0.430113,-0.576139,-0.040467,-1.228513,-0.743834,-0.470878,-143.154724,-217.010132,-176.38118,0,0
4150,2024 8 08,15:40:43.986,0.688786,0.428748,-0.581101,-0.06251,-1.117967,-0.644343,-0.557286,-156.353287,-201.510864,-159.863541,0,0
4151,2024 8 08,15:40:43.994,0.687501,0.428032,-0.582463,-0.069042,-1.069175,-0.614518,-0.548478,-160.544052,-195.969788,-155.184875,0,0
4152,2024 8 08,15:40:44.003,0.684253,0.424308,-0.586163,-0.089357,-0.852951,-0.534555,-0.417574,-173.70459,-176.781342,-141.806976,0,0
4153,2024 8 08,15:40:44.011,0.681098,0.419024,-0.589781,-0.111561,-0.680727,-0.521399,-0.501848,-181.604248,-168.900787,-127.38105,0,0
4154,2024 8 08,15:40:44.019,0.678325,0.411966,-0.593444,-0.133172,-0.718261,-0.384141,-0.300845,-190.171509,-158.973328,-104.842148,0,0
4155,2024 8 08,15:40:44.028,0.676707,0.403312,-0.596488,-0.152886,-0.650035,-0.04734,-0.30628,-195.593719,-138.219757,-78.398109,0,0
4156,2024 8 08,15:40:44.036,0.676438,0.393932,-0.599003,-0.168184,-0.65999,0.136344,-0.356392,-195.937332,-115.23011,-37.518375,0,0
4157,2024 8 08,15:40:44.044,0.676575,0.390294,-0.599902,-0.173064,-0.680421,0.174455,-0.310961,-196.695251,-107.76384,-23.091789,0,0
4158,2024 8 08,15:40:44.053,0.678284,0.378788,-0.602271,-0.183259,-0.775578,0.170706,0.019576,-200.865005,-89.883408,14.38258,0,0
4159,2024 8 08,15:40:44.061,0.681759,0.364163,-0.604427,-0.192552,-0.652381,0.287796,-0.140827,-199.828033,-65.212814,48.674492,0,0
4160,2024 8 08,15:40:44.069,0.68604,0.348081,-0.606489,-0.200379,-0.655265,0.280906,-0.024242,-197.511078,-54.515518,69.292801,0,0
4161,2024 8 08,15:40:44.078,0.690584,0.331684,-0.608235,-0.207151,-0.65013,0.280565,0.060515,-192.361847,-45.945583,76.857635,0,0
4162,2024 8 08,15:40:44.086,0.694757,0.317073,-0.609416,-0.212647,-0.580593,0.318875,0.092805,-185.828354,-39.060127,78.625465,0,0
4163,2024 8 08,15:40:44.094,0.696348,0.311385,-0.609872,-0.214717,-0.560269,0.331976,0.108173,-182.798157,-37.454292,79.224342,0,0
4164,2024 8 08,15:40:44.103,0.699631,0.298753,-0.610912,-0.218897,-0.554128,0.350063,0.155194,-173.256866,-40.050217,80.153725,0,0
4165,2024 8 08,15:40:44.111,0.702795,0.284468,-0.61251,-0.223205,-0.572174,0.357351,0.195773,-160.695419,-46.179337,81.787155,0,0
4166,2024 8 08,15:40:44.119,0.705382,0.270048,-0.614669,-0.226959,-0.604373,0.337487,0.223611,-146.945435,-51.63171,84.50354,0,0
4167,2024 8 08,15:40:44.128,0.707461,0.255944,-0.617208,-0.229922,-0.614883,0.294857,0.224136,-134.162872,-54.31678,87.699982,0,0
4168,2024 8 08,15:40:44.136,0.708893,0.24339,-0.619885,-0.232009,-0.623909,0.223697,0.215026,-123.875145,-59.684654,91.159653,0,0
4169,2024 8 08,15:40:44.144,0.709604,0.237152,-0.621215,-0.233046,-0.628394,0.188334,0.210499,-118.762466,-62.352318,92.878998,0,0
4170,2024 8 08,15:40:44.153,0.710139,0.223618,-0.625129,-0.234323,-0.680822,0.138474,0.200932,-109.487778,-71.187416,98.609772,0,0
4171,2024 8 08,15:40:44.161,0.71023,0.209829,-0.629565,-0.234912,-0.766526,0.09364,0.196478,-104.454613,-76.854805,106.42955,0,0
4172,2024 8 08,15:40:44.169,0.710195,0.195604,-0.634261,-0.234654,-0.801275,0.038299,0.186139,-102.00663,-77.825745,117.995819,0,0
4173,2024 8 08,15:40:44.178,0.710208,0.180475,-0.639148,-0.23346,-0.869587,-0.000599,0.146892,-102.730721,-79.982811,133.916809,0,0
4174,2024 8 08,15:40:44.186,0.710257,0.1642,-0.644164,-0.231514,-0.987214,-0.080369,0.158188,-107.490341,-81.528687,148.438385,0,0
4175,2024 8 08,15:40:44.194,0.71026,0.1629,-0.644565,-0.231359,-0.996612,-0.086743,0.159091,-107.870636,-81.652206,149.598663,0,0
4176,2024 8 08,15:40:44.203,0.710612,0.146992,-0.648742,-0.229182,-1.041096,-0.163219,0.122105,-115.973854,-76.321396,158.591965,0,0
4177,2024 8 08,15:40:44.211,0.711283,0.128851,-0.652598,-0.22702,-1.055246,-0.216436,0.107885,-128.385773,-70.921402,163.410263,0,0
4178,2024 8 08,15:40:44.219,0.712005,0.109703,-0.655828,-0.225474,-1.041638,-0.125642,0.021987,-142.836258,-69.70311,163.287582,0,0
4179,2024 8 08,15:40:44.228,0.712416,0.089678,-0.658622,-0.224856,-1.037365,-0.206722,0.12145,-157.732498,-72.160835,160.394669,0,0
4180,2024 8 08,15:40:44.236,0.712188,0.068956,-0.661257,-0.225125,-1.078055,-0.160328,0.131888,-169.38237,-80.4561,156.321991,0,0
4181,2024 8 08,15:40:44.244,0.712153,0.065799,-0.661658,-0.225166,-1.084254,-0.153261,0.133478,-171.156982,-81.719704,155.701599,0,0
4182,2024 8 08,15:40:44.253,0.711255,0.047388,-0.663841,-0.226072,-1.178583,-0.136018,0.188843,-178.133667,-85.344925,153.136703,0,0
4183,2024 8 08,15:40:44.261,0.710089,0.026408,-0.665741,-0.227484,-1.200556,-0.11078,0.17346,-183.814743,-82.749466,149.761963,0,0
4184,2024 8 08,15:40:44.269,0.708533,0.004874,-0.667281,-0.229246,-1.241464,-0.137492,0.184346,-188.930176,-82.613846,147.081223,0,0
4185,2024 8 08,15:40:44.278,0.706757,-0.016799,-0.668253,-0.231292,-1.218449,-0.167083,0.134968,-193.168213,-79.683624,145.204437,0,0
4186,2024 8 08,15:40:44.286,0.704536,-0.038692,-0.668868,-0.233621,-1.212213,-0.184225,0.112632,-198.098053,-81.426628,143.768982,0,0
4187,2024 8 08,15:40:44.294,0.70406,-0.043381,-0.668999,-0.23412,-1.210877,-0.187896,0.107848,-199.153961,-81.799957,143.461533,0,0
4188,2024 8 08,15:40:44.303,0.70162,-0.061621,-0.669318,-0.236284,-1.216177,-0.174161,0.098567,-203.075638,-85.568993,141.806595,0,0
4189,2024 8 08,15:40:44.311,0.69813,-0.082935,-0.669636,-0.239043,-1.263511,-0.194198,0.132549,-206.616409,-91.102562,138.009949,0,0
4190,2024 8 08,15:40:44.319,0.693818,-0.104744,-0.669905,-0.24219,-1.33291,-0.193212,0.168102,-207.199402,-95.310982,131.715927,0,0
4191,2024 8 08,15:40:44.328,0.688965,-0.126247,-0.669913,-0.245707,-1.381645,-0.20017,0.21628,-206.895233,-94.204384,124.014397,0,0
4192,2024 8 08,15:40:44.336,0.683952,-0.147118,-0.669375,-0.249527,-1.368995,-0.190578,0.235892,-205.970627,-87.908257,117.121468,0,0
4193,2024 8 08,15:40:44.344,0.68261,-0.152704,-0.669231,-0.25055,-1.365609,-0.188011,0.241141,-205.723175,-86.223221,115.276718,0,0
4194,2024 8 08,15:40:44.353,0.678439,-0.168748,-0.668332,-0.253847,-1.333692,-0.198443,0.28889,-204.349472,-84.278908,110.416336,0,0
4195,2024 8 08,15:40:44.361,0.673333,-0.187138,-0.667,-0.257901,-1.295368,-0.192797,0.313461,-201.850906,-81.57534,103.958763,0,0
4196,2024 8 08,15:40:44.369,0.667552,-0.205714,-0.665619,-0.262245,-1.333561,-0.208856,0.359446,-198.781174,-83.978752,96.542038,0,0
4197,2024 8 08,15:40:44.378,0.661463,-0.223725,-0.664025,-0.266906,-1.326471,-0.217369,0.36513,-195.715027,-79.646362,87.627655,0,0
4198,2024 8 08,15:40:44.386,0.655248,-0.241044,-0.662022,-0.272075,-1.269318,-0.227979,0.399528,-196.689804,-73.568832,78.727821,0,0
4199,2024 8 08,15:40:44.394,0.653296,-0.246486,-0.661392,-0.2737,-1.251357,-0.231313,0.410338,-196.99614,-71.658859,75.930893,0,0
4200,2024 8 08,15:40:44.403,0.648311,-0.259246,-0.659511,-0.278194,-1.205461,-0.264026,0.423925,-195.504456,-68.598465,69.160416,0,0
4201,2024 8 08,15:40:44.411,0.644897,-0.267692,-0.65825,-0.281271,-1.184076,-0.285067,0.44175,-194.725662,-67.454506,64.612831,0,0
4202,2024 8 08,15:40:44.419,0.63795,-0.283186,-0.655816,-0.287551,-1.200856,-0.323808,0.516162,-194.172256,-69.081108,55.97271,0,0
4203,2024 8 08,15:40:44.428,0.630839,-0.297931,-0.653209,-0.294193,-1.252264,-0.375806,0.551908,-192.088669,-63.45853,47.90728,0,0
4204,2024 8 08,15:40:44.436,0.623932,-0.311725,-0.650133,-0.301355,-1.232985,-0.38421,0.584444,-189.766342,-53.27552,39.335781,0,0
4205,2024 8 08,15:40:44.444,0.618311,-0.322902,-0.647005,-0.307886,-1.223346,-0.398462,0.522746,-184.956863,-40.420822,33.13456,0,0
4206,2024 8 08,15:40:44.453,0.617208,-0.325061,-0.646306,-0.309272,-1.216954,-0.399779,0.523463,-183.544266,-38.246628,31.817831,0,0
4207,2024 8 08,15:40:44.461,0.611713,-0.335685,-0.64258,-0.316494,-1.175826,-0.408935,0.546504,-174.533691,-28.408978,24.770472,0,0
4208,2024 8 08,15:40:44.469,0.606363,-0.345543,-0.638638,-0.324068,-1.135315,-0.440897,0.517734,-159.906509,-20.478006,15.746498,0,0
4209,2024 8 08,15:40:44.478,0.601296,-0.353834,-0.635052,-0.331533,-1.246676,-0.409563,0.492946,-143.176697,-16.332972,3.713039,0,0
4210,2024 8 08,15:40:44.486,0.596575,-0.360266,-0.632196,-0.338529,-2.257863,-0.508886,0.415746,-122.484039,-11.518454,-8.980717,0,0
4211,2024 8 08,15:40:44.494,0.593077,-0.364636,-0.628917,-0.346012,-1.287566,-0.297475,1.925508,-124.18174,33.016418,-21.989935,1,0
4212,2024 8 08,15:40:44.503,0.595848,-0.364619,-0.621906,-0.353871,-0.453848,-0.332215,-0.18913,-72.741043,79.298782,-9.796498,0,0
4213,2024 8 08,15:40:44.511,0.596125,-0.365035,-0.620471,-0.355516,-0.424513,-0.258942,-0.293706,-65.384804,80.251099,-5.74711,0,0
4214,2024 8 08,15:40:44.519,0.595658,-0.367746,-0.617275,-0.359047,-1.00283,0.057841,0.13906,-60.402321,44.838032,8.986624,0,0
4215,2024 8 08,15:40:44.528,0.598107,-0.367989,-0.613372,-0.361409,-1.00948,0.227703,0.27435,-18.351223,50.763298,9.671431,0,0
4216,2024 8 08,15:40:44.536,0.601101,-0.365939,-0.611259,-0.362105,-1.052043,0.011322,0.061284,19.934093,49.402302,-2.520904,0,0
4217,2024 8 08,15:40:44.544,0.603866,-0.362804,-0.60989,-0.362966,-1.06629,-0.141563,0.045193,17.704489,42.852947,-13.285005,0,0
4218,2024 8 08,15:40:44.553,0.605614,-0.360426,-0.60857,-0.364639,-1.005756,-0.084401,0.142866,4.890001,42.943985,-16.947855,0,0
4219,2024 8 08,15:40:44.561,0.606231,-0.359623,-0.608155,-0.365102,-0.995224,-0.074632,0.144377,4.75267,42.572292,-16.805237,0,0
4220,2024 8 08,15:40:44.569,0.608185,-0.357264,-0.607128,-0.365875,-1.011813,-0.089029,0.030967,20.884108,39.083138,-10.350115,0,0
4221,2024 8 08,15:40:44.578,0.610431,-0.354715,-0.606346,-0.365908,-1.045828,-0.097417,0.04008,23.408203,32.214989,-4.582513,0,0
4222,2024 8 08,15:40:44.586,0.612566,-0.352529,-0.605525,-0.365813,-1.059202,-0.062103,-0.028614,20.378408,29.582888,-1.28807,0,0
4223,2024 8 08,15:40:44.594,0.614685,-0.350358,-0.604866,-0.365436,-1.059192,-0.116062,-0.091067,24.823341,27.872238,0.535267,0,0
4224,2024 8 08,15:40:44.603,0.616493,-0.348568,-0.604347,-0.364962,-1.018395,-0.146907,0.010961,25.461863,23.956573,1.930301,0,0
4225,2024 8 08,15:40:44.611,0.617179,-0.347919,-0.604129,-0.364785,-1.009014,-0.151262,0.034329,25.183289,23.199228,2.556866,0,0
4226,2024 8 08,15:40:44.619,0.61887,-0.346495,-0.60348,-0.364349,-1.02255,-0.131686,0.020006,22.056643,24.548508,4.511254,0,0
4227,2024 8 08,15:40:44.628,0.620741,-0.345055,-0.602727,-0.363777,-1.069003,-0.144135,0.025988,19.649137,23.097082,6.15122,0,0
4228,2024 8 08,15:40:44.636,0.622502,-0.343809,-0.602029,-0.363104,-1.067022,-0.123667,-0.009507,17.521183,19.388914,7.200483,0,0
4229,2024 8 08,15:40:44.644,0.623922,-0.342941,-0.601416,-0.362503,-1.042771,-0.103337,-0.000602,13.063444,14.909245,7.677572,0,0
4230,2024 8 08,15:40:44.653,0.624867,-0.342469,-0.60097,-0.362063,-1.029891,-0.071704,0.065999,7.839015,9.967215,6.558182,0,0
4231,2024 8 08,15:40:44.661,0.625216,-0.342313,-0.600804,-0.361885,-1.024441,-0.063443,0.079537,5.918133,8.045016,6.220069,0,0
4232,2024 8 08,15:40:44.669,0.625687,-0.342232,-0.600568,-0.36154,-1.016388,-0.070153,0.038987,3.288406,4.666375,6.088838,0,0
4233,2024 8 08,15:40:44.678,0.62607,-0.342397,-0.600355,-0.361075,-1.038606,-0.065432,0.028321,0.305176,-0.427246,5.126953,0,0
4234,2024 8 08,15:40:44.686,0.626057,-0.342693,-0.600356,-0.360813,-1.04149,-0.072643,0.024956,-1.016815,-3.011137,4.045324,0,0
4235,2024 8 08,15:40:44.694,0.625872,-0.343138,-0.600431,-0.360588,-1.060471,-0.063284,0.005968,-2.575505,-4.884933,3.673791,0,0
4236,2024 8 08,15:40:44.703,0.625612,-0.343568,-0.600547,-0.360436,-1.065704,-0.07233,-0.005327,-2.913736,-4.474904,2.613483,0,0
4237,2024 8 08,15:40:44.711,0.625601,-0.343587,-0.600552,-0.36043,-1.065936,-0.072731,-0.005828,-2.928744,-4.45671,2.566435,0,0
4238,2024 8 08,15:40:44.719,0.625358,-0.344012,-0.600616,-0.360338,-1.083153,-0.087694,-0.00631,-3.269142,-4.399063,2.790041,0,0
4239,2024 8 08,15:40:44.728,0.625205,-0.344384,-0.600573,-0.36032,-1.076357,-0.063335,-0.001883,-3.349366,-1.661981,2.694554,0,0
4240,2024 8 08,15:40:44.736,0.625189,-0.344645,-0.600436,-0.360327,-1.094255,-0.064344,-0.006785,-2.971292,0.824959,2.521487,0,0
4241,2024 8 08,15:40:44.744,0.625313,-0.344758,-0.600166,-0.360452,-1.086462,-0.067913,0.001411,-2.663252,3.507806,1.745537,0,0
4242,2024 8 08,15:40:44.753,0.625541,-0.344753,-0.599822,-0.360635,-1.076193,-0.069161,0.009158,-1.613385,5.460961,1.018406,0,0
4243,2024 8 08,15:40:44.761,0.625568,-0.344752,-0.59978,-0.360658,-1.074937,-0.069314,0.010105,-1.485023,5.699763,0.929503,0,0
4244,2024 8 08,15:40:44.769,0.625823,-0.344662,-0.599432,-0.36088,-1.070606,-0.069751,0.031464,-1.051526,6.408246,0.293148,0,0
4245,2024 8 08,15:40:44.778,0.626174,-0.34445,-0.599049,-0.36111,-1.058884,-0.069814,0.027588,-0.32093,7.178847,-0.158869,0,0
4246,2024 8 08,15:40:44.786,0.626517,-0.344182,-0.598695,-0.361359,-1.049345,-0.067797,0.022521,-0.155815,7.096838,-0.432384,0,0
4247,2024 8 08,15:40:44.794,0.626813,-0.34396,-0.598366,-0.361601,-1.05375,-0.06826,0.026474,-0.428308,6.232674,-0.528223,0,0
4248,2024 8 08,15:40:44.803,0.627049,-0.34372,-0.598088,-0.361879,-1.053744,-0.074269,0.024413,-0.328671,5.831828,-1.533068,0,0
4249,2024 8 08,15:40:44.811,0.627094,-0.343675,-0.598035,-0.361932,-1.053743,-0.075401,0.024024,-0.309898,5.756302,-1.722397,0,0
4250,2024 8 08,15:40:44.819,0.627225,-0.343514,-0.597845,-0.362172,-1.04989,-0.06869,0.031654,-1.028623,4.489061,-1.422832,0,0
4251,2024 8 08,15:40:44.828,0.627358,-0.343364,-0.597643,-0.362417,-1.056319,-0.071859,0.022205,-1.130765,3.844501,-1.122565,0,0
4252,2024 8 08,15:40:44.836,0.627457,-0.343207,-0.59746,-0.362695,-1.051328,-0.068038,0.020523,-1.388007,3.939046,-1.715103,0,0
4253,2024 8 08,15:40:44.844,0.627538,-0.343062,-0.597283,-0.362984,-1.049079,-0.067913,0.026456,-1.632205,3.496177,-1.849754,0,0
4254,2024 8 08,15:40:44.853,0.62759,-0.34291,-0.597129,-0.36329,-1.055155,-0.074124,0.009503,-1.552269,3.345607,-2.156901,0,0
4255,2024 8 08,15:40:44.861,0.627603,-0.342872,-0.597092,-0.363365,-1.056646,-0.075647,0.005345,-1.53266,3.308672,-2.232244,0,0
4256,2024 8 08,15:40:44.869,0.627596,-0.342746,-0.596998,-0.363651,-1.0477,-0.080338,0.010385,-1.886295,3.209637,-2.789304,0,0
4257,2024 8 08,15:40:44.878,0.627549,-0.342622,-0.596889,-0.364027,-1.040034,-0.084405,0.020926,-2.4666,2.69617,-3.201437,0,0
4258,2024 8 08,15:40:44.886,0.62746,-0.342552,-0.59678,-0.364425,-1.040411,-0.084456,0.023431,-3.237187,1.987502,-2.874912,0,0
4259,2024 8 08,15:40:44.894,0.627322,-0.342564,-0.59667,-0.36483,-1.03809,-0.084816,0.030715,-4.188713,1.313207,-2.523859,0,0
4260,2024 8 08,15:40:44.903,0.62714,-0.34266,-0.596557,-0.365239,-1.036738,-0.081834,0.028349,-4.933074,0.648395,-2.208887,0,0
4261,2024 8 08,15:40:44.911,0.627086,-0.342688,-0.596524,-0.365359,-1.03634,-0.080956,0.027652,-5.152456,0.452458,-2.116057,0,0
4262,2024 8 08,15:40:44.919,0.62691,-0.342831,-0.596434,-0.365673,-1.046952,-0.079348,0.019056,-5.512243,0.099759,-1.794532,0,0
4263,2024 8 08,15:40:44.928,0.626701,-0.343014,-0.596322,-0.366042,-1.051898,-0.078187,0.020043,-5.665178,0.239345,-1.694926,0,0
4264,2024 8 08,15:40:44.936,0.626492,-0.343211,-0.596175,-0.366455,-1.051169,-0.081102,0.021013,-6.000927,0.570861,-1.622305,0,0
4265,2024 8 08,15:40:44.944,0.626285,-0.34343,-0.595994,-0.366897,-1.051907,-0.081397,0.022626,-6.394038,0.881385,-1.517545,0,0
4266,2024 8 08,15:40:44.953,0.626155,-0.343572,-0.595871,-0.367186,-1.05247,-0.081544,0.023821,-6.687624,1.084892,-1.48174,0,0
4267,2024 8 08,15:40:44.961,0.625953,-0.343815,-0.595632,-0.367691,-1.053003,-0.063033,-0.014491,-7.315738,1.451803,-1.592223,0,0
4268,2024 8 08,15:40:44.969,0.625783,-0.344023,-0.595398,-0.368163,-1.04856,-0.076486,0.014976,-7.382429,1.815642,-1.645684,0,0
4269,2024 8 08,15:40:44.978,0.625752,-0.344064,-0.59535,-0.368255,-1.049131,-0.081534,0.030005,-7.447496,1.877007,-1.640025,0,0
4270,2024 8 08,15:40:44.986,0.625578,-0.344305,-0.595059,-0.368797,-1.054926,-0.077808,0.024393,-7.898052,2.26748,-1.628992,0,0
4271,2024 8 08,15:40:44.994,0.62541,-0.344537,-0.594728,-0.369397,-1.063241,-0.074613,0.018405,-8.237391,3.004044,-1.976516,0,0
4272,2024 8 08,15:40:45.003,0.625263,-0.344711,-0.594363,-0.370071,-1.071304,-0.077614,0.019103,-8.036518,4.0249,-2.785257,0,0
4273,2024 8 08,15:40:45.011,0.625155,-0.344796,-0.593961,-0.370821,-1.065245,-0.077649,0.033743,-7.774863,5.128737,-3.604298,0,0
4274,2024 8 08,15:40:45.019,0.625088,-0.344814,-0.593589,-0.371511,-1.061999,-0.083225,0.034558,-7.700583,5.664125,-3.923636,0,0
4275,2024 8 08,15:40:45.028,0.625075,-0.344809,-0.593493,-0.371691,-1.061328,-0.084058,0.0358,-7.598676,5.835046,-4.033125,0,0
4276,2024 8 08,15:40:45.036,0.625039,-0.344756,-0.593096,-0.372433,-1.058133,-0.084856,0.041327,-7.047422,6.634038,-4.527526,0,0
4277,2024 8 08,15:40:45.044,0.625035,-0.344649,-0.592634,-0.373273,-1.04836,-0.084201,0.034579,-7.225464,7.448388,-4.762139,0,0
4278,2024 8 08,15:40:45.053,0.625064,-0.344511,-0.592143,-0.37413,-1.039987,-0.094077,0.056611,-6.838824,7.933374,-4.682575,0,0
4279,2024 8 08,15:40:45.061,0.625073,-0.344387,-0.591675,-0.374968,-1.040904,-0.090879,0.036406,-6.472724,7.23124,-4.550107,0,0
4280,2024 8 08,15:40:45.069,0.625055,-0.344292,-0.59128,-0.375708,-1.048954,-0.09718,0.029442,-6.966103,7.108445,-4.869959,0,0
4281,2024 8 08,15:40:45.078,0.625044,-0.344272,-0.59115,-0.375949,-1.049121,-0.095912,0.03064,-7.328922,7.11217,-4.935844,0,0
4282,2024 8 08,15:40:45.086,0.624992,-0.34424,-0.590713,-0.37675,-1.041786,-0.08101,0.044085,-8.904834,7.267062,-5.010142,0,0
4283,2024 8 08,15:40:45.094,0.624941,-0.344182,-0.59024,-0.37763,-1.047383,-0.092171,-0.001108,-7.977994,7.203362,-5.104087,0,0
4284,2024 8 08,15:40:45.103,0.624891,-0.344124,-0.589758,-0.378517,-1.052685,-0.114665,0.015019,-8.0999,7.190998,-4.876998,0,0
4285,2024 8 08,15:40:45.111,0.624873,-0.344027,-0.589254,-0.379419,-1.045673,-0.084204,0.039727,-7.35899,7.794095,-5.055257,0,0
4286,2024 8 08,15:40:45.119,0.624896,-0.343904,-0.588771,-0.380241,-1.037025,-0.085146,0.051753,-7.42486,8.45272,-5.017248,0,0
4287,2024 8 08,15:40:45.128,0.624906,-0.343857,-0.588604,-0.380526,-1.035124,-0.08562,0.053292,-7.293145,8.544806,-4.983412,0,0
4288,2024 8 08,15:40:45.136,0.624934,-0.34373,-0.588195,-0.381226,-1.036426,-0.087198,0.044673,-6.551423,8.115691,-4.801047,0,0
4289,2024 8 08,15:40:45.144,0.624938,-0.343641,-0.587701,-0.382062,-1.040245,-0.08632,0.040297,-7.763496,7.772148,-4.644283,0,0
4290,2024 8 08,15:40:45.153,0.624906,-0.343857,-0.588604,-0.380526,-1.041973,-0.082016,0.039486,-8.105449,7.209462,-4.628352,0,0
4291,2024 8 08,15:40:45.161,0.624876,-0.343526,-0.586706,-0.383791,-1.044934,-0.0801,0.051075,-8.997727,7.192496,-4.519362,0,0
4292,2024 8 08,15:40:45.169,0.624837,-0.343518,-0.586232,-0.384584,-1.057674,-0.06736,0.041582,-9.065709,7.113309,-4.302453,0,0
4293,2024 8 08,15:40:45.178,0.624828,-0.34351,-0.586042,-0.384896,-1.060019,-0.065981,0.040693,-9.033839,7.193649,-4.210289,0,0
4294,2024 8 08,15:40:45.186,0.624841,-0.343468,-0.585603,-0.385579,-1.054904,-0.080454,0.049491,-8.645725,7.832678,-4.000765,0,0
4295,2024 8 08,15:40:45.194,0.62486,-0.34343,-0.585063,-0.386401,-1.068875,-0.085193,0.037976,-8.337539,8.013615,-3.992592,0,0
4296,2024 8 08,15:40:45.203,0.624915,-0.343351,-0.584442,-0.387321,-1.055446,-0.084458,0.054899,-9.005897,9.45457,-4.385012,0,0
4297,2024 8 08,15:40:45.211,0.624964,-0.343264,-0.583786,-0.388307,-1.053614,-0.071055,0.037673,-8.833748,9.346267,-4.818592,0,0
4298,2024 8 08,15:40:45.219,0.625014,-0.343099,-0.582918,-0.389676,-1.052286,-0.073231,0.068175,-10.427259,10.551704,-5.610388,0,0
4299,2024 8 08,15:40:45.228,0.625014,-0.343099,-0.582918,-0.389676,-1.052278,-0.073244,0.068357,-10.436803,10.558925,-5.615131,0,0
4300,2024 8 08,15:40:45.236,0.625058,-0.342928,-0.582272,-0.390719,-1.087575,-0.094893,0.047654,-7.96633,9.794344,-6.203486,0,0
4301,2024 8 08,15:40:45.244,0.625064,-0.344511,-0.592143,-0.37413,-1.054527,-0.077585,0.03718,-9.674604,9.998868,-7.093682,0,0
4302,2024 8 08,15:40:45.253,0.625119,-0.34238,-0.581022,-0.392958,-1.076633,-0.123313,0.068633,-7.989792,12.178688,-7.594815,0,0
4303,2024 8 08,15:40:45.261,0.625201,-0.342047,-0.580221,-0.394298,-1.088392,-0.123521,0.027418,-9.064242,13.161372,-8.358177,0,0
4304,2024 8 08,15:40:45.269,0.625251,-0.341697,-0.579432,-0.39568,-1.103941,-0.078721,0.027351,-11.864706,13.736207,-8.860662,0,0
4305,2024 8 08,15:40:45.278,0.625256,-0.341665,-0.579361,-0.395804,-1.10534,-0.074689,0.027345,-12.116721,13.787936,-8.90588,0,0
4306,2024 8 08,15:40:45.286,0.625391,-0.341246,-0.578496,-0.397214,-1.077011,-0.063059,0.049778,-13.221054,16.543341,-9.665449,0,0
4307,2024 8 08,15:40:45.294,0.625532,-0.340704,-0.577623,-0.398724,-1.117581,-0.103846,0.057036,-9.731401,15.902672,-10.497327,0,0
4308,2024 8 08,15:40:45.303,0.625699,-0.340017,-0.576727,-0.400342,-1.102161,-0.100627,0.051661,-8.711499,18.129889,-12.019462,0,0
4309,2024 8 08,15:40:45.311,0.625714,-0.339231,-0.575975,-0.402065,-1.061924,-0.047998,0.04926,-11.935041,15.591254,-15.284538,0,0
4310,2024 8 08,15:40:45.319,0.625569,-0.338313,-0.575484,-0.403764,-1.154798,-0.085477,0.063613,-7.718265,13.422828,-18.32811,0,0
4311,2024 8 08,15:40:45.328,0.625546,-0.338166,-0.575405,-0.404037,-1.169742,-0.091507,0.065922,-7.039785,13.073928,-18.81782,0,0
4312,2024 8 08,15:40:45.336,0.625117,-0.337269,-0.575121,-0.40585,-1.190625,-0.064667,0.05477,-9.312542,12.217628,-23.929207,0,0
4313,2024 8 08,15:40:45.344,0.624061,-0.336152,-0.57525,-0.40821,-1.284466,-0.05506,0.049594,-11.594035,6.016773,-32.133736,0,0
4314,2024 8 08,15:40:45.353,0.622372,-0.33479,-0.575679,-0.411289,-1.351827,0.024052,0.182548,-17.128683,5.357779,-45.553596,0,0
4315,2024 8 08,15:40:45.361,0.620359,-0.332296,-0.576563,-0.415091,-1.501971,-0.002506,0.137358,-10.243913,5.368235,-62.888184,0,0
4316,2024 8 08,15:40:45.369,0.617546,-0.328962,-0.578085,-0.419791,-1.541387,0.006256,0.127774,-11.624741,6.69618,-80.437027,0,0
4317,2024 8 08,15:40:45.378,0.616922,-0.328223,-0.578422,-0.420833,-1.55012,0.008198,0.125651,-11.930674,6.990397,-84.325119,0,0
4318,2024 8 08,15:40:45.386,0.61482,-0.324037,-0.579461,-0.425682,-1.564708,-0.035727,0.080049,-6.316218,21.2941,-95.945648,0,0
4319,2024 8 08,15:40:45.394,0.612111,-0.318341,-0.58071,-0.432115,-1.54884,-0.087556,0.039511,-7.801388,26.963331,-110.060844,0,0
4320,2024 8 08,15:40:45.403,0.608732,-0.311761,-0.582193,-0.439607,-1.546338,-0.111643,-0.006328,-9.434834,28.463633,-125.309235,0,0
4321,2024 8 08,15:40:45.411,0.604645,0.202518,-0.625269,0.449898,-1.534983,-0.139977,-0.019195,-12.62203,30.010015,-140.077576,0,0
4322,2024 8 08,15:40:45.419,0.599988,-0.296461,-0.585609,-0.457276,-1.509729,-0.224101,-0.060735,-14.042697,32.009315,-153.753159,0,0
4323,2024 8 08,15:40:45.428,0.594556,-0.287796,-0.587517,-0.467326,-1.420794,-0.28694,-0.149248,-17.267538,31.335743,-168.450256,0,0
4324,2024 8 08,15:40:45.436,0.593023,-0.285351,-0.588055,-0.470161,-1.395705,-0.304667,-0.174217,-18.177277,31.145725,-172.596359,0,0
4325,2024 8 08,15:40:45.444,0.587696,-0.278203,-0.589801,-0.478824,-1.414029,-0.356228,-0.237095,-23.176876,26.013521,-182.075653,0,0
4326,2024 8 08,15:40:45.453,0.580644,-0.269688,-0.591913,-0.489518,-1.447506,-0.384071,-0.24366,-30.362436,23.557192,-190.594864,0,0
4327,2024 8 08,15:40:45.461,0.572839,-0.260738,-0.5936,-0.501336,-1.362539,-0.43866,-0.295428,-39.360703,26.689857,-195.783783,0,0
4328,2024 8 08,15:40:45.469,0.564457,-0.251775,-0.594913,-0.513688,-1.243452,-0.584927,-0.318222,-46.056519,24.365047,-198.314774,0,1
4329,2024 8 08,15:40:45.478,0.5554,-0.243768,-0.595819,-0.526204,-1.175278,-0.569922,-0.36246,-59.84589,17.082443,-192.095062,0,0
4330,2024 8 08,15:40:45.486,0.550937,-0.239822,-0.596266,-0.532373,-1.141681,-0.562527,-0.38426,-66.641418,13.493507,-189.029922,0,0
4331,2024 8 08,15:40:45.494,0.549626,-0.239048,-0.596241,-0.534069,-1.137742,-0.554987,-0.383964,-68.897942,12.43397,-187.394943,0,0
4332,2024 8 08,15:40:45.503,0.540101,-0.233557,-0.595918,-0.546426,-1.077472,-0.508264,-0.377823,-84.842117,6.307832,-176.128342,0,0
4333,2024 8 08,15:40:45.511,0.530378,-0.228962,-0.594612,-0.559165,-0.82189,-0.502972,-0.361931,-98.584824,7.671083,-168.354721,0,0
4334,2024 8 08,15:40:45.519,0.520211,-0.2259,-0.592658,-0.571886,-0.630077,-0.436658,-0.425625,-115.322395,-6.422659,-157.586731,0,0
4335,2024 8 08,15:40:45.528,0.509274,-0.225258,-0.590272,-0.58431,-0.63127,-0.358557,-0.432893,-132.430054,-25.767254,-142.0242,0,0
4336,2024 8 08,15:40:45.536,0.499366,-0.226519,-0.587517,-0.595079,-0.617097,-0.24032,-0.418392,-150.828217,-36.620632,-127.544556,0,0
4337,2024 8 08,15:40:45.544,0.497128,-0.227108,-0.586713,-0.597508,-0.617244,-0.212975,-0.414114,-155.084839,-38.334377,-123.677155,0,0
4338,2024 8 08,15:40:45.553,0.486859,-0.230928,-0.582311,-0.608672,-0.633373,-0.084658,-0.384274,-174.546555,-43.691875,-104.186295,0,0
4339,2024 8 08,15:40:45.561,0.4763,-0.236856,-0.576137,-0.620493,-0.676918,0.058744,-0.319562,-192.445892,-44.833904,-82.865303,0,0
4340,2024 8 08,15:40:45.569,0.46663,-0.244238,-0.568148,-0.632223,-0.62957,0.21937,-0.308163,-207.781097,-38.031311,-59.517147,0,0
4341,2024 8 08,15:40:45.578,0.457896,-0.252989,-0.558945,-0.643269,-0.523147,0.371446,-0.133995,-213.262756,-40.379372,-37.823967,0,0
4342,2024 8 08,15:40:45.586,0.451001,-0.261701,-0.550527,-0.651891,-0.582084,0.488108,-0.069812,-208.077347,-45.735451,-15.219423,0,0
4343,2024 8 08,15:40:45.594,0.449159,-0.264259,-0.54816,-0.65414,-0.587372,0.506927,-0.050061,-205.15213,-46.873676,-10.23414,0,0
4344,2024 8 08,15:40:45.603,0.443392,-0.27332,-0.540289,-0.660838,-0.552971,0.510483,0.015031,-188.97113,-49.88303,0.229117,0,0
4345,2024 8 08,15:40:45.611,0.43732,-0.283331,-0.53247,-0.666977,-0.479483,0.489003,0.032377,-168.73558,-58.401291,6.485826,0,0
4346,2024 8 08,15:40:45.619,0.431118,-0.293657,-0.525986,-0.671679,-0.449422,0.434735,0.03994,-148.143051,-73.971603,10.47066,0,0
4347,2024 8 08,15:40:45.628,0.424759,-0.304355,-0.521004,-0.674845,-0.501771,0.385437,0.075027,-128.905106,-89.927551,14.651144,0,0
4348,2024 8 08,15:40:45.636,0.419116,-0.314128,-0.517576,-0.67655,-0.557435,0.346523,0.096832,-113.127899,-101.648346,19.306427,0,0
4349,2024 8 08,15:40:45.644,0.417244,-0.317458,-0.516564,-0.676946,-0.578546,0.333746,0.106425,-108.10968,-105.170074,20.997368,0,0
4350,2024 8 08,15:40:45.653,0.412201,-0.326943,-0.514485,-0.677084,-0.645917,0.298856,0.143869,-95.871216,-112.519913,26.381681,0,0
4351,2024 8 08,15:40:45.661,0.406783,-0.337926,-0.512633,-0.676358,-0.703789,0.252818,0.184117,-84.639816,-117.615265,33.194141,0,0
4352,2024 8 08,15:40:45.669,0.401685,-0.349349,-0.511017,-0.674814,-0.747144,0.199672,0.206953,-76.268623,-120.587975,40.979294,0,0
4353,2024 8 08,15:40:45.678,0.397045,-0.36108,-0.509396,-0.672601,-0.80515,0.161045,0.246543,-72.122337,-121.670692,49.83247,0,0
4354,2024 8 08,15:40:45.686,0.393299,-0.371826,-0.507712,-0.670232,-0.843085,0.135256,0.266766,-71.030907,-121.075104,58.135605,0,0
4355,2024 8 08,15:40:45.694,0.391928,-0.375964,-0.507007,-0.669284,-0.857316,0.126217,0.277324,-71.071915,-120.795006,61.218845,0,0
4356,2024 8 08,15:40:45.703,0.388981,-0.386076,-0.504939,-0.66678,-0.893316,0.106692,0.314755,-73.656013,-119.944603,68.018181,0,0
4357,2024 8 08,15:40:45.711,0.385774,-0.398077,-0.502034,-0.663748,-0.955189,0.072605,0.343653,-77.795052,-119.337784,75.021576,0,0
4358,2024 8 08,15:40:45.719,0.382615,-0.410813,-0.498354,-0.660563,-1.018352,0.045564,0.370022,-83.565315,-117.32856,81.784355,0,0
4359,2024 8 08,15:40:45.728,0.37965,-0.423861,-0.493841,-0.657397,-1.074582,0.026314,0.381443,-89.818924,-113.14711,88.34433,0,0
4360,2024 8 08,15:40:45.736,0.377156,-0.435784,-0.489082,-0.654606,-1.10121,0.020052,0.384701,-95.056923,-108.265656,93.713264,0,0
4361,2024 8 08,15:40:45.744,0.376137,-0.440788,-0.48699,-0.653444,-1.111266,0.018861,0.386224,-97.06472,-106.398857,95.790375,0,0
4362,2024 8 08,15:40:45.753,0.374159,-0.451303,-0.482033,-0.651043,-1.128632,0.024097,0.389719,-100.007423,-103.584122,99.051712,0,0
4363,2024 8 08,15:40:45.761,0.371143,-0.46791,-0.473755,-0.647196,-1.175247,0.032129,0.390626,-102.568748,-100.200111,102.918968,0,0
4364,2024 8 08,15:40:45.769,0.369,-0.48086,-0.466771,-0.643996,-1.220453,0.02605,0.393962,-101.471123,-96.775444,105.636894,0,0
4365,2024 8 08,15:40:45.778,0.367155,-0.493426,-0.459601,-0.640691,-1.233361,0.01653,0.374869,-98.810089,-92.53157,107.405647,0,0
4366,2024 8 08,15:40:45.786,0.365538,-0.505662,-0.452446,-0.637155,-1.240807,-0.001839,0.36302,-94.552246,-90.801041,108.16993,0,0
4367,2024 8 08,15:40:45.794,0.365448,-0.506338,-0.452051,-0.63696,-1.241218,-0.002854,0.362365,-94.316986,-90.705421,108.212158,0,0
4368,2024 8 08,15:40:45.803,0.364087,-0.517454,-0.445546,-0.633368,-1.244827,-0.03381,0.359186,-89.153183,-90.475029,107.655548,0,0
4369,2024 8 08,15:40:45.811,0.362724,-0.528978,-0.438925,-0.629234,-1.287486,-0.071653,0.337303,-83.323837,-91.00769,106.286072,0,0
4370,2024 8 08,15:40:45.819,0.361437,-0.540123,-0.432507,-0.624935,-1.30894,-0.112664,0.332615,-79.017776,-88.284645,103.926262,0,0
4371,2024 8 08,15:40:45.828,0.360147,-0.55073,-0.426243,-0.62071,-1.277348,-0.159121,0.315806,-76.30246,-84.934937,99.650185,0,0
4372,2024 8 08,15:40:45.836,0.358542,-0.560972,-0.420298,-0.616506,-1.271876,-0.211657,0.306177,-75.131226,-86.332939,93.531006,0,0
4373,2024 8 08,15:40:45.844,0.358331,-0.562319,-0.419517,-0.615953,-1.271157,-0.218563,0.304911,-74.977264,-86.516708,92.726631,0,0
4374,2024 8 08,15:40:45.853,0.356473,-0.571021,-0.414572,-0.612348,-1.333679,-0.287531,0.250758,-75.830734,-86.182495,87.255714,0,0
4375,2024 8 08,15:40:45.861,0.353945,-0.580398,-0.40893,-0.608773,-1.349418,-0.354278,0.227769,-81.400612,-80.845154,80.668915,0,0
4376,2024 8 08,15:40:45.869,0.350679,-0.589559,-0.402969,-0.605826,-1.303854,-0.403027,0.229994,-90.798752,-76.65274,72.557732,0,0
4377,2024 8 08,15:40:45.878,0.346376,-0.598587,-0.3968,-0.603512,-1.25741,-0.418728,0.260895,-101.662941,-76.460648,63.306549,0,0
4378,2024 8 08,15:40:45.886,0.34088,-0.607714,-0.390508,-0.601614,-1.26285,-0.416565,0.297165,-112.977188,-80.141624,55.22683,0,0
4379,2024 8 08,15:40:45.894,0.334421,-0.616909,-0.383929,-0.600108,-1.314533,-0.39914,0.341376,-123.89122,-79.801605,49.873867,0,0
4380,2024 8 08,15:40:45.903,0.33309,-0.618804,-0.382573,-0.599797,-1.325188,-0.395547,0.350491,-126.141174,-79.731506,48.77034,0,0
4381,2024 8 08,15:40:45.911,0.327131,-0.626159,-0.376681,-0.599151,-1.315046,-0.375922,0.396567,-132.658524,-74.014412,44.856564,0,0
4382,2024 8 08,15:40:45.919,0.319896,-0.634206,-0.369593,-0.598989,-1.263222,-0.359583,0.45313,-137.943985,-65.882858,39.45903,0,0
4383,2024 8 08,15:40:45.928,0.312208,-0.641984,-0.362186,-0.599276,-1.243715,-0.343976,0.479269,-140.10289,-60.3885,34.605453,0,0
4384,2024 8 08,15:40:45.936,0.304383,-0.649296,-0.354637,-0.599935,-1.29244,-0.382737,0.47981,-140.719177,-52.549568,31.514727,0,0
4385,2024 8 08,15:40:45.944,0.296688,-0.65574,-0.346676,-0.60143,-1.209084,-0.432778,0.47743,-143.256454,-37.045914,29.162598,0,0
4386,2024 8 08,15:40:45.953,0.294682,-0.65742,-0.3446,-0.601819,-1.187357,-0.445822,0.476809,-143.917816,-33.004776,28.549498,0,0
4387,2024 8 08,15:40:45.961,0.288458,-0.66177,-0.337862,-0.603864,-1.065898,-0.422623,0.466451,-147.214401,-23.879375,24.782722,0,0
4388,2024 8 08,15:40:45.969,0.280824,-0.66655,-0.330047,-0.6065,-1.023196,-0.3877,0.475394,-148.258514,-21.697292,18.439693,0,0
4389,2024 8 08,15:40:45.978,0.272675,-0.671059,-0.32223,-0.609433,-1.011017,-0.303515,0.468667,-145.377762,-17.252157,11.519287,0,0
4390,2024 8 08,15:40:45.986,0.264648,-0.674899,-0.314777,-0.612615,-0.957147,-0.21767,0.48199,-138.161209,-10.511839,5.880439,0,0
4391,2024 8 08,15:40:45.994,0.257219,-0.677991,-0.307996,-0.61581,-0.881107,-0.168997,0.481625,-124.519104,-5.753729,2.083855,0,0
4392,2024 8 08,15:40:46.003,0.254929,-0.678944,-0.305906,-0.616795,-0.857675,-0.153999,0.481513,-120.315186,-4.287482,0.913908,0,0
4393,2024 8 08,15:40:46.011,0.249952,-0.680786,-0.301566,-0.618932,-1.527183,-0.343748,0.314309,-104.386787,-5.51134,-1.141636,0,0
4394,2024 8 08,15:40:46.019,0.244611,-0.682371,-0.298336,-0.620883,-1.36972,-0.636165,1.32156,-97.252907,10.577874,-18.288992,0,0
4395,2024 8 08,15:40:46.028,0.241403,-0.682613,-0.296242,-0.62289,-1.220529,-0.813546,1.472132,-88.095726,21.390713,-27.357433,0,0
4396,2024 8 08,15:40:46.036,0.2369,-0.679376,-0.292461,-0.629905,-0.807141,-0.81474,-0.492787,-58.447487,37.544159,-27.788826,1,0
4397,2024 8 08,15:40:46.044,0.230906,-0.680223,-0.287957,-0.633289,-1.01964,0.418475,0.817551,-82.372314,28.053373,-5.780298,0,0
4398,2024 8 08,15:40:46.053,0.231501,-0.678534,-0.286169,-0.635692,-1.015862,0.138809,0.2192,-7.679466,36.061749,6.992981,0,0
4399,2024 8 08,15:40:46.061,0.231886,-0.678149,-0.286088,-0.635999,-1.035039,0.093761,0.147963,0.441134,36.840397,7.421001,0,0
4400,2024 8 08,15:40:46.069,0.234272,-0.675942,-0.28614,-0.637449,-1.15156,-0.089862,-0.081231,24.456867,38.8741,4.093981,0,0
4401,2024 8 08,15:40:46.078,0.235239,-0.673615,-0.28615,-0.639548,-1.109764,-0.012057,0.090088,3.961775,36.267406,-9.111721,0,0
4402,2024 8 08,15:40:46.086,0.235713,-0.67129,-0.286561,-0.641631,-1.05186,0.018379,0.020062,10.242151,31.224686,-14.213734,0,0
4403,2024 8 08,15:40:46.094,0.237183,-0.669087,-0.28825,-0.642633,-1.01913,-0.15578,-0.004644,28.391102,22.387478,-11.783231,0,0
4404,2024 8 08,15:40:46.103,0.238337,-0.667463,-0.289609,-0.643284,-0.999531,-0.163843,0.086948,21.582783,19.157749,-8.699059,0,0
4405,2024 8 08,15:40:46.111,0.238608,-0.667078,-0.289874,-0.643464,-0.997535,-0.160566,0.090157,20.166563,18.652637,-7.808657,0,0
4406,2024 8 08,15:40:46.119,0.239595,-0.665753,-0.290586,-0.644147,-1.00221,-0.131522,0.029224,16.994255,17.61632,-4.099813,0,0
4407,2024 8 08,15:40:46.128,0.240951,-0.664475,-0.291377,-0.644603,-1.016786,-0.117819,-0.026863,19.07235,14.97084,-0.327139,0,0
4408,2024 8 08,15:40:46.136,0.242372,-0.663363,-0.29197,-0.644948,-1.037776,-0.118132,-0.029071,16.718878,14.041788,2.672288,0,0
4409,2024 8 08,15:40:46.144,0.243771,-0.662392,-0.292328,-0.645256,-1.040279,-0.142398,-0.052292,14.93794,12.756502,4.556417,0,0
4410,2024 8 08,15:40:46.153,0.244869,-0.66175,-0.292513,-0.645416,-1.02715,-0.073814,-0.016123,12.446792,9.76169,5.113511,0,0
4411,2024 8 08,15:40:46.161,0.245181,-0.661582,-0.292573,-0.645443,-1.024561,-0.06523,-0.009921,11.572161,8.527539,5.03105,0,0
4412,2024 8 08,15:40:46.169,0.245923,-0.661278,-0.292756,-0.645389,-1.022202,-0.095507,-0.01047,8.663963,3.533894,3.71635,0,0
4413,2024 8 08,15:40:46.178,0.246389,-0.661273,-0.292944,-0.645131,-1.013284,-0.116452,0.008862,6.209159,-2.043031,2.631072,0,0
4414,2024 8 08,15:40:46.186,0.246473,-0.661606,-0.293169,-0.644655,-1.017788,-0.101452,0.013214,3.461915,-8.400524,0.93101,0,0
4415,2024 8 08,15:40:46.194,0.246217,-0.662268,-0.293533,-0.643907,-1.018362,-0.03999,0.026345,-0.024493,-14.009536,-0.907629,0,0
4416,2024 8 08,15:40:46.203,0.245869,-0.663049,-0.293861,-0.643086,-1.027656,-0.056455,-0.025111,-1.968325,-16.266811,-0.639746,0,0
4417,2024 8 08,15:40:46.211,0.245719,-0.66336,-0.293976,-0.64277,-1.030852,-0.05783,-0.0358,-2.709332,-17.183578,-0.536335,0,0
4418,2024 8 08,15:40:46.219,0.245214,-0.664303,-0.294262,-0.641857,-1.035927,-0.043565,-0.024842,-4.308885,-19.873371,-0.23612,0,0
4419,2024 8 08,15:40:46.228,0.244618,-0.665481,-0.294634,-0.640692,-1.031525,-0.059301,-0.021007,-3.317601,-22.141186,0.140504,0,0
4420,2024 8 08,15:40:46.236,0.243973,-0.666797,-0.295027,-0.639386,-1.049107,-0.080688,-0.025564,-2.570658,-23.759352,0.414739,0,0
4421,2024 8 08,15:40:46.244,0.243284,-0.668129,-0.295381,-0.638093,-1.073059,-0.083026,-0.060984,-2.805604,-23.214003,0.304715,0,0
4422,2024 8 08,15:40:46.253,0.242615,-0.669304,-0.295666,-0.636985,-1.075597,-0.077218,-0.062726,-3.574267,-22.133951,-0.206468,0,0
4423,2024 8 08,15:40:46.261,0.242341,-0.669767,-0.295777,-0.636552,-1.076172,-0.075303,-0.061878,-3.849205,-21.714802,-0.398885,0,0
4424,2024 8 08,15:40:46.269,0.241713,-0.670724,-0.296011,-0.635673,-1.074968,-0.157704,0.007026,-4.131629,-20.900087,-0.800467,0,0
4425,2024 8 08,15:40:46.278,0.24098,-0.671773,-0.296319,-0.634699,-1.074502,-0.079657,-0.047516,-3.559844,-20.147461,-1.620007,0,0
4426,2024 8 08,15:40:46.286,0.240183,-0.672801,-0.29669,-0.633738,-1.080973,-0.081282,-0.058867,-2.899951,-19.611572,-2.819615,0,0
4427,2024 8 08,15:40:46.294,0.238984,-0.674139,-0.297276,-0.632495,-1.066477,-0.076188,-0.077103,-3.416605,-18.55747,-4.938254,0,0
4428,2024 8 08,15:40:46.303,0.238032,-0.675074,-0.297818,-0.631601,-1.059247,-0.089121,-0.046462,-3.597748,-18.794477,-5.423224,0,0
4429,2024 8 08,15:40:46.311,0.238015,-0.675091,-0.297827,-0.631585,-1.059119,-0.08935,-0.045918,-3.600965,-18.798685,-5.431836,0,0
4430,2024 8 08,15:40:46.319,0.237107,-0.67593,-0.298295,-0.630809,-1.057719,-0.094474,-0.066367,-3.48479,-17.403469,-5.315835,0,0
4431,2024 8 08,15:40:46.328,0.236206,-0.676727,-0.298722,-0.630089,-1.054446,-0.103879,-0.079696,-3.994897,-15.562518,-4.966722,0,0
4432,2024 8 08,15:40:46.336,0.235315,-0.677484,-0.299034,-0.629461,-1.040699,-0.111675,-0.063794,-4.703197,-14.434875,-4.324627,0,0
4433,2024 8 08,15:40:46.344,0.234468,-0.678204,-0.299232,-0.628907,-1.037901,-0.10424,-0.067513,-5.534616,-13.238558,-3.219911,0,0
4434,2024 8 08,15:40:46.353,0.233644,-0.67891,-0.299316,-0.628411,-1.038973,-0.102275,-0.069592,-6.100756,-12.476059,-2.684809,0,0
4435,2024 8 08,15:40:46.361,0.232828,-0.679614,-0.299356,-0.627934,-1.048168,-0.102945,-0.070665,-6.42774,-12.183555,-2.360924,0,0
4436,2024 8 08,15:40:46.369,0.232736,-0.679693,-0.299361,-0.627881,-1.0492,-0.10302,-0.070786,-6.464437,-12.150727,-2.324575,0,0
4437,2024 8 08,15:40:46.378,0.232,-0.680297,-0.299373,-0.627494,-1.061116,-0.09503,-0.080484,-6.784739,-11.56779,-2.583175,0,0
4438,2024 8 08,15:40:46.386,0.231164,-0.680903,-0.299334,-0.627163,-1.054013,-0.093113,-0.084294,-7.970526,-9.930933,-2.826017,0,0
4439,2024 8 08,15:40:46.394,0.230294,-0.681439,-0.29924,-0.626946,-1.045999,-0.102258,-0.080757,-8.45269,-8.255131,-3.169214,0,0
4440,2024 8 08,15:40:46.403,0.229406,-0.681918,-0.299092,-0.62682,-1.05201,-0.104921,-0.082219,-9.237046,-7.281606,-3.071902,0,0
4441,2024 8 08,15:40:46.411,0.228558,-0.682294,-0.298933,-0.626797,-1.061015,-0.099781,-0.101236,-8.421412,-5.219935,-3.604516,0,0
4442,2024 8 08,15:40:46.419,0.228405,-0.682362,-0.298905,-0.626793,-1.062635,-0.098856,-0.104656,-8.274724,-4.849154,-3.700304,0,0
4443,2024 8 08,15:40:46.428,0.227718,-0.682572,-0.298815,-0.626856,-1.062164,-0.103742,-0.102192,-8.344166,-3.756679,-4.253839,0,0
4444,2024 8 08,15:40:46.436,0.226912,-0.682722,-0.298685,-0.627047,-1.05784,-0.10472,-0.082088,-8.454192,-1.711612,-4.845263,0,0
