frame,date,time,quaternion_x_left,quaternion_y_left,quaternion_z_left,quaternion_w_left,accel_x_left,accel_y_left,accel_z_left,gyro_x_left,gyro_y_left,gyro_z_left,HS_left,TO_left,filtered_quaternion_x_left,filtered_quaternion_y_left,filtered_quaternion_z_left,filtered_quaternion_w_left,filtered_accel_x_left,filtered_accel_y_left,filtered_accel_z_left,filtered_gyro_x_left,filtered_gyro_y_left,filtered_gyro_z_left,quaternion_x_right,quaternion_y_right,quaternion_z_right,quaternion_w_right,accel_x_right,accel_y_right,accel_z_right,gyro_x_right,gyro_y_right,gyro_z_right,HS_right,TO_right,filtered_quaternion_x_right,filtered_quaternion_y_right,filtered_quaternion_z_right,filtered_quaternion_w_right,filtered_accel_x_right,filtered_accel_y_right,filtered_accel_z_right,filtered_gyro_x_right,filtered_gyro_y_right,filtered_gyro_z_right
7911,2024 10 17,09:01:05.914,-0.464219,-0.489104,0.471659,-0.568169,-1.18656,0.04297,0.00586,-4.882813,-10.864258,-98.632813,0,0,-0.464219,-0.489104,0.471659,-0.568169,-1.18656,0.04297,0.00586,-4.882813,-10.864258,-98.632813,-0.107515,0.389049,0.411866,0.816975,-0.867702,0.184088,-0.313974,29.968262,-106.994629,325.073242,0,0,-0.107515,0.389049,0.411866,0.816975,-0.867702,0.184088,-0.313974,29.968262,-106.994629,325.073242
7912,2024 10 17,09:01:05.922,-0.459914,-0.484135,0.475667,-0.572567,-1.230018,0.04297,0.010743,-4.455566,-14.221191,-102.478027,0,0,-0.46400375,-0.4888555499999999,0.4718593999999999,-0.5683889,-1.1887329,0.0429699999999999,0.00610415,-4.861450649999999,-11.03210465,-98.8250737,-0.127022,0.40902,0.403255,0.808674,-0.942412,0.123539,-0.264168,16.357422,-121.948242,320.556641,0,0,-0.10849035,0.3900475499999999,0.41143545,0.81655995,-0.8714374999999999,0.18106055,-0.3114837,29.28772,-107.74230965,324.8474119499999
7913,2024 10 17,09:01:05.930,-0.455663,-0.478628,0.479428,-0.577439,-1.133824,-0.025391,0.026856,-3.112793,-22.827148,-106.201172,0,0,-0.4635867124999999,-0.4883441724999999,0.4722378299999999,-0.5688414049999999,-1.1859874549999998,0.0395519499999999,0.0071417424999999,-4.774017767499999,-11.6218568175,-99.193878615,-0.144894,0.42938,0.393679,0.799785,-1.002472,0.105472,-0.256844,2.441406,-134.216309,312.255859,0,0,-0.1103105325,0.3920141725,0.4105476274999999,0.8157212025,-0.8779892249999999,0.1772811224999999,-0.308751715,27.9454043,-109.0660096175,324.2178343024999
7914,2024 10 17,09:01:05.939,-0.455663,-0.478628,0.479428,-0.577439,-1.133824,-0.025391,0.026856,-3.112793,-22.827148,-106.201172,0,0,-0.4631905268749999,-0.4878583638749999,0.4725973384999999,-0.5692712847499999,-1.1833792822499998,0.0363048024999999,0.0081274553749999,-4.690956529125,-12.182121376625,-99.54424328425,-0.161116,0.450102,0.383355,0.790246,-1.185095,0.094241,-0.166021,-9.460449,-146.54541,303.344727,0,0,-0.112850805875,0.3949185638749999,0.4091879961249999,0.8144474423749999,-0.8933445137499999,0.1731291163749999,-0.3016151792499999,26.075111635,-110.93997963662498,323.1741789373749
7915,2024 10 17,09:01:05.947,-0.451171,-0.472955,0.483022,-0.582621,-1.106967,-0.084475,0.095218,0.732422,-22.155762,-108.459473,0,0,-0.4625895505312499,-0.4871131956812499,0.4731185715749999,-0.5699387705124999,-1.1795586681375,0.0302658123749999,0.0124819826062499,-4.41978760266875,-12.68080340779375,-99.99000477003749,-0.161116,0.450102,0.383355,0.790246,-1.185095,0.094241,-0.166021,-9.460449,-146.54541,303.344727,0,0,-0.1152640655812499,0.3976777356812499,0.4078963463187499,0.8132373702562499,-0.9079320380625,0.1691847105562499,-0.2948354702874999,24.29833360325,-112.72025115479371,322.1827063405061
7916,2024 10 17,09:01:05.955,-0.446343,-0.467517,0.486421,-0.587878,-1.132847,-0.091311,0.06299,6.164551,-22.155762,-108.032227,0,0,-0.4617772230046874,-0.4861333858971874,0.4737836929962499,-0.5708357319868748,-1.1772230847306249,0.0241869717562499,0.0150073834759374,-3.890570672535312,-13.154551337404062,-100.3921158815356,-0.175985,0.470808,0.372343,0.780211,-1.373089,0.104984,-0.064455,-20.080566,-151.977539,295.837402,0,0,-0.1183001123021874,0.4013342488971874,0.4061186790028124,0.8115860517434373,-0.9311898861593748,0.1659746750284374,-0.2833164467731249,22.079388623087496,-114.68311554705404,320.8654411234808
7917,2024 10 17,09:01:05.964,-0.441366,-0.462102,0.48935,-0.59346,-1.097201,-0.127934,0.059084,11.413574,-25.146484,-108.276367,0,0,-0.460756661854453,-0.484931816602328,0.4745620083464373,-0.5719669453875309,-1.1732219804940935,0.0165809231684374,0.0172112143021406,-3.125363438908546,-13.754147970533856,-100.78632843745882,-0.190048,0.491112,0.360531,0.769875,-1.488815,0.135746,0.001465,-28.686523,-150.817871,293.09082,0,0,-0.1218875066870781,0.405823136452328,0.4038392950526717,0.8095004991562654,-0.9590711418514062,0.1644632412770156,-0.2690773744344686,19.54109304193312,-116.48985331970133,319.4767100673067
7918,2024 10 17,09:01:05.972,-0.436307,-0.456837,0.491757,-0.59926,-1.070833,-0.126957,0.110355,17.578125,-27.22168,-105.46875,0,0,-0.4595341787617303,-0.4835270757722116,0.4754217579291155,-0.5733315981181543,-1.1681025314693887,0.0094040270100156,0.0218684035870335,-2.0901890169631185,-14.427524572007163,-101.02044951558588,-0.203841,0.510926,0.347842,0.759216,-1.581591,0.136235,0.06006,-34.545898,-147.338867,295.532227,0,0,-0.1259851813527241,0.4110782796297116,0.4010394303000381,0.8069862741984521,-0.990197134758836,0.1630518292131648,-0.2526205057127452,16.83674348983646,-118.03230400371623,318.27948591394136
7919,2024 10 17,09:01:05.980,-0.43127,-0.451985,0.493495,-0.605127,-1.036164,0.063478,0.163579,26.000977,-28.808594,-98.999023,0,0,-0.4581209698236438,-0.481949971983601,0.4763254200326597,-0.5749213682122466,-1.1615056048959191,0.0121077256595148,0.0289539334076819,-0.6856307161149624,-15.146578043406803,-100.91937818980658,-0.217565,0.530246,0.334197,0.748209,-1.638234,0.129887,0.081545,-40.771484,-143.859863,299.926758,0,0,-0.1305641722850879,0.417036665648226,0.3976973087850362,0.8040474104885295,-1.022598978020894,0.1613935877525065,-0.2359122304271079,13.956332115344637,-119.32368195353044,317.3618495182443
7920,2024 10 17,09:01:05.989,-0.43127,-0.451985,0.493495,-0.605127,-1.036164,0.063478,0.163579,26.000977,-28.808594,-98.999023,0,0,-0.4567784213324616,-0.4804517233844209,0.4771838990310267,-0.5764316498016343,-1.1552385246511232,0.014676239376539,0.0356851867372978,0.6486996696907857,-15.829678841236465,-100.82336043031626,-0.231107,0.549228,0.319738,0.736686,-1.717826,0.099124,0.088382,-46.020508,-143.310547,303.222656,0,0,-0.1355913136708335,0.4236462323658148,0.3937993433457844,0.8006793399641029,-1.0573603291198492,0.1582801083648812,-0.2196975189057524,10.957490109577405,-120.52302520585393,316.65488984233207
7921,2024 10 17,09:01:05.997,-0.427046,-0.447448,0.494359,-0.610763,-1.024934,0.162603,0.109378,25.024414,-36.254883,-85.327148,0,0,-0.4552918002658385,-0.4788015372151998,0.4780426540794753,-0.5781482173115526,-1.1487232984185671,0.0220725774077121,0.0393698274004329,1.8674853862062464,-16.85093904917464,-100.04854980880044,-0.231107,0.549228,0.319738,0.736686,-1.717826,0.099124,0.088382,-46.020508,-143.310547,303.222656,0,0,-0.1403670979872918,0.429925320747524,0.3900962761784952,0.7974796729658977,-1.0903836126638566,0.1553223029466371,-0.2042935429604648,8.108590204098531,-121.6624012955612,315.9832781502155
7922,2024 10 17,09:01:06.005,-0.423958,-0.443015,0.494249,-0.616211,-0.923856,0.337901,0.206549,26.245117,-44.86084,-71.777344,0,0,-0.4537251102525465,-0.4770122103544398,0.4788529713755015,-0.5800513564459749,-1.1374799334976389,0.0378639985373265,0.0477287860304112,3.0863669668959344,-18.251434096715908,-98.6349895183604,-0.244194,0.567845,0.304639,0.724649,-1.812067,0.07178,0.06885,-51.452637,-144.226074,302.91748,0,0,-0.1455584430879272,0.4368213047101478,0.3858234123695704,0.7938381393176027,-1.126467782030664,0.1511451877993052,-0.1906363658124416,5.130528843893604,-122.79058493078314,315.3299882427047
7923,2024 10 17,09:01:06.014,-0.421714,-0.438973,0.493572,-0.621165,-0.77102,0.397473,0.209967,23.254395,-46.142578,-59.448242,0,0,-0.4521245547399191,-0.4751102498367178,0.4795889228067264,-0.5821070386236761,-1.1191569368227567,0.0558444486104602,0.0558406967288907,4.094768368551137,-19.64599129188011,-96.6756521424424,-0.25654,0.586111,0.289203,0.712055,-1.918027,0.032716,0.068361,-56.091309,-147.033691,298.828125,0,0,-0.1511075209335309,0.4442857894746405,0.3809923917510919,0.7897489823517225,-1.1660457429291309,0.14522372840934,-0.1776864975218195,2.069436951698924,-124.00274023424396,314.50489508056944
7924,2024 10 17,09:01:06.022,-0.420195,-0.435539,0.492908,-0.625127,-0.606952,0.407727,0.300302,17.63916,-36.621094,-44.494629,0,0,-0.4505280770029231,-0.4731316873448819,0.48025487666639,-0.5842580366924923,-1.0935466899816189,0.0734385761799372,0.0680637618924461,4.771987950123581,-20.494746427286103,-94.06660098532026,-0.26798,0.603893,0.273651,0.69901,-2.024964,-0.005371,0.073733,-59.997559,-148.193359,292.175293,0,0,-0.1569511448868543,0.4522661500009084,0.3756253221635373,0.7852120332341364,-1.208991655782674,0.137693991988873,-0.1651155226457285,-1.0339128458860227,-125.21227117253176,313.38841497654096
7925,2024 10 17,09:01:06.030,-0.418991,-0.4339,0.492481,-0.627407,-0.693381,0.493179,0.2378,11.413574,-16.540527,-25.878906,0,0,-0.4489512231527769,-0.4711701029776378,0.4808661828330705,-0.5864154848578677,-1.073538405482538,0.0944255973709403,0.0765505737978238,5.104067252617402,-20.2970354559218,-90.65721623605424,-0.278473,0.621126,0.258139,0.68558,-2.101138,-0.067385,0.090335,-63.354492,-150.390625,284.301758,0,0,-0.1630272376425116,0.460709142500863,0.3697510060553605,0.7802304315724294,-1.2535989729935402,0.1274400423894293,-0.1523429965134421,-4.149941803591721,-126.47118886390518,311.9340821277139
7926,2024 10 17,09:01:06.039,-0.418991,-0.4339,0.492481,-0.627407,-0.693381,0.493179,0.2378,11.413574,-16.540527,-25.878906,0,0,-0.447453211995138,-0.4693065978287559,0.481446923691417,-0.5884650606149743,-1.054530535208411,0.1143632675023933,0.0846130451079326,5.419542589986532,-20.10921003312571,-87.41830072425154,-0.28803,0.637773,0.242905,0.671775,-2.141179,-0.143559,0.101077,-64.147949,-152.34375,274.841309,0,0,-0.169277375760386,0.4695623353758198,0.3634087057525924,0.7748076599938079,-1.2979779743438633,0.1138900902699578,-0.13967199668777,-7.149842163412135,-127.76481692070992,310.0794434713282
7927,2024 10 17,09:01:06.047,-0.418365,-0.432908,0.492213,-0.62872,-0.70217,0.542497,0.288583,6.103516,-11.535645,-16.662598,0,0,-0.4459988013953812,-0.4674866679373181,0.4819852275068461,-0.5904778075842255,-1.0369125084479902,0.1357699541272736,0.094811542852536,5.453741260487205,-19.680531781469423,-83.88051558803896,-0.28803,0.637773,0.242905,0.671775,-2.141179,-0.143559,0.101077,-64.147949,-152.34375,274.841309,0,0,-0.1752150069723667,0.4779728686070288,0.3573835204649628,0.7696560269941175,-1.3401380256266702,0.1010176357564599,-0.1276345468533815,-9.999747505241528,-128.9937635746744,308.3175367477618
7928,2024 10 17,09:01:06.055,-0.41797,-0.432351,0.492424,-0.629199,-0.674337,0.545427,0.24366,-1.037598,-3.356934,-12.084961,0,0,-0.444597361325612,-0.4657298845404521,0.4825071661315038,-0.5924138672050142,-1.0187837330255909,0.1562528064209099,0.1022539657099092,5.1291742974628445,-18.86435189239595,-80.290737858637,-0.296623,0.653864,0.228297,0.657538,-2.183661,-0.242683,0.122074,-62.866211,-157.104492,263.183594,0,0,-0.1812854066237484,0.4867674251766773,0.3509291944417146,0.7640501256444115,-1.3823141743453369,0.0838326039686369,-0.1151491195107124,-12.643070679979452,-130.39929999594068,306.06083961037365
7929,2024 10 17,09:01:06.064,-0.417821,-0.432099,0.49305,-0.628982,-0.623554,0.545915,0.252937,-8.117676,3.662109,-6.713867,0,0,-0.4432585432593314,-0.4640483403134295,0.4830343078249286,-0.5942422738447635,-0.999022246374311,0.1757359160998644,0.1097881174244137,4.466831782589702,-17.73802884777615,-76.61189431570514,-0.30426,0.669452,0.214556,0.642826,-2.220771,-0.36671,0.129887,-60.36377,-162.963867,251.037598,0,0,-0.187434136292561,0.4959016539178434,0.3441105347196289,0.7579889193621909,-1.4242370156280697,0.0613054737702051,-0.1028973135351768,-15.02910564598048,-132.02752834614364,303.309677529855
7930,2024 10 17,09:01:06.072,-0.417902,-0.432466,0.494066,-0.627878,-0.623554,0.558611,0.255867,-13.977051,13.061523,1.525879,0,0,-0.4419907160963648,-0.4624692232977581,0.4835858924336821,-0.5959240601525252,-0.9802488340555954,0.1948796702948712,0.117092061553193,3.5446376434602174,-16.19805125538734,-72.70500564991988,-0.311158,0.684626,0.201443,0.627606,-2.219794,-0.49855,0.099612,-59.020996,-167.785645,244.445801,0,0,-0.1936203294779329,0.5053378712219513,0.3369771579836474,0.7514697733940814,-1.4640148648466662,0.0333127000816948,-0.0927718478584179,-17.228700163681452,-133.81543417883643,300.36648370336223
7931,2024 10 17,09:01:06.080,-0.418294,-0.433542,0.4953,-0.625899,-0.655293,0.571795,0.238289,-17.944336,21.66748,10.925293,0,0,-0.4408058802915466,-0.4610228621328701,0.484171597811998,-0.5974228071448989,-0.9640010423528156,0.2137254367801276,0.1231519084755334,2.4701889612872066,-14.304774692617972,-68.52349071742388,-0.317598,0.699522,0.188739,0.611702,-2.189032,-0.720237,0.139164,-56.945801,-174.560547,241.394043,0,0,-0.1998192130040363,0.5150470776608537,0.329565250084465,0.7444813847243773,-1.500265721604333,-0.0043647849223899,-0.081175055465497,-19.21455520549738,-135.85268981989464,297.4178616681941
7932,2024 10 17,09:01:06.089,-0.418294,-0.433542,0.4953,-0.625899,-0.655293,0.571795,0.238289,-17.944336,21.66748,10.925293,0,0,-0.4396802862769692,-0.4596488190262266,0.4847280179213981,-0.598846616787654,-0.9485656402351746,0.2316289149411212,0.1289087630517567,1.449462713222846,-12.506161957987072,-64.55105153155269,-0.323381,0.71412,0.176667,0.595186,-2.11774,-1.084506,0.236335,-55.480957,-181.945801,233.337402,0,0,-0.2059973023538344,0.5250007237778109,0.3219203375802418,0.7370166154881584,-1.5311394355241164,-0.0583718456762704,-0.0652995526922222,-21.027875295222508,-138.1573453788999,294.2138386847844
7933,2024 10 17,09:01:06.097,-0.419114,-0.435224,0.496564,-0.623176,-0.677267,0.551286,0.219245,-21.484375,26.367188,20.751953,0,0,-0.4386519719631208,-0.4584275780749152,0.4853198170253281,-0.6000630859482714,-0.935000708223416,0.2476117691940652,0.1334255748991689,0.3027708275617036,-10.562494460087716,-60.28590130497505,-0.323381,0.71412,0.176667,0.595186,-2.11774,-1.084506,0.236335,-55.480957,-181.945801,233.337402,0,0,-0.2118664872361427,0.5344566875889204,0.3146576707012297,0.7299250847137505,-1.5604694637479106,-0.1096785533924568,-0.050217825057611,-22.75052938046138,-140.34676815995488,291.17001685054515
7934,2024 10 17,09:01:06.105,-0.420315,-0.437415,0.497739,-0.619887,-0.684591,0.519059,0.204596,-23.132324,30.517578,29.35791,0,0,-0.4377351233649647,-0.4573769491711694,0.4859407761740618,-0.6010542816508577,-0.9224802228122452,0.2611841307343619,0.1369840961542104,-0.8689839138163815,-8.508490837083329,-55.8037107397263,-0.327927,0.728426,0.165999,0.57819,-2.017151,-1.468795,0.396985,-53.771973,-193.908691,213.500977,0,0,-0.2176695128743355,0.5441551532094744,0.3072247371661681,0.722338330478063,-1.583303540560515,-0.177634375722834,-0.0278576838047305,-24.30160156143831,-143.0248643019571,287.28656485801787
7935,2024 10 17,09:01:06.114,-0.421734,-0.440172,0.498786,-0.616118,-0.707541,0.50441,0.203131,-22.888184,35.03418,37.04834,0,0,-0.4369350671967165,-0.4565167017126109,0.4865830373653587,-0.6018074675683148,-0.9117332616716328,0.2733454241976438,0.1402914413464999,-1.9699439181255625,-6.331357295229163,-51.16110820273998,-0.330621,0.742489,0.157905,0.560773,-1.823786,-1.800348,0.777367,-49.438477,-211.730957,179.443359,0,0,-0.2233170872306187,0.5540718455490006,0.2997587503078597,0.7142600639541599,-1.5953276635324891,-0.2587700569366923,0.0124035503855059,-25.558445333366397,-146.46016893685925,281.89440456511693
7936,2024 10 17,09:01:06.122,-0.423351,-0.443437,0.499638,-0.611963,-0.738304,0.481948,0.192877,-21.850586,38.391113,44.006348,0,0,-0.4362558638368806,-0.4558627166269803,0.4872357854970907,-0.602315244189899,-0.9030617985880512,0.2837755529877616,0.1429207192791749,-2.9639760222192844,-4.095233780467705,-46.40273539260298,-0.331358,0.756172,0.153307,0.54305,-1.581591,-2.10065,1.283242,-40.405273,-230.712891,137.756348,0,0,-0.2287191328690878,0.5641768532715505,0.2924361627924667,0.7056995607564519,-1.5946408303558646,-0.3508640540898577,0.0759454728662307,-26.300786716698077,-150.67280504001627,274.68750173686107
7937,2024 10 17,09:01:06.130,-0.425083,-0.447231,0.500234,-0.607498,-0.761254,0.467788,0.187017,-19.897461,41.748047,50.90332,0,0,-0.4356972206450366,-0.4554311307956313,0.4878856962222362,-0.602574381980404,-0.8959714086586485,0.2929761753383735,0.1451255333152161,-3.81065027110832,-1.8030697414443195,-41.53743262297282,-0.330772,0.769248,0.152301,0.525025,-1.483444,-2.496658,1.843318,-25.390625,-247.558594,101.928711,0,0,-0.2338217762256334,0.574430410607973,0.2854294046528434,0.6966658327186293,-1.5890809888380713,-0.4581537513853649,0.1643140992229191,-26.25527863086317,-155.51709448801546,266.04956220001804
7938,2024 10 17,09:01:06.139,-0.425083,-0.447231,0.500234,-0.607498,-0.761254,0.467788,0.187017,-19.897461,41.748047,50.90332,0,0,-0.4351665096127847,-0.4550211242558497,0.4885031114111243,-0.6028205628813837,-0.8892355382257161,0.3017167665714548,0.1472201066494553,-4.614990807552903,0.3744860956278966,-36.91539499182418,-0.329924,0.781087,0.154,0.507284,-1.906796,-2.895596,2.23542,-6.469727,-243.95752,78.00293,0,0,-0.2386268874143517,0.5847632400775743,0.2788579344202012,0.6871967410826977,-1.6049667393961675,-0.5800258638160967,0.2678693942617732,-25.26600104932001,-159.9391157636147,256.6472305900171
7939,2024 10 17,09:01:06.147,-0.42694,-0.451588,0.500536,-0.602706,-0.792993,0.465346,0.186041,-17.456055,45.410156,58.349609,0,0,-0.4347551841321454,-0.4548494680430572,0.4891047558405681,-0.6028148347373146,-0.8844234113144303,0.309898228242882,0.1491611513169825,-5.257044017175258,2.626269590846502,-32.15214479223297,-0.329924,0.781087,0.154,0.507284,-1.906796,-2.895596,2.23542,-6.469727,-243.95752,78.00293,0,0,-0.2431917430436341,0.5945794280736956,0.2726150376991911,0.6782011040285627,-1.6200582024263597,-0.6958043706252918,0.3662469245486845,-24.32618734685401,-164.14003597543396,247.71501556051624
7940,2024 10 17,09:01:06.155,-0.428935,-0.456529,0.500498,-0.597576,-0.832545,0.45851,0.181158,-14.648438,48.522949,66.101074,0,0,-0.4344641749255381,-0.4549334446409043,0.4896744180485397,-0.6025528930004488,-0.8818294907487088,0.3173288168307379,0.1507609937511334,-5.726613716316495,4.921103561304177,-27.23948385262132,-0.329854,0.789647,0.156975,0.492964,-2.47615,-3.148045,2.415113,15.136719,-185.180664,54.382324,0,0,-0.2475248558914524,0.6043328066700108,0.2668330358142316,0.6689392488271345,-1.6628627923050414,-0.8184164020940272,0.4686902283212503,-22.353042029511307,-165.1920673766623,238.0483809824904
7941,2024 10 17,09:01:06.164,-0.431096,-0.462023,0.500076,-0.592128,-0.863308,0.45851,0.170904,-12.084961,51.269531,73.974609,0,0,-0.4342957661792612,-0.4552879224088591,0.4901944971461127,-0.6020316483504263,-0.8809034162112733,0.324387875989201,0.1517681440635767,-6.04453108050067,7.238524933238969,-22.178779209990253,-0.326906,0.794969,0.160106,0.485307,-11.271829,-5.361003,-0.286142,-53.100586,-127.624512,-12.939453,0,0,-0.2514939130968798,0.6138646163365102,0.26149668402352,0.6597576363857777,-2.1433111026897893,-1.0455457319893258,0.4309486169051877,-23.89041922803574,-163.31368960782913,225.4989892833659
7942,2024 10 17,09:01:06.172,-0.433385,-0.468083,0.499332,-0.586296,-0.912625,0.465835,0.149419,-10.253906,55.053711,81.604004,0,0,-0.4342502278702981,-0.4559276762884162,0.490651372288807,-0.6012448659329049,-0.8824894954007096,0.3314602321897409,0.1516506868603979,-6.254999826475636,9.62928423657702,-16.98964004949074,-0.316041,0.791635,0.173819,0.493172,-4.132938,-4.967437,3.572375,33.813477,152.404785,-191.711426,0,0,-0.2547212674420357,0.6227531355196847,0.257112799822344,0.6514283545664887,-2.2427924475553,-1.2416402953898595,0.5880199360599284,-21.00522441663395,-147.52776587743767,204.6384685191976
7943,2024 10 17,09:01:06.180,-0.435863,-0.47458,0.498271,-0.580107,-0.954131,0.474624,0.133793,-9.216309,56.82373,88.623047,0,0,-0.4343308664767831,-0.4568602924739953,0.4910323536743667,-0.6001879726362597,-0.8860715706306741,0.3386184205802539,0.150757802517378,-6.403065285151854,11.989006524748168,-11.7090056970162,-0.303083,0.770166,0.174791,0.533323,0.172857,-0.368176,-1.734428,-121.398926,481.018066,-245.056152,1,0,-0.2571393540699339,0.6301237787437005,0.2529967098312267,0.6455230868381643,-2.1220099751775345,-1.1979670806203666,0.4718975392569319,-26.02490949580225,-116.1004742835658,182.15373749323768
7944,2024 10 17,09:01:06.189,-0.435863,-0.47458,0.498271,-0.580107,-0.954131,0.474624,0.133793,-9.216309,56.82373,88.623047,0,0,-0.434407473152944,-0.4577462778502955,0.4913942859906484,-0.5991839240044468,-0.8894745420991403,0.3454186995512411,0.1499095623915091,-6.543727470894261,14.230742698510756,-6.692403062165387,-0.289324,0.759236,0.179783,0.554554,-0.475112,1.522996,-0.309091,-78.552246,105.529785,-216.491699,0,0,-0.2587485863664372,0.6365793898065155,0.2493360243396654,0.6409746324962561,-2.039665076418657,-1.0619189265893485,0.4328481122940853,-28.65127632101214,-105.0189613193875,162.2214656685758
7945,2024 10 17,09:01:06.197,-0.438596,-0.481361,0.496951,-0.573555,-0.979522,0.477065,0.106449,-9.82666,57.922363,94.970703,0,0,-0.4346168994952967,-0.4589270139577807,0.4916721216911159,-0.5979024778042243,-0.8939769149941833,0.3520010145736791,0.1477365342719336,-6.707874097349547,16.415323713585217,-1.6092477590571177,-0.276463,0.753249,0.18765,0.566544,-0.475112,1.522996,-0.309091,-78.552246,105.529785,-216.491699,0,0,-0.2596343070481153,0.6424128703161898,0.2462517231226821,0.6372531008714433,-1.9614374225977247,-0.9326731802598808,0.395751156679381,-31.146324804961534,-94.49152400341812,143.285807435147
7946,2024 10 17,09:01:06.205,-0.44157,-0.488336,0.495461,-0.566624,-0.997589,0.465346,0.099612,-11.535645,59.387207,100.341797,0,0,-0.4349645545205319,-0.4603974632598916,0.4918615656065601,-0.5963385539140131,-0.8991575192444742,0.3576682638449951,0.1453303075583369,-6.949262642482069,18.563917877905958,3.488304478895739,-0.276463,0.753249,0.18765,0.566544,-1.954161,0.680197,0.843287,-47.729492,132.69043,-204.406738,0,0,-0.2604757416957096,0.6479546768003802,0.243321636966548,0.633717645827871,-1.9610736014678385,-0.8520296712468866,0.418127948845412,-31.975483164713456,-83.1324263032472,125.90118016338964
7947,2024 10 17,09:01:06.214,-0.444727,-0.495478,0.493889,-0.559279,-1.02298,0.448256,0.081545,-13.73291,61.584473,105.041504,0,0,-0.4354526767945053,-0.4621514900968971,0.4919629373262321,-0.5944855762183124,-0.9053486432822504,0.3621976506527453,0.1421410421804201,-7.288445010357965,20.71494563401065,8.565964454950953,-0.272167,0.7388,0.195845,0.584589,-1.024934,-0.144047,-0.058596,47.119141,196.838379,-180.236816,0,0,-0.2610603046109241,0.6524969429603611,0.2409478051182206,0.6312612135364775,-1.9142666213944464,-0.8166305376845422,0.3942917514031414,-28.02075195647778,-69.13388603808482,110.59428035522016
7948,2024 10 17,09:01:06.222,-0.44808,-0.502729,0.492276,-0.551499,-1.050813,0.436048,0.082034,-16.662598,63.598633,109.49707,0,0,-0.43608404295478,-0.4641803655920522,0.4919785904599205,-0.5923362474073968,-0.9126218611181378,0.365890168120108,0.1391356900713991,-7.7571526598400675,22.85913000231012,13.612519732203404,-0.27201,0.726875,0.205783,0.596085,-1.740776,-0.408704,0.563982,75.500488,145.690918,-131.591797,0,0,-0.2616077893803779,0.656215845812343,0.2391895648623095,0.6295024028596535,-1.905592090324724,-0.796234210800315,0.4027762638329842,-22.84468995865389,-58.39264583618058,98.48497648745916
7949,2024 10 17,09:01:06.230,-0.451622,-0.510003,0.490687,-0.543287,-1.101108,0.416028,0.059572,-20.263672,64.880371,112.609863,0,0,-0.4368609408070409,-0.4664714973124496,0.4919140109369244,-0.5898837850370269,-0.9220461680622308,0.3683970597141026,0.1351575055678291,-8.382478626848064,24.96019205219461,18.562386895593235,-0.273704,0.714051,0.20965,0.609314,-1.213416,-0.005371,-0.454604,51.086426,189.941406,-74.401855,0,0,-0.262212599911359,0.6591076035217258,0.2377125866191941,0.6284929827166709,-1.870983285808488,-0.7566910502602993,0.359907250641335,-19.148134160721195,-45.97594324437155,89.84063491308618
7950,2024 10 17,09:01:06.239,-0.451622,-0.510003,0.490687,-0.543287,-1.101108,0.416028,0.059572,-20.263672,64.880371,112.609863,0,0,-0.4375989937666889,-0.4686480724468271,0.4918526603900782,-0.5875539457851755,-0.9309992596591192,0.3707786067283975,0.1313782302894376,-8.97653829550566,26.956200999584883,23.26476070081357,-0.278661,0.703026,0.213675,0.618422,-1.036164,0.200201,0.116703,92.407227,140.441895,-48.88916,0,0,-0.263035019915791,0.6613035233456395,0.2365107072882343,0.6279894335808374,-1.8292423215180635,-0.7088464477472842,0.3477470381092682,-13.570366102685137,-36.65505133215297,82.90414516743186
7951,2024 10 17,09:01:06.247,-0.455381,-0.517127,0.489082,-0.534796,-1.126011,0.380383,0.061037,-23.681641,64.208984,114.807129,0,0,-0.4384880940783545,-0.4710720188244857,0.4917141273705742,-0.5849160484959167,-0.9407498466761632,0.3712588263919776,0.1278611687749657,-9.711793430730378,28.81884014960564,27.84187911577289,-0.28621,0.691828,0.218569,0.625848,-1.104038,-0.152348,-0.125492,114.440918,145.141602,-32.714844,0,0,-0.2641937689200014,0.6628297471783575,0.2356136219238226,0.6278823619017955,-1.79298210544216,-0.68102152535992,0.3240850862038048,-7.169801897550877,-27.56521866554532,77.12319570906027
7952,2024 10 17,09:01:06.255,-0.459346,-0.524125,0.487422,-0.526037,-1.141636,0.350597,0.066408,-26.550293,63.720703,117.553711,0,0,-0.4395309893744367,-0.4737246678832613,0.4914995210020454,-0.5819720960711208,-0.950794154342355,0.3702257350723787,0.1247885103362174,-10.553718409193856,30.563933292125355,32.32747070998425,-0.28621,0.691828,0.218569,0.625848,-1.104038,-0.152348,-0.125492,114.440918,145.141602,-32.714844,0,0,-0.2652945804740013,0.6642796598194397,0.2347613908276315,0.6277806438067056,-1.758534900170052,-0.6545878490919239,0.3016062318936146,-1.089265902673333,-18.92987763226805,71.63129372360726
7953,2024 10 17,09:01:06.264,-0.463487,-0.531015,0.485633,-0.517073,-1.168981,0.302744,0.055177,-28.137207,62.255859,119.934082,0,0,-0.4407287899057149,-0.4765891844890982,0.4912061949519432,-0.5787271412675646,-0.9617034966252372,0.3668516483187597,0.1213079348194065,-11.432892838734164,32.148529577519085,36.70780127448504,-0.293292,0.680965,0.222072,0.633206,-0.971709,-0.060549,-0.169927,91.796875,138.73291,-26.000977,0,0,-0.2666944514503012,0.6651139268284677,0.2341269212862499,0.6280519116163703,-1.7191936051615493,-0.6248859066373277,0.2780295702989338,3.5550411424603343,-11.046738250654649,66.74968018742689
7954,2024 10 17,09:01:06.272,-0.46772,-0.537755,0.48368,-0.508046,-1.173864,0.249519,0.051271,-28.564453,60.913086,121.09375,0,0,-0.4420783504104291,-0.4796474752646433,0.490829885204346,-0.5751930842041864,-0.9723115217939752,0.3609850159028218,0.1178060880784362,-12.289470846797457,33.58675739864313,40.92709871076078,-0.299075,0.671676,0.224869,0.639406,-1.047395,0.062502,-0.086917,79.89502,117.919922,-22.460938,0,0,-0.2683134788777861,0.6654420304870443,0.2336640252219374,0.6286196160355517,-1.6856036749034715,-0.5905165113054612,0.2597822417839871,7.372040085337318,-4.598405238121916,62.28914927805555
7955,2024 10 17,09:01:06.280,-0.471839,-0.544449,0.481623,-0.498981,-1.190954,0.205573,0.051759,-27.526855,61.157227,121.21582,0,0,-0.4435663828899077,-0.4828875515014111,0.4903695409441286,-0.5713824799939771,-0.9832436457042764,0.3532144151076807,0.1145037336745144,-13.051340054457585,34.96528087871097,44.94153477522274,-0.305056,0.662814,0.22751,0.64487,-0.964385,-0.006348,0.065432,81.787109,111.938477,-15.991211,0,0,-0.2701506049338968,0.6653106289626921,0.2333563239608405,0.6294321352337741,-1.649542741158298,-0.5613080857401882,0.2500647296947877,11.092793531070452,1.2284388737841807,58.37513126415276
7956,2024 10 17,09:01:06.289,-0.475758,-0.551103,0.479478,-0.489939,-1.224158,0.163579,0.034181,-25.634766,61.462402,120.483398,0,0,-0.4451759637454122,-0.4862983239263405,0.4898249638969222,-0.5673103059942781,-0.9952893634190626,0.3437326443522966,0.1104875969907887,-13.680511351734705,36.29013693477542,48.7186279364616,-0.310322,0.65507,0.229619,0.649507,-0.826685,-0.096194,0.12891,62.988281,92.285156,-13.000488,0,0,-0.2721591746872019,0.6647985975145575,0.2331694577627985,0.6304358784720854,-1.6083998541003832,-0.5380523814531788,0.2440069932100483,13.68756790451693,5.781274730094971,54.80635030094512
7957,2024 10 17,09:01:06.297,-0.475758,-0.551103,0.479478,-0.489939,-1.224158,0.163579,0.034181,-25.634766,61.462402,120.483398,0,0,-0.4467050655581416,-0.4895385577300235,0.4893076157020761,-0.5634417406945641,-1.0067327952481095,0.3347249621346818,0.1066722671412492,-14.27822408414797,37.54875018803664,52.306866439638526,-0.313144,0.649838,0.230947,0.652927,-0.864772,0.02002,0.109378,35.766602,58.166504,-14.282227,0,0,-0.2742084159528418,0.6640505676388296,0.2330583348746586,0.6315604345484811,-1.571218461395364,-0.5101487623805198,0.2372755435495459,14.791519609291084,8.400536193590224,51.35192143589786
7958,2024 10 17,09:01:06.305,-0.479475,-0.557666,0.477218,-0.481015,-1.240761,0.107425,0.008301,-23.498535,60.72998,119.07959,0,0,-0.4483435622802345,-0.4929449298435223,0.4887031349169722,-0.5593204036598359,-1.018434205485704,0.3233599640279477,0.1017537037841868,-14.73923962994057,38.707811678634805,55.6455026176566,-0.313144,0.649838,0.230947,0.652927,-0.864772,0.02002,0.109378,35.766602,58.166504,-14.282227,0,0,-0.2761551951551997,0.6633399392568882,0.2329527681309256,0.6326287628210571,-1.5358961383255956,-0.4836403242614938,0.2308806663720686,15.840273728826528,10.888834583910713,48.07021401410296
7959,2024 10 17,09:01:06.314,-0.482954,-0.564104,0.474864,-0.472277,-1.250526,0.025391,-0.006836,-20.935059,59.692383,117.126465,0,0,-0.4500740841662228,-0.4965028833513462,0.4880111781711236,-0.5549682334768442,-1.0300387952114187,0.3084615158265503,0.0963242185949774,-15.049030598443542,39.75704024470306,58.71955073677377,-0.31467,0.646466,0.232112,0.655125,-0.946318,0.056642,0.086917,23.071289,36.987305,-13.85498,0,0,-0.2780809353974397,0.6624962422940437,0.2329107297243793,0.6337535746800043,-1.5064172314093158,-0.4566262080484191,0.2236824830534652,16.2018244923852,12.193758104715174,44.97395431339781
7960,2024 10 17,09:01:06.322,-0.486214,-0.570432,0.472351,-0.463776,-1.24369,-0.056154,-0.026368,-17.944336,57.922363,115.722656,0,0,-0.4518810799579116,-0.5001993391837789,0.4872281692625674,-0.550408621803002,-1.040721355450848,0.2902307400352227,0.0901896076652286,-15.193795868521365,40.66530638246791,61.56970599993508,-0.315426,0.644035,0.233109,0.6568,-0.964385,0.067385,0.06006,14.282227,26.245117,-14.709473,0,0,-0.2799481886275677,0.6615731801793415,0.2329206432381604,0.634905895946004,-1.47931561983885,-0.4304256476459981,0.2155013589007919,16.10584461776594,12.896326049479416,41.98978294772792
7961,2024 10 17,09:01:06.330,-0.489252,-0.576663,0.469638,-0.455557,-1.244667,-0.1377,-0.050783,-14.587402,55.480957,114.257813,0,0,-0.453749625960016,-0.50402252222459,0.486348660799439,-0.5456660407128519,-1.0509186376783055,0.2688342030334616,0.0831409772819671,-15.163476175095296,41.40608891334452,64.20411134993833,-0.31544,0.642335,0.23399,0.658143,-1.004425,0.075686,0.031251,6.896973,17.39502,-16.235352,0,0,-0.2817227791961893,0.6606112711703744,0.2329741110762523,0.6360677511487037,-1.4555710888469076,-0.4051200652636981,0.2062888409557523,15.64540103687764,13.121260747005444,39.07852620034152
7962,2024 10 17,09:01:06.339,-0.49218,-0.582671,0.466662,-0.447749,-1.224158,-0.211921,-0.072756,-11.413574,50.292969,112.548828,0,0,-0.4556711446620152,-0.5079549461133605,0.4853643277594671,-0.5407701886772092,-1.0595806057943902,0.2447964428817885,0.0753461284178688,-14.97598106634053,41.850432917677296,66.62134718244141,-0.315111,0.640983,0.234852,0.659311,-1.07181,0.056642,-0.020508,6.347656,15.075684,-16.662598,0,0,-0.2833921902363798,0.6596298576118557,0.2330680055224397,0.6372299135912686,-1.4363830344045625,-0.3820319620005132,0.1949489989079647,15.180513785033758,13.21898190965517,36.29146999032444
7963,2024 10 17,09:01:06.347,-0.49218,-0.582671,0.466662,-0.447749,-1.224158,-0.211921,-0.072756,-11.413574,50.292969,112.548828,0,0,-0.4574965874289144,-0.5116907488076924,0.4844292113714937,-0.5361191292433487,-1.0678094755046708,0.221960570737699,0.0679410219969753,-14.797860713023503,42.27255972179344,68.91772122331933,-0.314697,0.639508,0.235605,0.660671,-1.063509,0.089358,-0.002441,3.234863,18.798828,-17.63916,0,0,-0.2849574307245608,0.6586237647312628,0.2331948552463177,0.6384019679117051,-1.417739332684334,-0.3584624639004875,0.1850794989625664,14.58323124578207,13.49797421417241,33.59493849080822
7964,2024 10 17,09:01:06.355,-0.495033,-0.588466,0.463427,-0.440325,-1.202673,-0.279794,-0.087405,-9.643555,45.959473,111.083984,0,0,-0.4593734080574687,-0.5155295113673077,0.4833791008029189,-0.5313294227811812,-1.0745526517294373,0.1968728422008141,0.0601737208971266,-14.540145427372329,42.45690538570376,71.02603436215337,-0.314697,0.639508,0.235605,0.660671,-1.063509,0.089358,-0.002441,3.234863,18.798828,-17.63916,0,0,-0.2864444091883328,0.6576679764946997,0.2333153624840018,0.6395154195161198,-1.4000278160501172,-0.3360714407054631,0.1757034740144381,14.015812833492966,13.76301690346379,31.033233566267803
7965,2024 10 17,09:01:06.364,-0.497839,-0.593909,0.459932,-0.433463,-1.164098,-0.314951,-0.097171,-6.835938,38.330078,107.299805,0,0,-0.4612966876545952,-0.5194484857989423,0.4822067457627729,-0.5264361016421222,-1.0790299191429653,0.1712816500907734,0.0523064848522702,-14.15493505600371,42.25056401641857,72.8397228940457,-0.314362,0.637845,0.236283,0.662193,-1.05179,0.06006,0.004883,4.760742,21.362305,-17.211914,0,0,-0.2878402887289162,0.6566768276699646,0.2334637443598017,0.6406492985403137,-1.3826159252476111,-0.31626486867019,0.1671624503137162,13.553059291818316,14.1429813082906,28.62097618795441
7966,2024 10 17,09:01:06.372,-0.500633,-0.598907,0.456311,-0.42715,-1.11185,-0.352062,-0.098148,-5.493164,32.653809,102.722168,0,0,-0.4632635032718655,-0.5234214115089952,0.4809119584746343,-0.5214717965600161,-1.080670923185817,0.1451144675862347,0.0447837606096567,-13.721846503203524,41.77072626559764,74.33384514934342,-0.314154,0.636074,0.236878,0.663781,-1.026399,0.070803,0.041993,5.79834,23.071289,-15.930176,0,0,-0.2891559742924703,0.6556466862864664,0.2336344571418116,0.641805883613298,-1.3648050789852308,-0.2969114752366804,0.1609039777980304,13.165323327227402,14.589396692876068,26.393418578556687
7967,2024 10 17,09:01:06.380,-0.503355,-0.603522,0.452706,-0.42125,-1.099643,-0.378918,-0.112796,-5.493164,28.747559,98.144531,0,0,-0.4652680781082722,-0.5274264409335455,0.4795016605509026,-0.5164607067320153,-1.081619527026526,0.1189128442069229,0.0369047725791739,-13.310412378043344,41.11956790231776,75.52437944187625,-0.314122,0.634303,0.237457,0.665283,-0.990753,0.051271,0.066897,6.103516,21.66748,-14.221191,0,0,-0.2904042755778468,0.6545795019721431,0.233825584284721,0.6429797394326332,-1.3461024750359691,-0.2795023514748463,0.1562036289081289,12.812232960866032,14.943300858232265,24.36268809962885
7968,2024 10 17,09:01:06.389,-0.506079,-0.607685,0.449179,-0.415742,-1.09183,-0.412122,-0.129398,-6.958008,23.925781,93.017578,0,0,-0.4673086242028585,-0.5314393688868683,0.4779855275233574,-0.5114247713954145,-1.0821300506751996,0.0923611019965768,0.0285896339502152,-12.992792159141178,40.259878557201866,76.39903936978243,-0.313984,0.632804,0.237987,0.666584,-1.003937,0.052248,0.044435,3.90625,18.005371,-13.427734,0,0,-0.2915832617989545,0.6534907268735359,0.2340336550704849,0.6441599524610014,-1.328994201284171,-0.262914833901104,0.1506151974627224,12.36693381282273,15.096404365320648,22.473166994647407
7969,2024 10 17,09:01:06.397,-0.506079,-0.607685,0.449179,-0.415742,-1.09183,-0.412122,-0.129398,-6.958008,23.925781,93.017578,0,0,-0.4692471429927156,-0.5352516504425249,0.4765452011471895,-0.5066406328256439,-1.0826150481414396,0.0671369468967479,0.0206902522527044,-12.69105295118412,39.44317367934177,77.2299663012933,-0.31362,0.631529,0.238444,0.667801,-0.981964,0.037599,0.051759,1.342773,15.319824,-13.977051,0,0,-0.2926850987090068,0.6523926405298591,0.2342541723169606,0.6453420048379512,-1.311642691219962,-0.2478891422060488,0.1456723875895863,11.815725772181592,15.107575347054617,20.65065609491504
7970,2024 10 17,09:01:06.405,-0.508896,-0.611224,0.445773,-0.410751,-1.072298,-0.444349,-0.1377,-9.643555,17.211914,86.242676,0,0,-0.4712295858430798,-0.5390502679203986,0.47500659108983,-0.5018461511843616,-1.0820991957343675,0.0415626495519105,0.0127707396400692,-12.538678053624912,38.33161069537468,77.68060178622864,-0.31362,0.631529,0.238444,0.667801,-0.981964,0.037599,0.051759,1.342773,15.319824,-13.977051,0,0,-0.2937318437735564,0.6513494585033661,0.2344636637011126,0.6464649545960536,-1.295158756658964,-0.2336147350957463,0.140976718210107,11.292078133572511,15.118187779701884,18.91927074016928
7971,2024 10 17,09:01:06.414,-0.511836,-0.614108,0.442552,-0.406255,-1.025422,-0.492691,-0.159185,-12.573242,11.962891,79.772949,0,0,-0.4732599065509258,-0.5428031545243786,0.4733838615353385,-0.4970665936251435,-1.079265335947649,0.014849967074315,0.0041729526580657,-12.540406250943663,37.013174710605945,77.7852191469172,-0.312928,0.630562,0.238834,0.668899,-0.975127,0.044923,0.059084,-2.441406,10.864258,-14.892578,0,0,-0.2946916515848786,0.6503100855781977,0.2346821805160569,0.6475866568662509,-1.2791571688260155,-0.219687848340959,0.1368820822996016,10.605403926893889,14.905491290716787,17.22867830316082
7972,2024 10 17,09:01:06.422,-0.514849,-0.616442,0.439587,-0.402111,-0.991241,-0.551775,-0.15772,-15.930176,7.995605,73.608398,0,0,-0.4753393612233795,-0.5464850967981596,0.4716940184585715,-0.4923188139438863,-1.0748641191502666,-0.0134812812794007,-0.0039216949748375,-12.70989473839648,35.56229622507565,77.57637808957134,-0.311892,0.629908,0.239223,0.669859,-0.976592,0.057131,0.059572,-5.493164,7.080078,-16.174316,0,0,-0.2955516690056347,0.6492899812992877,0.2349092214902541,0.6487002740229383,-1.2640289103847149,-0.205846905923911,0.1330165781846215,9.800475530549193,14.514220626180949,15.558528588002778
7973,2024 10 17,09:01:06.430,-0.517885,-0.618134,0.436958,-0.398463,-0.967803,-0.652852,-0.154302,-18.554688,3.479004,64.758301,0,0,-0.4774666431622105,-0.5500675419582516,0.469957217535643,-0.4876260232466919,-1.0695110631927531,-0.0454498172154307,-0.0114407102260956,-13.002134401476656,33.95813161382186,76.93547423509277,-0.310647,0.629416,0.239604,0.670764,-0.974151,0.057131,0.062014,-6.896973,5.187988,-17.150879,0,0,-0.2963064355553529,0.6482962822343233,0.2351439604157414,0.6498034603217913,-1.249535014865479,-0.1926980106277155,0.1294664492753904,8.965603104021733,14.0479089948719,13.923058208602638
7974,2024 10 17,09:01:06.439,-0.520648,-0.619251,0.434823,-0.395452,-0.943388,-0.753929,-0.155278,-18.493652,1.037598,53.283691,0,0,-0.4796257110040999,-0.553526714860339,0.4682005066588608,-0.4830173220843573,-1.0632049100331151,-0.0808737763546591,-0.0186325747147908,-13.276710281402824,32.31210493313077,75.75288507333813,-0.309347,0.628969,0.240058,0.671621,-0.971221,0.053224,0.08594,-6.652832,4.211426,-17.700195,0,0,-0.2969584637775853,0.6473299181226071,0.2353896623949543,0.6508943373057017,-1.235619314122205,-0.1804019100963297,0.1272901268116209,8.184681348820646,13.556084845128304,12.341895548172506
7975,2024 10 17,09:01:06.447,-0.520648,-0.619251,0.434823,-0.395452,-0.943388,-0.753929,-0.155278,-18.493652,1.037598,53.283691,0,0,-0.4816768254538949,-0.556812929117322,0.4665316313259177,-0.4786390559801394,-1.0572140645314596,-0.1145265375369262,-0.0254648459790513,-13.537557367332685,30.74837958647423,74.62942536967122,-0.308025,0.628584,0.240577,0.672402,-0.987335,0.043947,0.054201,-6.225586,2.685547,-17.700195,0,0,-0.2975117905887059,0.6463926222164768,0.2356490292752066,0.6519697204404166,-1.2232050984160945,-0.1691844645915132,0.1236356704710398,7.464167981379614,13.012557952871887,10.83979102076388
7976,2024 10 17,09:01:06.455,-0.522976,-0.619872,0.433236,-0.393144,-0.953154,-0.845729,-0.15479,-17.150879,-0.793457,41.19873,0,0,-0.4837417841812002,-0.5599658826614559,0.4648668497596218,-0.4743643031811324,-1.0520110613048863,-0.1510866606600799,-0.0319311036800987,-13.718223448966048,29.17128775715052,72.95789060118767,-0.308025,0.628584,0.240577,0.672402,-0.987335,0.043947,0.054201,-6.225586,2.685547,-17.700195,0,0,-0.2980374510592706,0.6455021911056529,0.2358954278114462,0.6529913344183957,-1.2114115934952896,-0.1585278913619375,0.1201639369474878,6.779680282310633,12.496207405228292,9.412791719725686
7977,2024 10 17,09:01:06.464,-0.524897,-0.619923,0.43211,-0.391739,-0.980987,-0.93997,-0.144047,-14.953613,-5.859375,27.954102,0,0,-0.4857995449721401,-0.562963738528383,0.4632290072716407,-0.4702330380220758,-1.0484598582396425,-0.1905308276270758,-0.0375368984960938,-13.779992926517744,27.419754619292988,70.70770117112828,-0.306684,0.628241,0.241096,0.67315,-1.017121,0.039064,0.031739,-6.347656,2.868652,-17.578125,0,0,-0.2984697785063071,0.6446391315503702,0.2361554564208739,0.653999267697476,-1.201697063820525,-0.1486482967938407,0.1157426901001134,6.123313468195101,12.014829634966878,8.0632458837394
7978,2024 10 17,09:01:06.472,-0.526314,-0.619437,0.431386,-0.391404,-0.988311,-1.030305,-0.130375,-10.864258,-10.559082,14.465332,0,0,-0.4878252677235331,-0.5657874016019638,0.4616368569080586,-0.4662915861209719,-1.04545241532766,-0.232519536245722,-0.0421788035712891,-13.634206180191857,25.52081278832834,67.89558271257187,-0.305407,0.627739,0.241552,0.674035,-1.016144,0.051759,0.056154,-6.286621,5.981445,-17.63916,0,0,-0.2988166395809917,0.6437941249728517,0.2364252835998302,0.6550010543126021,-1.1924194106294987,-0.1386279319541486,0.1127632555951077,5.5028167447853455,11.713160403218534,6.778125589552429
7979,2024 10 17,09:01:06.480,-0.527163,-0.618512,0.431019,-0.392129,-1.050325,-1.099155,-0.092776,-5.737305,-15.930176,1.281738,0,0,-0.4897921543373564,-0.5684236315218656,0.4601059640626557,-0.4625834568149233,-1.045696044561277,-0.275851309433436,-0.0447086633927246,-13.239361121182265,23.44826334891192,64.56489047694328,-0.304272,0.627071,0.242059,0.674987,-1.012726,0.047853,0.068361,-3.90625,7.568359,-17.700195,0,0,-0.2990894076019421,0.6429579687242091,0.2367069694198387,0.656000351596972,-1.183434740098024,-0.1293038853564412,0.1105431428153524,5.032363407546078,11.505920333057606,5.554209560074807
7980,2024 10 17,09:01:06.489,-0.527476,-0.616967,0.430919,-0.394245,-1.238319,-1.172887,-0.045412,0.427246,-24.719238,-15.319824,0,0,-0.4916763466204885,-0.5708507999457723,0.4586466158595229,-0.4591665339741771,-1.0553271923332133,-0.3207030939617642,-0.0447438302230884,-12.556030765123149,21.03988828146632,60.57065475309611,-0.303265,0.626261,0.242663,0.675975,-1.016633,0.045412,0.079592,-1.831055,8.850098,-18.005371,0,0,-0.299298187221845,0.6421231202879986,0.2370047709488467,0.6569990840171234,-1.1750946530931226,-0.1205680910886191,0.1089955856745847,4.689192487168774,11.373129216404724,4.376230532071067
7981,2024 10 17,09:01:06.497,-0.527476,-0.616967,0.430919,-0.394245,-1.238319,-1.172887,-0.045412,0.427246,-24.719238,-15.319824,0,0,-0.4934663292894641,-0.5731566099484836,0.4572602350665467,-0.4559204572754682,-1.0644767827165524,-0.363312289263676,-0.0447772387119339,-11.906866926866993,18.75193196739301,56.7761308154413,-0.302388,0.625304,0.243335,0.677011,-0.997589,0.038087,0.086917,-0.427246,10.437012,-18.127441,0,0,-0.2994526778607528,0.6412821642735986,0.2373212824014044,0.6579996798162672,-1.1662193704384662,-0.1126353365341882,0.1078916563908555,4.433370562810335,11.326323355584488,3.2510469554675137
7982,2024 10 17,09:01:06.505,-0.516695,-0.616922,0.437397,-0.401394,-1.389203,-0.983428,-2.019104,114.074707,69.458008,-184.570313,1,0,-0.4946277628249909,-0.5753448794510594,0.4562670733132194,-0.4531941344116948,-1.0807130935807248,-0.3943180748004922,-0.1434935767763372,-5.60778823052364,21.287235769023354,44.70880862466923,-0.302388,0.625304,0.243335,0.677011,-0.997589,0.038087,0.086917,-0.427246,10.437012,-18.127441,0,0,-0.2995994439677151,0.6404832560599186,0.2376219682813342,0.6589502458254538,-1.1577878519165428,-0.1050992197074787,0.1068429235713127,4.190339734669818,11.281857787805263,2.1821225576941377
7983,2024 10 17,09:01:06.514,-0.514239,-0.607309,0.43542,-0.420884,-0.548845,0.223151,2.477615,84.899902,-192.565918,-169.372559,0,0,-0.4956083246837413,-0.5769430854785064,0.4552247196475584,-0.45157862769111,-1.0541196889016884,-0.3634446210604675,-0.0124381479375204,-1.0824037189974582,10.594578080572184,34.00474024343577,-0.301552,0.624282,0.244055,0.678068,-0.978545,0.013672,0.098148,0.0,10.498047,-18.188477,0,0,-0.2996970717693294,0.6396731932569227,0.2379436198672674,0.6599061335341811,-1.1488257093207157,-0.0991606587221048,0.1064081773927471,3.980822747936327,11.242667248415,1.1635925798094306
7984,2024 10 17,09:01:06.522,-0.504273,-0.604123,0.438296,-0.434327,-1.33549,1.056185,-1.615283,72.387695,-23.864746,-152.282715,0,0,-0.4960415584495541,-0.578302081204581,0.4543782836651804,-0.4507160463065545,-1.0681882044566038,-0.2924631400074441,-0.0925803905406443,2.591101216952415,8.871611876543575,24.69036748126398,-0.300614,0.623398,0.244725,0.679055,-0.93704,0.031251,0.121586,-1.281738,8.422852,-17.822266,0,0,-0.2997429181808629,0.6388594335940765,0.2382826888739041,0.660863576857472,-1.1382364238546798,-0.0926400757859995,0.1071670685231097,3.717694710539511,11.101676485994249,0.2142996508189589
7985,2024 10 17,09:01:06.530,-0.502367,-0.594992,0.439917,-0.447309,-1.023469,0.6592,1.39555,23.925781,-123.168945,-145.324707,0,0,-0.4963578305270764,-0.579136577144352,0.4536552194819214,-0.4505456939912268,-1.0659522442337737,-0.2448799830070719,-0.0181738710136121,3.657835206104794,2.2695840327163967,16.18961375720078,-0.299632,0.622735,0.245454,0.679834,-0.993194,0.030274,0.091311,-1.159668,4.150391,-17.63916,0,0,-0.2997373722718198,0.6380532119143727,0.2386412544302089,0.6618120980145983,-1.130984302661946,-0.0864943719966996,0.1063742650969542,3.4738265750125352,10.754112211694537,-0.678373331721989
7986,2024 10 17,09:01:06.539,-0.501181,-0.585337,0.444909,-0.45635,-1.429731,0.000977,-0.677755,-48.828125,-79.711914,-139.831543,0,0,-0.4965989890007226,-0.5794465982871343,0.4532179085078253,-0.4508359092916654,-1.0841411820220848,-0.2325871338567183,-0.0511529274629315,1.0335371957995545,-1.829490868919423,8.38855591934074,-0.298715,0.622036,0.246307,0.680568,-1.00589,0.043947,0.11475,1.159668,5.92041,-17.578125,0,0,-0.2996862536582288,0.637252351318654,0.2390245417086984,0.6627498931138683,-1.1247295875288486,-0.0799723033968646,0.1067930518421065,3.358118646261908,10.512427101109813,-1.5233609151358896
7987,2024 10 17,09:01:06.547,-0.501181,-0.585337,0.444909,-0.45635,-1.429731,0.000977,-0.677755,-48.828125,-79.711914,-139.831543,0,0,-0.4968280895506864,-0.5797411183727775,0.452802463082434,-0.4511116138270821,-1.1014206729209803,-0.2209089271638824,-0.0824830310897849,-1.4595459139904234,-5.723612025473452,0.9775509733737016,-0.29794,0.621236,0.247255,0.681295,-0.9888,0.053713,0.101077,2.685547,5.065918,-17.76123,0,0,-0.2995989409753173,0.6364515337527212,0.2394360646232635,0.6636771484581748,-1.117933108152406,-0.0732880382270213,0.1065072492500012,3.324490063948813,10.24010164605432,-2.3352543693790957
7988,2024 10 17,09:01:06.555,-0.502696,-0.573478,0.447758,-0.466833,-1.084018,0.17188,0.196295,-42.785645,-125.0,-125.793457,0,0,-0.4971214850731521,-0.5794279624541386,0.4525502399283123,-0.451897683135728,-1.100550539274931,-0.2012694808056883,-0.0685441295352957,-3.5258508682909024,-11.68743142419978,-5.360999425294984,-0.29794,0.621236,0.247255,0.681295,-0.9888,0.053713,0.101077,2.685547,5.065918,-17.76123,0,0,-0.2995159939265515,0.6356907570650852,0.2398270113921003,0.6645580410352661,-1.1114764527447856,-0.0669379863156703,0.1062357367875011,3.292542910751372,9.981392463751602,-3.1065531509101403
7989,2024 10 17,09:01:06.564,-0.504473,-0.56329,0.450682,-0.474443,-1.131871,-0.086917,-0.272958,-40.161133,-90.515137,-98.510742,0,0,-0.4974890608194945,-0.5786210643314317,0.4524568279318966,-0.4530249489789416,-1.1021165623111846,-0.1955518567654038,-0.0787648230585309,-5.357614974876357,-15.628816702989791,-10.018486554030234,-0.297214,0.620493,0.248523,0.681827,-1.051302,0.039552,0.116214,6.591797,3.234863,-19.226074,0,0,-0.2994008942302239,0.6349308692118308,0.2402618108224953,0.6654214889835027,-1.1084677301075463,-0.0616134869998867,0.106734649948126,3.4575056152138037,9.64406599056402,-3.912529193364633
7990,2024 10 17,09:01:06.572,-0.50679,-0.55454,0.451799,-0.481173,-1.002472,-0.119144,-0.143559,-38.574219,-96.313477,-70.068359,0,0,-0.4979541077785198,-0.57741701111486,0.4524239365353018,-0.4544323515299945,-1.0971343341956254,-0.1917314639271336,-0.0820045319056043,-7.01844517613254,-19.663049717840305,-13.020980176328724,-0.296584,0.619488,0.249985,0.682481,-1.096713,0.029298,0.057131,8.239746,6.225586,-21.30127,0,0,-0.2992600495187127,0.6341587257512392,0.2407479702813705,0.6662744645343275,-1.107879993602169,-0.0570679126498924,0.1042544674507197,3.696617634453113,9.47314199103582,-4.7819662336964015
7991,2024 10 17,09:01:06.580,-0.508967,-0.547314,0.451776,-0.487133,-0.932157,0.058107,-0.013184,-21.179199,-83.312988,-55.908203,0,0,-0.4985047523895938,-0.575911860559117,0.4523915397085367,-0.4560673839534948,-1.088885467485844,-0.1792395407307769,-0.0785635053103241,-7.726482867325912,-22.845546631948284,-15.165341317512288,-0.295826,0.6183,0.251645,0.683277,-1.087435,0.026856,0.095706,9.521484,8.056641,-25.085449,0,0,-0.2990883470427771,0.6333657894636773,0.2412928217673019,0.667124591307611,-1.1068577439220606,-0.0528717170173978,0.1038270440781837,3.9878609527304576,9.40231694148403,-5.797140372011581
7992,2024 10 17,09:01:06.589,-0.510799,-0.541333,0.451604,-0.492033,-0.991241,0.116214,-0.013672,-20.935059,-74.21875,-45.593262,0,0,-0.499119464770114,-0.5741829175311611,0.4523521627231098,-0.45786566475582,-1.084003244111552,-0.1644668636942381,-0.0753189300448079,-8.386911673959617,-25.41420680035087,-16.686737351636673,-0.29493,0.616867,0.253488,0.684277,-1.11478,0.047853,0.084964,9.521484,10.253906,-28.808594,0,0,-0.2988804296906382,0.6325408499904934,0.2419025806789368,0.6679822117422305,-1.1072538567259576,-0.0478354811665279,0.1028838918742745,4.264542105093935,9.444896394409827,-6.947713053411002
7993,2024 10 17,09:01:06.597,-0.510799,-0.541333,0.451604,-0.492033,-0.991241,0.116214,-0.013672,-20.935059,-74.21875,-45.593262,0,0,-0.4997034415316083,-0.5725404216546031,0.4523147545869543,-0.459574031518029,-1.0793651319059745,-0.1504328205095262,-0.0722365835425675,-9.014319040261634,-27.854433960333324,-18.13206358405484,-0.293781,0.615168,0.255584,0.68552,-1.12064,0.037599,0.109867,10.620117,12.084961,-34.729004,0,0,-0.2986254582061062,0.6316722074909686,0.24258665164499,0.6688591011551189,-1.1079231638896596,-0.0435637571082015,0.1032330472805608,4.582320849839237,9.576899624689336,-8.33677760074045
7994,2024 10 17,09:01:06.605,-0.51356,-0.535294,0.45114,-0.496174,-1.003937,0.1377,0.121586,-31.860352,-77.026367,-33.813477,0,0,-0.5003962694550279,-0.5706781005718728,0.4522560168576066,-0.4614040299421275,-1.0755937253106755,-0.1360261794840498,-0.0625454543654392,-10.156620688248552,-30.313030612316656,-18.916134254852093,-0.293781,0.615168,0.255584,0.68552,-1.12064,0.037599,0.109867,10.620117,12.084961,-34.729004,0,0,-0.2983832352958009,0.6308469971164201,0.2432365190627404,0.6696921460973629,-1.1085590056951766,-0.0395056192527914,0.1035647449165328,4.884210657347275,9.70230269345487,-9.656388920703428
7995,2024 10 17,09:01:06.614,-0.517351,-0.528967,0.450796,-0.499325,-1.015168,0.136723,0.092776,-46.630859,-77.880859,-25.268555,0,0,-0.5012440059822765,-0.5685925455432792,0.4521830160147262,-0.4633000784450211,-1.072572439045142,-0.1223887205098473,-0.0547793816471672,-11.980332603836125,-32.691422031700824,-19.233755292109485,-0.292012,0.61351,0.257961,0.686871,-1.150914,0.02295,0.087405,7.507324,9.399414,-41.809082,0,0,-0.2980646735310108,0.629980147260599,0.2439727431096034,0.6705510887924948,-1.1106767554104178,-0.0363828382901518,0.1027567576707061,5.015366324479911,9.687158258782125,-11.264023574668256
7996,2024 10 17,09:01:06.622,-0.522291,-0.522342,0.450561,-0.501363,-0.934111,0.06592,-0.134281,-60.852051,-77.819824,-14.770508,0,0,-0.5022963556831627,-0.5662800182661152,0.4521019152139899,-0.4652032245227701,-1.0656493670928848,-0.112973284484355,-0.0587544625648088,-14.423918523644318,-34.94784213011578,-19.01059292750401,-0.289402,0.611908,0.260678,0.688376,-1.257851,0.035157,0.070315,2.319336,5.493164,-52.734375,0,0,-0.2976315398544603,0.6290765398975691,0.2448080059541232,0.67144233435287,-1.1180354676398967,-0.0328058463756442,0.1011346697871708,4.880564808255914,9.477458545843016,-13.337541145934845
7997,2024 10 17,09:01:06.630,-0.527451,-0.516033,0.45005,-0.502951,-0.721702,-0.007813,-0.28956,-52.978516,-70.251465,-8.361816,0,0,-0.5035540878990046,-0.5637676673528094,0.4519993194532903,-0.4670906132966316,-1.0484519987382406,-0.1077152702601372,-0.0702947394365684,-16.3516483974621,-36.71302327360999,-18.47815408112881,-0.285919,0.610037,0.263705,0.690337,-1.296915,-0.000488,0.041993,-0.732422,10.437012,-63.537598,0,0,-0.2970459128617372,0.6281245629026906,0.2457528556564171,0.6723870676352266,-1.1269794442579018,-0.031189954056862,0.0981775862978123,4.599915467843119,9.525436218550867,-15.8475439886381
7998,2024 10 17,09:01:06.639,-0.530614,-0.511976,0.449803,-0.503991,-0.832057,0.076662,-0.235847,-32.104492,-38.818359,-6.713867,0,0,-0.5049070835040543,-0.5611780839851689,0.4518895034806258,-0.4689356326318,-1.0376322488013283,-0.0984964067471304,-0.0785723524647399,-17.139290577588994,-36.81829005992949,-17.88993972707237,-0.281343,0.607879,0.267057,0.692828,-1.371624,0.062014,0.079592,-8.605957,9.094238,-78.918457,0,0,-0.2962607672186503,0.627112284757556,0.2468180628735962,0.6734091142534653,-1.1392116720450065,-0.0265297563540189,0.0972483069829217,3.9396218444509623,9.503876307623322,-19.0010896392062
7999,2024 10 17,09:01:06.647,-0.530614,-0.511976,0.449803,-0.503991,-0.832057,0.076662,-0.235847,-32.104492,-38.818359,-6.713867,0,0,-0.5061924293288516,-0.5587179797859104,0.4517851783065945,-0.47068840100021,-1.027353486361262,-0.0897384864097738,-0.0864360848415029,-17.887550648709542,-36.91829350693301,-17.33113609071875,-0.275828,0.605355,0.270984,0.695724,-1.416547,0.072268,0.092776,-7.263184,12.329102,-91.85791,0,0,-0.2952391288577178,0.6260244205196782,0.2480263597299164,0.674524858540792,-1.153078438442756,-0.021589868536318,0.0970246916337756,3.3794815522284143,9.645137592242156,-22.643930657245885
8000,2024 10 17,09:01:06.655,-0.532548,-0.509448,0.44985,-0.504471,-0.866237,0.0459,-0.150884,-21.606445,-22.705078,-4.760742,0,0,-0.507510207862409,-0.5562544807966149,0.4516884193912647,-0.4723775309501994,-1.019297662043199,-0.0829565620892851,-0.0896584805994278,-18.073495366274063,-36.20763273158636,-16.70261638618281,-0.270075,0.601882,0.275463,0.699226,-1.432173,0.100101,0.123539,-1.831055,23.498535,-102.111816,0,0,-0.2939809224148319,0.6248172994936942,0.2493981917434206,0.6757599156137524,-1.1670331665206182,-0.0155053251095021,0.0983504070520868,3.118954724616993,10.337807462630046,-26.617324924383592
8001,2024 10 17,09:01:06.664,-0.533216,-0.508305,0.449921,-0.504854,-0.875027,0.10596,-0.147954,-4.516602,-7.324219,-5.126953,0,0,-0.5087954974692885,-0.5538570067567841,0.4516000484217015,-0.4740013544026895,-1.0120841289410392,-0.0735107339848209,-0.0925732565694564,-17.395650697960363,-34.76346204500704,-16.12383321687367,-0.270075,0.601882,0.275463,0.699226,-1.432173,0.100101,0.123539,-1.831055,23.498535,-102.111816,0,0,-0.2927856262940903,0.6236705345190096,0.2507014321562495,0.6769332198330646,-1.180290158194587,-0.0097250088540269,0.0996098366994824,2.871454238386144,10.995843839498544,-30.392049478164413
8002,2024 10 17,09:01:06.672,-0.532905,-0.508147,0.45014,-0.505145,-0.938505,0.122074,-0.084475,1.281738,2.380371,-6.286621,0,0,-0.5100009725958241,-0.5515715064189449,0.4515270460006164,-0.475558536682555,-1.008405172493987,-0.0637314972855798,-0.0921683437409836,-16.461781263062345,-32.90627039275669,-15.631972606029986,-0.264248,0.59727,0.28072,0.703305,-1.460982,0.121586,0.124516,4.699707,31.860352,-114.990234,0,0,-0.2913587449793857,0.6223505077930591,0.2522023605484371,0.6782518088414115,-1.1943247502848575,-0.0031594584113256,0.1008551448645083,2.9628668764668364,12.039069247523615,-34.621958704256194
8003,2024 10 17,09:01:06.680,-0.532003,-0.508434,0.450452,-0.505531,-0.883328,0.129887,-0.109867,9.643555,7.93457,-8.850098,0,0,-0.5111010739660329,-0.5494146310979976,0.4514732937005855,-0.4770571598484272,-1.0021513138692877,-0.0540505724213008,-0.0930532765539344,-15.156514449909228,-30.864228373118856,-15.292878875728483,-0.257639,0.592053,0.287061,0.707595,-1.462935,0.129887,0.172857,9.94873,31.12793,-132.202148,0,0,-0.2896727577304164,0.6208356324034061,0.2539452925210152,0.6797189683993409,-1.2077552627706147,0.0034928645092406,0.1044552376212829,3.3121600326434946,12.993512285147434,-39.50096816904339
8004,2024 10 17,09:01:06.688,-0.530432,-0.509312,0.450973,-0.505832,-0.931669,0.130375,-0.08301,13.793945,16.967773,-9.94873,0,0,-0.5120676202677312,-0.5474094995430977,0.4514482790155562,-0.4784959018560059,-0.9986271981758232,-0.0448292938002358,-0.0925511127262377,-13.708991477413766,-28.472628304462912,-15.02567143194206,-0.250253,0.586095,0.29455,0.712114,-1.53032,0.187506,0.218757,15.075684,33.508301,-149.597168,0,0,-0.2877017698438955,0.6190986007832358,0.2559755278949644,0.6813387199793738,-1.223883499632084,0.0126935212837786,0.1101703257402187,3.90033623101132,14.01925172089006,-45.00577816059122
8005,2024 10 17,09:01:06.697,-0.528479,-0.510454,0.451608,-0.506159,-0.961943,0.146489,-0.030763,16.845703,19.104004,-11.84082,0,0,-0.5128881892543447,-0.5455617245659428,0.4514562650647784,-0.4798790567632056,-0.996792988267032,-0.035263379110224,-0.0894617070899258,-12.181256753543078,-26.093796689239763,-14.866428860344955,-0.241882,0.579279,0.303398,0.716853,-1.632862,0.167486,0.176763,19.348145,34.301758,-172.729492,0,0,-0.2854107813517008,0.6171076207440739,0.2583466515002162,0.6831144339804051,-1.2443324246504797,0.0204331452195896,0.1134999594532078,4.672726669460753,15.033377034845556,-51.39196385256166
8006,2024 10 17,09:01:06.705,-0.528479,-0.510454,0.451608,-0.506159,-0.961943,0.146489,-0.030763,16.845703,19.104004,-11.84082,0,0,-0.5136677297916274,-0.5438063383376456,0.4514638518115394,-0.4811930539250453,-0.9950504888536804,-0.0261757601547128,-0.0865267717354295,-10.729908765865924,-23.83390665477777,-14.71514841732771,-0.232103,0.571231,0.313392,0.722225,-1.745659,0.187994,0.132817,23.071289,41.992188,-198.730469,0,0,-0.2827453922841157,0.6148137897068702,0.2610989189252053,0.6850699622813848,-1.2693987534179556,0.0288111879586101,0.1144658114805474,5.592654785987715,16.38131758310328,-58.75888910993358
8007,2024 10 17,09:01:06.713,-0.526411,-0.511628,0.452283,-0.506526,-0.982452,0.1377,-0.038575,17.028809,18.920898,-12.512207,0,0,-0.514304893302046,-0.5421974214207632,0.4515048092209624,-0.482459701228793,-0.9944205644109964,-0.0179819721469771,-0.084129183148658,-9.341972877572626,-21.696166422038885,-14.605001346461323,-0.232103,0.571231,0.313392,0.722225,-1.745659,0.187994,0.132817,23.071289,41.992188,-198.730469,0,0,-0.2802132726699099,0.6126346502215266,0.2637135729789451,0.6869277141673156,-1.293211765747058,0.0367703285606796,0.11538337090652,6.46658649668833,17.661861103948112,-65.7574681044369
8008,2024 10 17,09:01:06.722,-0.524467,-0.512672,0.4529,-0.506935,-0.966338,0.145512,-0.032716,15.930176,17.089844,-12.084961,0,0,-0.5148129986369436,-0.540721150349725,0.4515745687599143,-0.4836834661673533,-0.9930164361904464,-0.0098072735396283,-0.0815585239912251,-8.078365433693994,-19.75686590093694,-14.478999329138258,-0.220679,0.561876,0.324678,0.728135,-1.944884,0.228523,0.007813,22.094727,47.668457,-228.45459,0,0,-0.2772365590364144,0.6100967177104504,0.2667617943299978,0.6889880784589498,-1.3257953774597049,0.0463579621326456,0.110004852361194,7.247993521853914,19.162190898750705,-73.89232419921505
8009,2024 10 17,09:01:06.730,-0.522787,-0.513555,0.453482,-0.507257,-0.967803,0.150395,-0.034181,12.573242,14.648438,-10.375977,0,0,-0.5152116987050964,-0.5393628428322388,0.4516699403219185,-0.4848621428589856,-0.9917557643809242,-0.0017971598626469,-0.0791896477916638,-7.045785062009294,-18.03660070589009,-14.273848212681344,-0.207089,0.550823,0.337097,0.734897,-2.056215,0.254402,-0.082522,17.76123,59.326172,-264.709473,0,0,-0.2737291810845937,0.6071330318249278,0.2702785546134979,0.6912835245360024,-1.3623163585867195,0.0567601640260134,0.1003785097431343,7.773655345761218,21.17038995381317,-83.4331816392543
8010,2024 10 17,09:01:06.738,-0.521453,-0.514159,0.454061,-0.5075,-0.96878,0.140629,-0.031251,7.995605,11.59668,-9.70459,0,0,-0.5155237637698415,-0.5381026506906269,0.4517894933058226,-0.4859940357160363,-0.990606976161878,0.0053241481304854,-0.0767927154020806,-6.293715558908829,-16.554936670595588,-14.045385302047276,-0.190914,0.537693,0.350584,0.74265,-2.259835,0.362804,-0.195807,11.59668,67.382813,-306.335449,0,0,-0.269588422030364,0.6036610302336813,0.274293826882823,0.6938518483092022,-1.4071922906573835,0.0720623558247127,0.0855692342559776,7.964806578473157,23.48101110612251,-94.5782950072916
8011,2024 10 17,09:01:06.747,-0.520429,-0.514479,0.454589,-0.507754,-0.961943,0.170415,-0.033204,5.493164,8.117676,-9.399414,0,0,-0.5157690255813494,-0.5369214681560955,0.4519294686405314,-0.4870820339302345,-0.989173777353784,0.0135786907239611,-0.0746132796319766,-5.704371580963387,-15.321306037065808,-13.81308673694491,-0.171294,0.522935,0.365703,0.750639,-2.506912,0.54445,-0.058107,7.385254,67.810059,-355.46875,0,0,-0.2646737009288457,0.5996247287219972,0.2788642855386819,0.696691205893742,-1.462178276124514,0.0956817380334771,0.0783854225431787,7.935828949549498,25.697463500816383,-107.622817756927
8012,2024 10 17,09:01:06.755,-0.520429,-0.514479,0.454589,-0.507754,-0.961943,0.170415,-0.033204,5.493164,8.117676,-9.399414,0,0,-0.5160020243022819,-0.5357993447482908,0.4520624452085048,-0.4881156322337228,-0.9878122384860948,0.0214205061877631,-0.0725428156503778,-5.144494801915217,-14.149356935212516,-13.592403100097664,-0.148737,0.505155,0.382519,0.759194,-2.907315,0.595233,0.097171,9.521484,83.618164,-407.836914,0,0,-0.2588768658824034,0.5949012422858974,0.2840470212617478,0.6998163455990549,-1.5344351123182884,0.1206593011318032,0.0793247014160198,8.015111702072023,28.59349852577556,-122.63352256908064
8013,2024 10 17,09:01:06.763,-0.519693,-0.514507,0.455175,-0.507954,-0.965361,0.147954,-0.026856,2.319336,5.859375,-9.155273,0,0,-0.5161865730871678,-0.5347347275108763,0.4522180729480795,-0.4891075506220366,-0.98668967656179,0.0277471808783749,-0.0702584748678589,-4.771303261819456,-13.14892033845189,-13.37054659509278,-0.148737,0.505155,0.382519,0.759194,-2.907315,0.595233,0.097171,9.521484,83.618164,-407.836914,0,0,-0.2533698725882832,0.5904139301716025,0.2889706201986604,0.7027852283191022,-1.603079106702374,0.144387986075213,0.0802170163452188,8.09043031696842,31.344731799486784,-136.89369214062663
8014,2024 10 17,09:01:06.772,-0.519035,-0.514404,0.455777,-0.508192,-0.973174,0.12598,-0.037111,0.12207,4.211426,-9.82666,0,0,-0.5163289944328093,-0.5337181911353324,0.4523960193006755,-0.4900617730909348,-0.9860138927337004,0.0326588218344562,-0.0686011011244659,-4.526634598728482,-12.280903021529294,-13.193352265338142,-0.123947,0.483014,0.400886,0.768521,-3.114841,0.558611,0.115726,16.784668,118.95752,-457.275391,0,0,-0.246898728958869,0.5850439336630223,0.2945663891887273,0.706072016903147,-1.6786672013672552,0.1650991367714524,0.0819924655279578,8.52514220112,35.725371209512446,-152.9127770835953
8015,2024 10 17,09:01:06.780,-0.518433,-0.514156,0.456299,-0.508587,-0.955107,0.130375,-0.038087,0.854492,2.197266,-10.620117,0,0,-0.5164341947111688,-0.5327400815785657,0.4525911683356417,-0.490988034436388,-0.9844685480970152,0.0375446307427333,-0.0670753960682426,-4.2575782687920585,-11.556994570452828,-13.064690502071231,-0.097268,0.456463,0.420748,0.777915,-3.348247,0.391614,0.2837,24.841309,143.310547,-501.464844,0,0,-0.2394171925109256,0.5786148869798712,0.3008754697292909,0.7096641660579897,-1.7621461912988925,0.1764248799328797,0.0920778422515599,9.340950541064,41.10462999903682,-170.34038042941555
8016,2024 10 17,09:01:06.788,-0.517828,-0.513868,0.456791,-0.509054,-0.943388,0.127445,-0.033204,1.77002,1.525879,-11.169434,0,0,-0.5165038849756103,-0.5317964774996373,0.4528011599188596,-0.4918913327145686,-0.9824145206921644,0.0420396492055967,-0.0653818262648305,-3.956198355352456,-10.902850891930186,-12.969927676967671,-0.069915,0.425974,0.441863,0.786394,-3.375591,0.004883,0.009766,42.84668,172.302246,-529.174805,0,0,-0.2309420828853793,0.5709828426308776,0.3079248462428264,0.7135006577550901,-1.8428184317339475,0.1678477859362357,0.0879622501389819,11.0162370140108,47.66451079908497,-188.2821016579448
8017,2024 10 17,09:01:06.797,-0.51715,-0.513579,0.457281,-0.509594,-0.956572,0.133305,-0.043947,1.77002,1.342773,-12.084961,0,0,-0.5165361907268298,-0.5308856036246554,0.4530251519229166,-0.4927764660788402,-0.9811223946575562,0.0466029167453168,-0.0643100849515889,-3.669887437584833,-10.290569697333677,-12.925679343119288,-0.042706,0.392661,0.462649,0.793693,-3.120701,-0.059572,0.036622,42.297363,191.467285,-533.26416,0,1,-0.2215302787411103,0.5620667504993337,0.3156610539306851,0.7175102748673355,-1.90671256014725,0.156476796639424,0.0853952376320328,12.58029331331026,54.85464950913072,-205.53120457504752
8018,2024 10 17,09:01:06.805,-0.51715,-0.513579,0.457281,-0.509594,-0.956572,0.133305,-0.043947,1.77002,1.342773,-12.084961,0,0,-0.5165668811904882,-0.5300202734434226,0.4532379443267708,-0.4936173427748981,-0.9798948749246784,0.050938020908051,-0.0632919307040095,-3.397892065705591,-9.70890256246699,-12.883643425963324,-0.016475,0.357122,0.481464,0.80024,-2.826746,0.192877,-0.529801,32.470703,212.95166,-523.193359,0,0,-0.2112775148040548,0.551819512974367,0.3239512012341508,0.7216467611239687,-1.952714232139888,0.1582968068074527,0.0546354257504312,13.574813797644746,62.759500033674186,-221.41431229629515
8019,2024 10 17,09:01:06.813,-0.516504,-0.51319,0.457787,-0.510187,-0.93997,0.13184,-0.048341,1.403809,0.732422,-12.878418,0,0,-0.5165637371309638,-0.5291787597712514,0.4534653971104323,-0.4944458256361532,-0.9778986311784446,0.0549831198626484,-0.062544384168809,-3.157807012420311,-9.18683633434364,-12.883382154665156,-0.016475,0.357122,0.481464,0.80024,-2.826746,0.192877,-0.529801,32.470703,212.95166,-523.193359,0,0,-0.201537389063852,0.5420846373256487,0.3318268411724432,0.7255764230677704,-1.9964158205328928,0.1600258164670801,0.0254136044629096,14.519608257762508,70.26910803199047,-236.5032646314804
8020,2024 10 17,09:01:06.822,-0.515859,-0.512738,0.458377,-0.510764,-0.927763,0.127445,-0.041993,0.305176,1.159668,-13.61084,0,0,-0.5165285002744157,-0.5283567217826888,0.4537109772549106,-0.4952617343543455,-0.9753918496195224,0.058606213869516,-0.0615168149603686,-2.984657861799296,-8.669511117626458,-12.919755046931895,0.009221,0.321475,0.497803,0.805457,-2.717856,0.499527,-0.430189,19.226074,207.092285,-510.986328,0,0,-0.1909994696106594,0.5310541554593663,0.3401256491138211,0.7295704519143819,-2.0324878295062487,0.1770008756437261,0.0026334742397641,14.754931544874385,77.11026688039094,-250.2274177999064
8021,2024 10 17,09:01:06.830,-0.515157,-0.512266,0.459127,-0.511273,-0.949736,0.134281,-0.065432,-1.098633,2.380371,-14.648438,0,0,-0.5164599252606948,-0.5275521856935542,0.4539817783921651,-0.4960622976366282,-0.9741090571385462,0.0623899531760402,-0.0617125742123501,-2.8903566187093306,-8.117017011745135,-13.006189194585302,0.035454,0.285634,0.51212,0.809252,-1.883847,1.194372,-0.984405,4.089355,199.279785,-510.314941,0,0,-0.1796767961301265,0.5187831476863979,0.34872536665813,0.7335545293186627,-2.025055788030936,0.2278694318615398,-0.046718449472224,14.221652717630665,83.21874278637138,-263.23179395991104
8022,2024 10 17,09:01:06.838,-0.514587,-0.511568,0.459931,-0.511821,-0.958525,0.135746,-0.025391,-2.746582,0.488281,-15.686035,0,0,-0.5163662789976601,-0.5267529764088765,0.4542792394725569,-0.4968502327547967,-0.9733298542816188,0.0660577555172382,-0.0598964955017326,-2.883167887773864,-7.686752111157878,-13.140181484856036,0.061148,0.253096,0.525239,0.81014,-2.125065,0.840358,-0.993194,22.827148,148.620605,-473.815918,0,0,-0.1676355563236201,0.505498790302078,0.3575510483252235,0.7373838028527295,-2.030056248629389,0.2584938602684628,-0.0940422269986128,14.65192748174913,86.48883589705281,-273.7610001619155
8023,2024 10 17,09:01:06.847,-0.514132,-0.51067,0.460794,-0.5124,-0.965361,0.120121,-0.035157,-5.310059,-2.624512,-16.540527,0,0,-0.516254565047777,-0.5259488275884326,0.454604977498929,-0.4976277211170568,-0.972931411567538,0.0687609177413763,-0.058659520726646,-3.004512443385171,-7.433640105599983,-13.310198760613234,0.088405,0.224291,0.535789,0.809202,-1.845271,1.256874,-1.038606,-8.483887,107.910156,-470.458984,0,0,-0.1548335285074391,0.4914384007869741,0.3664629459089623,0.7409747127100931,-2.02081698619792,0.3084128672550397,-0.1412704156486822,13.495136757661673,87.55990190220017,-283.59589935381973
8024,2024 10 17,09:01:06.855,-0.514132,-0.51067,0.460794,-0.5124,-0.965361,0.120121,-0.035157,-5.310059,-2.624512,-16.540527,0,0,-0.5161484367953881,-0.525184886209011,0.4549144286239825,-0.4983663350612039,-0.972552890989161,0.0713289218543074,-0.0574843946903137,-3.1197897712159124,-7.193183700319984,-13.471715172582572,0.115805,0.197542,0.541989,0.808588,0.500015,0.918973,-2.483474,-48.156738,79.040527,-426.513672,0,0,-0.1413016020820672,0.4767435807476253,0.3752392486135141,0.7443553770745883,-1.894775386888024,0.3389408738922876,-0.2583805948662481,10.412543019778589,87.13393315709015,-290.7417879861287
8025,2024 10 17,09:01:06.863,-0.513937,-0.509454,0.461569,-0.513107,-0.960967,0.108402,-0.027833,-7.080078,-5.981445,-16.662598,0,0,-0.5160378649556188,-0.5243983418985605,0.4552471571927834,-0.4991033683081437,-0.9719735964397028,0.0731825757615921,-0.056001824955798,-3.317804182655117,-7.132596765303984,-13.631259313953445,0.115805,0.197542,0.541989,0.808588,0.500015,0.918973,-2.483474,-48.156738,79.040527,-426.513672,0,0,-0.1284462719779638,0.462783501710244,0.3835767361828384,0.747567008220859,-1.7750358675436224,0.3679424801976733,-0.3696352651229357,7.48407896878966,86.72926284923564,-297.53038218682224
8026,2024 10 17,09:01:06.872,-0.513876,-0.508082,0.462284,-0.513885,-0.938505,0.104984,-0.040529,-8.056641,-9.094238,-16.418457,0,0,-0.5159297717078378,-0.5235825248036324,0.4555989993331442,-0.4998424498927365,-0.9703001666177176,0.0747726469735124,-0.0552281837080081,-3.5547460235223607,-7.230678827038785,-13.77061919825577,0.135431,0.179669,0.542664,0.809254,2.95175,1.051302,-0.89114,-92.041016,29.35791,-224.67041,0,0,-0.1152524083790656,0.4486277766247318,0.3915310993736965,0.750651357809816,-1.5386965741664411,0.4021104561877896,-0.3957105018667889,2.507824220350177,83.86069520677385,-293.8873835774811
8027,2024 10 17,09:01:06.880,-0.513944,-0.5066,0.462916,-0.51471,-0.946318,0.084475,-0.053224,-7.8125,-10.437012,-16.235352,0,0,-0.515830483122446,-0.5227333985634508,0.4559648493664869,-0.5005858273980996,-0.9691010582868316,0.0752577646248368,-0.0551279745226077,-3.7676337223462415,-7.390995485686846,-13.89385583834298,0.139968,0.179019,0.535025,0.813701,0.572283,1.636769,-0.170904,-111.51123,-33.325195,53.588867,0,0,-0.1024913879601123,0.4351473377934952,0.3987057944050117,0.7538038399193251,-1.4331475954581192,0.4638433833784001,-0.3844701767734494,-3.1931284906673314,78.00140069643517,-276.51357104860705
8028,2024 10 17,09:01:06.888,-0.513995,-0.505126,0.463385,-0.515685,-0.931669,0.090823,-0.066408,-6.835938,-12.207031,-15.991211,0,0,-0.5157387089663236,-0.5218530286352783,0.4563358568981626,-0.5013407860281947,-0.96722945537249,0.076036026393595,-0.0556919757964773,-3.92104893622893,-7.631797261402503,-13.998723596425831,0.126788,0.189902,0.524434,0.820263,-0.101566,1.627491,-0.545427,-93.505859,-31.921387,269.40918,0,0,-0.0910274185621067,0.4228850709038204,0.4049922046847611,0.7571267979233589,-1.3665685156852132,0.5220257642094801,-0.3925180179347769,-7.708765016133965,72.50526131161341,-249.21743349617668
8029,2024 10 17,09:01:06.897,-0.513979,-0.503734,0.463846,-0.516647,-0.938017,0.102542,-0.054201,-5.554199,-10.314941,-16.113281,0,0,-0.5156507235180073,-0.5209470772035143,0.4567113640532544,-0.5021060967267849,-0.9657688326038656,0.0773613250739152,-0.0556174270066534,-4.002706439417483,-7.765954448332377,-14.10445146660454,0.10246,0.208792,0.513438,0.826008,-0.866237,1.253456,0.107425,-38.085938,-28.015137,398.071289,0,0,-0.0813530476340014,0.4121804173586293,0.410414494450523,0.7605708580271909,-1.3415519399009526,0.5585972759990061,-0.367520867038038,-9.227623665327268,67.47924139603275,-216.85299737136785
8030,2024 10 17,09:01:06.905,-0.513979,-0.503734,0.463846,-0.516647,-0.938017,0.102542,-0.054201,-5.554199,-10.314941,-16.113281,0,0,-0.5155671373421069,-0.5200864233433385,0.4570680958505916,-0.5028331418904456,-0.9643812409736722,0.0786203588202194,-0.0555466056563207,-4.080281067446609,-7.893403775915758,-14.204892943274317,0.072346,0.228683,0.503328,0.830139,-1.03177,0.804712,-0.417493,-21.179199,-6.469727,427.856445,0,0,-0.0736680952523013,0.4030055464906978,0.4150601697279968,0.7640492651258314,-1.326062842905905,0.5709030121990558,-0.3700194736861361,-9.825202432060903,63.78179297623111,-184.61752525279945
8031,2024 10 17,09:01:06.913,-0.513906,-0.502366,0.464382,-0.51757,-0.92581,0.10303,-0.069338,-5.737305,-9.765625,-16.784668,0,0,-0.5154840804750015,-0.5192004021761716,0.457433791058062,-0.5035699847959233,-0.9624526789249884,0.0798408408792085,-0.0562361753735047,-4.163132264074278,-7.987014837119969,-14.333881696110598,0.072346,0.228683,0.503328,0.830139,-1.03177,0.804712,-0.417493,-21.179199,-6.469727,427.856445,0,0,-0.0663673904896862,0.3942894191661629,0.4194735612415969,0.7673537518695398,-1.3113482007606097,0.5825934615891031,-0.3723931500018293,-10.392902260457856,60.269216977419546,-153.99382674015945
8032,2024 10 17,09:01:06.922,-0.513818,-0.501027,0.464988,-0.51841,-0.930692,0.098636,-0.079592,-6.469727,-7.629395,-16.662598,0,0,-0.5154007764512514,-0.518291732067363,0.4578115015051589,-0.5043119855561271,-0.960864644978739,0.080780598835248,-0.0574039666048295,-4.278462000870563,-7.96913384526397,-14.450317511305068,0.043048,0.248184,0.493825,0.832279,-0.976104,0.405286,-0.515152,-8.117676,-22.399902,402.832031,0,0,-0.0608966209652019,0.3869841482078548,0.423191133179517,0.7706000142760628,-1.2945859907225792,0.573728088509648,-0.3795310925017378,-10.279140947434964,56.13576102854857,-126.15253385315148
8033,2024 10 17,09:01:06.930,-0.513591,-0.499786,0.465732,-0.519166,-0.946318,0.086917,-0.06006,-6.408691,-5.981445,-17.089844,0,0,-0.5153102876286888,-0.5173664454639949,0.4582075264299009,-0.5050546862783207,-0.960137312729802,0.0810874188934856,-0.057536768274588,-4.384973450827035,-7.869749403000771,-14.582293835739812,0.01829,0.266609,0.484573,0.832931,-0.87698,0.134281,-0.827662,-16.296387,-40.283203,347.900391,0,0,-0.0569372899169418,0.380965390797462,0.4262602265205412,0.7737165635622596,-1.2737056911864502,0.5517557340841656,-0.4019376378766509,-10.580003250063216,51.31481282712114,-102.44988761049387
8034,2024 10 17,09:01:06.938,-0.513259,-0.4986,0.466489,-0.519953,-0.94583,0.06885,-0.052736,-5.310059,-5.187988,-17.578125,0,0,-0.5152077232472543,-0.5164281231907951,0.4586216001084058,-0.5057996019644047,-0.959421947093312,0.0804755479488114,-0.0572967298608586,-4.431227728285683,-7.735661332850732,-14.732085393952822,-0.001156,0.285053,0.475237,0.832402,-0.671896,-0.018067,-0.796411,-31.616211,-76.660156,303.161621,0,0,-0.0541482254210947,0.3761697712575889,0.4287090651945141,0.7766508353841466,-1.2436152066271275,0.5232645973799573,-0.4216613059828183,-11.631813637560056,44.91606438576508,-82.16931217996918
8035,2024 10 17,09:01:06.947,-0.51283,-0.497491,0.467199,-0.520802,-0.951689,0.064943,-0.053713,-3.356934,-5.065918,-17.76123,0,0,-0.5150888370848915,-0.5154812670312554,0.4590504701029855,-0.5065497218661844,-0.9590352997386462,0.0796989205513708,-0.0571175433678156,-4.377513041871399,-7.602174166208195,-14.88354262425518,-0.017597,0.304095,0.464675,0.831441,-0.519059,0.148442,-0.675314,-49.621582,-96.496582,291.442871,0,0,-0.0523206641500399,0.3725660326947094,0.4305073619347884,0.7793903436149392,-1.207387396295771,0.5045234675109594,-0.4343439406836774,-13.531302055682051,37.845432066476825,-63.488703020970725
8036,2024 10 17,09:01:06.955,-0.51283,-0.497491,0.467199,-0.520802,-0.951689,0.064943,-0.053713,-3.356934,-5.065918,-17.76123,0,0,-0.5149758952306469,-0.5145817536796926,0.4594578965978362,-0.5072623357728752,-0.958667984751714,0.0789611245238022,-0.0569473161994248,-4.326484089777829,-7.4753613578977856,-15.027426993042422,-0.033255,0.324598,0.452625,0.829856,-0.685568,0.351085,-0.422376,-60.302734,-116.638184,300.842285,0,0,-0.0513673809425379,0.3701676310599739,0.4316132438380489,0.7819136264341922,-1.1812964264809824,0.4968515441354114,-0.4337455436494935,-15.869873652897953,30.121251263152985,-45.27215361992218
8037,2024 10 17,09:01:06.963,-0.512295,-0.496469,0.467744,-0.521811,-0.964873,0.070315,-0.055177,-0.305176,-6.103516,-18.066406,0,0,-0.5148418504691146,-0.513676115995708,0.4598722017679444,-0.5079897689842314,-0.958978235514128,0.0785288182976121,-0.0568588003894536,-4.125418685288937,-7.406769090002895,-15.1793759433903,-0.033255,0.324598,0.452625,0.829856,-0.685568,0.351085,-0.422376,-60.302734,-116.638184,300.842285,0,0,-0.050461761895411,0.3678891495069752,0.4326638316461464,0.7843107451124826,-1.1565100051569333,0.4895632169286408,-0.4331770664670188,-18.091516670253053,22.78327949999533,-27.96643168892607
8038,2024 10 17,09:01:06.972,-0.511693,-0.495451,0.468161,-0.522996,-0.975127,0.081057,-0.050783,1.77002,-7.385254,-18.859863,0,0,-0.5146844079456588,-0.5127648601959225,0.4602866416795472,-0.5087400805350198,-0.9597856737384216,0.0786552273827315,-0.0565550103699809,-3.8306467510244895,-7.40569333550275,-15.363400296220783,-0.049536,0.345985,0.439267,0.827577,-0.843776,0.451186,-0.360851,-64.331055,-119.384766,316.345215,0,0,-0.0504154738006405,0.3667939420316264,0.4329939900638391,0.7864740578568583,-1.1408733048990864,0.4876443560822088,-0.4295607631436678,-20.403493586740403,15.674877224995562,-10.750849354479763
8039,2024 10 17,09:01:06.980,-0.510938,-0.494432,0.468581,-0.524319,-0.971709,0.074709,-0.032228,3.051758,-7.507324,-20.874023,0,0,-0.5144970875483759,-0.5118482171861263,0.4607013595955698,-0.5095190265082689,-0.9603818400515004,0.0784579160135949,-0.0553386598514819,-3.4865265134732657,-7.4107748687276125,-15.638931431409748,-0.066955,0.367683,0.424903,0.82449,-0.861843,0.456069,-0.315928,-64.27002,-119.689941,332.214355,0,0,-0.0512424501106085,0.3668383949300451,0.4325894405606471,0.7883748549640154,-1.126921789654132,0.4860655882780983,-0.4238791249864844,-22.596819907403383,8.906636313745782,6.397410863244229
8040,2024 10 17,09:01:06.988,-0.510252,-0.49326,0.469005,-0.525711,-0.960967,0.087405,-0.094241,1.403809,-9.033203,-21.728516,0,0,-0.5142848331709571,-0.51091880632682,0.4611165416157913,-0.5103286251828554,-0.9604110980489254,0.0789052702129152,-0.0572837768589078,-3.242009737799602,-7.491896275291232,-15.94341065983926,-0.085017,0.389687,0.409784,0.820362,-0.862331,0.388195,-0.307627,-63.842773,-125.0,342.041016,0,0,-0.052931177605078,0.3679808251835428,0.4314491685326147,0.7899742122158147,-1.1136922501714257,0.4811720588641934,-0.4180665187371602,-24.659117562033213,2.2113044980584924,23.179591120082016
8041,2024 10 17,09:01:06.997,-0.509469,-0.49205,0.469595,-0.527075,-0.979522,0.095706,-0.089358,0.915527,-6.04248,-23.55957,0,0,-0.5140440415124092,-0.509975366010479,0.4615404645350017,-0.5111659439237126,-0.9613666431464792,0.0797453067022694,-0.0588874880159624,-3.0341329009096216,-7.419425461526671,-16.324218626847298,-0.102629,0.412388,0.394188,0.814873,-0.92581,0.32667,-0.264168,-65.185547,-142.089844,342.529297,0,0,-0.0554160687248241,0.3702011839243657,0.4295861101059839,0.7912191516050239,-1.1042981376628542,0.4734469559209837,-0.4103715928003022,-26.68543903393155,-5.003752926844433,39.14707641407792
8042,2024 10 17,09:01:07.005,-0.509469,-0.49205,0.469595,-0.527075,-0.979522,0.095706,-0.089358,0.915527,-6.04248,-23.55957,0,0,-0.5138152894367888,-0.509079097709955,0.4619431913082517,-0.5119613967275269,-0.9622744109891552,0.0805433413671559,-0.0604110136151643,-2.83664990586414,-7.350578188450337,-16.68598619550493,-0.118993,0.435814,0.378313,0.807952,-0.998566,0.322764,-0.216803,-67.993164,-160.888672,335.81543,0,0,-0.0585949152885829,0.3734818247281474,0.4270224546006848,0.7920557940247727,-1.0990115307797117,0.4659128081249344,-0.4006931631602871,-28.75082528223497,-12.797998880502211,53.98049409337402
8043,2024 10 17,09:01:07.013,-0.508439,-0.490814,0.470465,-0.528445,-0.985382,0.095218,-0.077151,0.854492,-4.150391,-27.282715,0,0,-0.5135464749649493,-0.5081658428244572,0.4623692817428391,-0.5127855768911506,-0.9634297904396972,0.0812770742987981,-0.061248012934406,-2.6520928105709327,-7.19056882902782,-17.215822635729683,-0.118993,0.435814,0.378313,0.807952,-0.998566,0.322764,-0.216803,-67.993164,-160.888672,335.81543,0,0,-0.0616148195241538,0.37659843349174,0.4245869818706505,0.792850604323534,-1.0939892542407257,0.4587553677186877,-0.3914986550022727,-30.712942218123224,-20.2025325364771,68.07224088870532
8044,2024 10 17,09:01:07.022,-0.507133,-0.489526,0.471555,-0.529921,-0.988311,0.078616,-0.058107,1.586914,-2.197266,-31.066895,0,0,-0.5132258012167018,-0.5072338506832343,0.4628285676556971,-0.513642348046593,-0.9646738509177124,0.0811440205838582,-0.0610909622876857,-2.4401424700423857,-6.940903687576428,-17.9083762539432,-0.13384,0.459908,0.362542,0.799459,-1.154332,0.345225,-0.102542,-67.810059,-182.312012,325.439453,0,0,-0.0652260785479461,0.3807639118171529,0.421484732777118,0.7931810241073574,-1.0970063915286894,0.4530788493327533,-0.3770508222521591,-32.56779805721706,-28.308006509653246,80.94060149427006
8045,2024 10 17,09:01:07.030,-0.505481,-0.488195,0.472879,-0.531545,-1.011261,0.099124,-0.075198,1.831055,-0.732422,-35.461426,0,0,-0.5128385611558667,-0.5062819081490726,0.4633310892729123,-0.5145374806442634,-0.9670032083718269,0.0820430195546653,-0.0617963141733014,-2.2265825965402666,-6.630479603197606,-18.78602874124604,-0.147522,0.484096,0.347108,0.78956,-1.280801,0.40968,0.015137,-63.781738,-192.993164,315.795898,0,0,-0.0693408746205488,0.3859305162262953,0.4177658961382621,0.7929999729019894,-1.106196121952255,0.4509089068661155,-0.3574414311395511,-34.12849505435621,-36.54226438417058,92.68336631955655
8046,2024 10 17,09:01:07.038,-0.503746,-0.486653,0.474459,-0.533196,-1.007843,0.095218,-0.090823,-0.854492,0.549316,-38.696289,0,0,-0.5123839330980733,-0.5053004627416189,0.4638874848092666,-0.5154704066120502,-0.9690451979532352,0.082701768576932,-0.0632476484646364,-2.157978066713253,-6.271489823037726,-19.78154175418374,-0.160774,0.507953,0.332078,0.77837,-1.384808,0.477065,0.119633,-55.480957,-199.645996,311.767578,0,0,-0.0739125308895213,0.3920316404149805,0.413481501331349,0.7922684742568898,-1.1201267158546422,0.4522167115228097,-0.3335877095825735,-35.196118151638395,-44.69745096496205,103.63757690357872
8047,2024 10 17,09:01:07.047,-0.501677,-0.485029,0.476507,-0.534797,-1.087435,0.118168,-0.073733,-2.319336,5.126953,-44.494629,0,0,-0.5118485864431696,-0.5042868896045379,0.4645184605688033,-0.5164367362814477,-0.9749646880555736,0.0844750801480854,-0.0637719160414046,-2.16604596337759,-5.701567681885839,-21.01719611647455,-0.174515,0.531219,0.31737,0.765916,-1.484909,0.534196,0.206061,-42.419434,-199.09668,316.345215,0,0,-0.0789426543450452,0.3989910083942315,0.4086759262647815,0.7909508505440453,-1.1383658300619102,0.4563156759466692,-0.3066052741034449,-35.55728394405647,-52.41741241671394,114.27295880839978
8048,2024 10 17,09:01:07.055,-0.501677,-0.485029,0.476507,-0.534797,-1.087435,0.118168,-0.073733,-2.319336,5.126953,-44.494629,0,0,-0.511340007121011,-0.503323995124311,0.4651178875403632,-0.5173547494673753,-0.9805882036527948,0.0861597261406811,-0.0642699702393343,-2.1737104652087105,-5.160141647791547,-22.191067760650824,-0.189417,0.553834,0.302772,0.752142,-1.569872,0.578143,0.256355,-27.587891,-198.486328,327.514648,0,0,-0.084466371627793,0.4067331579745199,0.4033807299515424,0.7890104080168431,-1.1599411385588148,0.4624070421493357,-0.2784572603982726,-35.15881429685365,-59.72085819587824,124.9350432679798
8049,2024 10 17,09:01:07.063,-0.499204,-0.483054,0.479086,-0.536593,-1.171422,0.149907,-0.099612,-3.601074,6.896973,-54.138184,0,0,-0.5107332067649605,-0.5023104953680955,0.465816293163345,-0.5183166619940065,-0.9901298934701552,0.0893470898336471,-0.0660370717273676,-2.245078641948275,-4.557285915401969,-23.788423572618285,-0.189417,0.553834,0.302772,0.752142,-1.569872,0.578143,0.256355,-27.587891,-198.486328,327.514648,0,0,-0.0897139030464033,0.4140882000757939,0.3983502934539653,0.7871669876160009,-1.180437681630874,0.4681938400418689,-0.2517166473783589,-34.78026813201097,-66.65913168608432,135.0640235045808
8050,2024 10 17,09:01:07.072,-0.496145,-0.480641,0.482207,-0.538796,-1.287637,0.142094,-0.054689,-3.845215,7.995605,-66.40625,0,0,-0.5100037964267125,-0.5012270205996907,0.4666358285051777,-0.5193406288943061,-1.0050052487966474,0.0919844353419647,-0.0654696681409992,-2.325085459850861,-3.92964136963187,-25.91931489398737,-0.205721,0.575746,0.288192,0.736981,-1.672414,0.572283,0.22071,-12.451172,-196.228027,340.026855,0,0,-0.0955142578940832,0.4221710900720042,0.392842378781267,0.7846576882352009,-1.2050364975493302,0.4733982980397754,-0.228095315009441,-33.663813325410416,-73.1375764517801,145.31216507935176
8051,2024 10 17,09:01:07.080,-0.492281,-0.477519,0.485796,-0.541882,-1.366741,0.140629,-0.035646,-1.342773,3.90625,-84.411621,0,0,-0.5091176566053768,-0.5000416195697062,0.4675938370799187,-0.5204676974495908,-1.023092036356815,0.0944166635748665,-0.0639784847339492,-2.2759698368583177,-3.5378468011502764,-28.843930199288,-0.223014,0.597007,0.273837,0.72032,-1.838923,0.5215,0.221198,1.708984,-199.462891,346.923828,0,0,-0.101889244999379,0.430912885568404,0.3868921098422037,0.7814408038234408,-1.2367308226718636,0.4758033831377867,-0.2056306492589689,-31.89517345913989,-79.4538421791911,155.39274822538417
8052,2024 10 17,09:01:07.088,-0.487704,-0.473357,0.48969,-0.546152,-1.379925,0.18067,0.043947,1.159668,-4.333496,-102.416992,0,0,-0.508046973775108,-0.4987073885912208,0.4686986452259228,-0.5217519125771112,-1.0409336845389745,0.0987293303961231,-0.0585822104972518,-2.104187945015402,-3.577629261092762,-32.5225832893236,-0.240577,0.617519,0.259936,0.7023,-2.006409,0.454604,0.204596,12.207031,-202.819824,346.191406,0,0,-0.10882363274941,0.4402431912899838,0.3805443043500934,0.7774837636322688,-1.2752147315382705,0.4747434139808973,-0.1851193167960204,-29.690063236182898,-85.62214127023154,164.93268111411496
8053,2024 10 17,09:01:07.097,-0.482571,-0.468067,0.493998,-0.551366,-1.404828,0.168462,-0.082522,1.403809,-10.498047,-120.97168,0,0,-0.5067731750863526,-0.4971753691616598,0.4699636129646266,-0.5232326169482556,-1.0591284003120254,0.102215963876317,-0.0597791999723892,-1.928788097764632,-3.923650148038124,-36.94503812485742,-0.257873,0.637411,0.246422,0.682997,-2.173894,0.330576,0.183111,17.39502,-209.960938,344.238281,0,0,-0.1162761011119395,0.4501015817254846,0.3738381891325888,0.7727594254506553,-1.320148694961357,0.4675350432818524,-0.1667078009562194,-27.33580907437375,-91.83908110671996,173.8979611084092
8054,2024 10 17,09:01:07.105,-0.476582,-0.461587,0.498677,-0.557788,-1.389691,0.173833,-0.009766,2.685547,-17.089844,-141.845703,0,0,-0.5052636163320349,-0.4953959507035768,0.4713992823163953,-0.5249603861008428,-1.075656530296424,0.1057968156825011,-0.0572785399737697,-1.6980713428764,-4.581959840636217,-42.19007136861455,-0.27483,0.656723,0.23279,0.662565,-2.373608,0.188971,0.201666,16.967773,-212.890625,346.435547,0,0,-0.1242037960563426,0.4604326526392103,0.3667857796759594,0.7672497041781225,-1.372821660213289,0.4536068411177598,-0.1482891109084084,-25.12062997065506,-97.89165830138396,182.5248404029887
8055,2024 10 17,09:01:07.113,-0.476582,-0.461587,0.498677,-0.557788,-1.389691,0.173833,-0.009766,2.685547,-17.089844,-141.845703,0,0,-0.5038295355154331,-0.4937055031683979,0.4727631682005754,-0.5266017667958006,-1.091358253781603,0.109198624898376,-0.0549029129750812,-1.47889042573258,-5.207354048604406,-47.17285295018382,-0.291448,0.675029,0.218669,0.641543,-2.56209,-0.038087,0.218757,15.258789,-207.702637,347.717285,0,0,-0.1325660062535254,0.4711624700072498,0.3593799406921614,0.7609643689692164,-1.4322850772026243,0.4290221490618717,-0.129936805362988,-23.101659022122305,-103.38220723631474,190.78446263283925
8056,2024 10 17,09:01:07.122,-0.469803,-0.453942,0.503971,-0.565008,-1.467818,0.245125,-0.049318,0.12207,-20.446777,-161.193848,0,0,-0.5021282087396615,-0.491717328009978,0.4743235597905466,-0.5285220784560106,-1.1101812410925227,0.1159949436534572,-0.0546236673263271,-1.3988424044459509,-5.969325196174186,-52.87390270267463,-0.291448,0.675029,0.218669,0.641543,-2.56209,-0.038087,0.218757,15.258789,-207.702637,347.717285,0,0,-0.1405101059408491,0.4813557965068873,0.3523443936575533,0.7549933005207555,-1.4887753233424934,0.4056666916087781,-0.1125021150948386,-21.183636621016188,-108.598228724499,198.6311037511973
8057,2024 10 17,09:01:07.130,-0.462092,-0.445058,0.510284,-0.572717,-1.552293,0.288095,-0.064943,-4.882813,-17.700195,-184.631348,0,0,-0.5001263983026784,-0.4893843616094791,0.4761215818010192,-0.5307318245332101,-1.132286829037897,0.1245999464707844,-0.0551396339600108,-1.573040934223653,-6.555868686365477,-59.4617749675409,-0.30726,0.692078,0.204168,0.620431,-2.756432,-0.288095,0.214362,10.803223,-200.256348,342.468262,0,0,-0.1488476006438067,0.4918919066815429,0.3449355739746756,0.7482651854947177,-1.5521581571753689,0.3709786070283392,-0.0961589093400966,-19.584293639965377,-113.18113468827404,205.8229616636374
8058,2024 10 17,09:01:07.138,-0.45275,-0.434802,0.517787,-0.581259,-1.87701,0.422864,-0.123051,-7.080078,-18.188477,-216.796875,0,0,-0.4977575783875443,-0.4866552435290051,0.4782048527109682,-0.5332581833065496,-1.1695229875860018,0.1395131491472451,-0.0585352022620102,-1.8483927875124708,-7.137499102047203,-67.32852996916385,-0.321997,0.707587,0.189643,0.599729,-2.932218,-0.552263,0.258309,6.652832,-186.950684,330.444336,0,0,-0.1575050706116163,0.5026766613474658,0.3371709452759419,0.7408383762199817,-1.6211611493166005,0.3248165266769223,-0.0784355138730918,-18.27243735796711,-116.86961215386032,212.05403038045557
8059,2024 10 17,09:01:07.147,-0.442027,-0.421918,0.526439,-0.591151,-2.088931,0.453139,-0.078127,-13.549805,-27.587891,-258.666992,0,0,-0.4949710494681671,-0.4834183813525549,0.4806165600754198,-0.5361528241412221,-1.2154933882067016,0.1551944416898829,-0.0595147921489097,-2.433463398136847,-8.160018696944842,-76.89545307070566,-0.335514,0.721212,0.175383,0.580107,-2.924406,-1.14066,0.199225,2.319336,-169.189453,313.781738,0,0,-0.1664055170810355,0.5136034282800925,0.3290815480121448,0.7328018074089826,-1.68632339185077,0.2515427003430762,-0.0645524881794372,-17.242848690068755,-119.4856041961673,217.1404157614328
8060,2024 10 17,09:01:07.155,-0.428804,-0.4064,0.5362,-0.602873,-2.281808,0.554704,0.103519,-9.58252,-36.071777,-308.044434,0,0,-0.4916626969947588,-0.4795674622849271,0.4833957320716488,-0.539488832934161,-1.2688091187963666,0.1751699196053887,-0.0513631025414642,-2.790916228230005,-9.5556066120976,-88.45290211717037,-0.347374,0.733472,0.161528,0.561479,-2.878506,-1.871639,0.11475,-6.103516,-158.752441,296.75293,0,0,-0.1754539412269837,0.5245968568660879,0.3207038706115375,0.7242356670385335,-1.7459325222582316,0.1453836153259223,-0.0555873637704653,-16.685882055565315,-121.44894603635892,221.12104147336112
8061,2024 10 17,09:01:07.163,-0.428804,-0.4064,0.5362,-0.602873,-2.281808,0.554704,0.103519,-9.58252,-36.071777,-308.044434,0,0,-0.4885197621450208,-0.4759090891706807,0.4860359454680663,-0.5426580412874529,-1.3194590628565483,0.1941466236251193,-0.043618997414391,-3.1304964168185045,-10.88141513149272,-99.43247871131184,-0.356972,0.744851,0.148376,0.543831,-2.58211,-2.399976,0.187994,-18.676758,-153.808594,272.033691,0,0,-0.1845298441656345,0.5356095640227835,0.3120874770809606,0.7152154336866068,-1.78774139614532,0.0181156345596262,-0.0434082955819421,-16.78542585278705,-123.06692843454098,223.66667394969303
8062,2024 10 17,09:01:07.172,-0.412921,-0.387761,0.54724,-0.61617,-2.627033,0.604999,-0.1919,-14.160156,-43.334961,-361.694336,0,0,-0.4847398240377698,-0.4715016847121467,0.489096148194663,-0.5463336392230802,-1.384837759713721,0.2146892424438633,-0.0510330475436715,-3.681979395977579,-12.504092424918085,-112.54557157574624,-0.356972,0.744851,0.148376,0.543831,-2.58211,-2.399976,0.187994,-18.676758,-153.808594,272.033691,0,0,-0.1931519519573528,0.5460716358216443,0.3039019032269126,0.7066462120022764,-1.827459826338054,-0.1027889471683551,-0.0318381808028449,-16.879992460147697,-124.60401171281391,226.08502480220835
8063,2024 10 17,09:01:07.180,-0.394544,-0.364894,0.559266,-0.631196,-3.005463,0.68508,-0.227058,-21.179199,-60.48584,-421.203613,0,0,-0.4802300328358813,-0.4661713004765394,0.4926046407849299,-0.5505767572619262,-1.4658690217280348,0.2382087803216701,-0.0598342951664879,-4.5568403761787,-14.90317980367218,-127.97847364695892,-0.363577,0.755998,0.137542,0.526651,-2.110416,-2.740318,0.569353,-27.832031,-169.616699,227.844238,0,0,-0.2016732043594851,0.556567954030562,0.2955839080655669,0.6976464514021625,-1.8416076350211517,-0.2346653998099373,-0.0017786217627027,-17.427594387140314,-126.85464607717324,226.17298546209796
8064,2024 10 17,09:01:07.188,-0.37448,-0.337354,0.572579,-0.646614,-3.045503,0.45851,-0.355968,-46.569824,-82.15332,-467.407227,0,0,-0.4749425311940872,-0.4597304354527123,0.4966033587456833,-0.5553786193988299,-1.5448507206416329,0.2492238413055866,-0.0746409804081635,-6.6574895573697646,-18.26568681348857,-144.94991131461097,-0.366635,0.767582,0.13127,0.509083,-1.648976,-2.933195,1.187048,-31.12793,-207.092285,166.137695,0,0,-0.2099212941415109,0.5671186563290339,0.2873682126622885,0.6882182788320543,-1.831976053270094,-0.3695918798194404,0.0576627093254324,-18.1126111677833,-130.86652802331457,223.171220938993
8065,2024 10 17,09:01:07.197,-0.353163,-0.306048,0.586582,-0.661462,-2.983978,-0.008789,-0.158208,-61.096191,-89.233398,-499.450684,0,0,-0.4688535546343828,-0.4520463136800767,0.5011022908083992,-0.5606827884288884,-1.6168070846095512,0.2363231992403073,-0.0788193313877553,-9.379424629501276,-21.81407237281414,-162.67494994888042,-0.366656,0.779629,0.130674,0.490577,-1.573779,-3.219825,1.851131,-23.193359,-249.450684,104.125977,0,0,-0.2177580294344353,0.5777441735125821,0.2795335020291741,0.6783362148904516,-1.8190662006065887,-0.5121035358284685,0.1473361238591607,-18.36664855939413,-136.79573582214886,217.21895874204333
8066,2024 10 17,09:01:07.205,-0.329783,-0.273697,0.599829,-0.675676,-2.848232,-0.163579,-0.227058,-46.936035,-84.289551,-507.507324,0,1,-0.4619000269026637,-0.4431288479960729,0.5060386262679792,-0.566432449007444,-1.6783783303790736,0.2163280892782919,-0.0862312648183675,-11.25725514802621,-24.937846304173437,-179.9165686514364,-0.365036,0.791411,0.134872,0.47141,-2.543535,-3.863888,2.253487,-8.911133,-271.484375,62.683105,0,0,-0.2251219279627135,0.588427514836953,0.2723004269277154,0.6679899041459291,-1.85528964057626,-0.6796927590370451,0.2526436676662027,-17.893872781424424,-143.5301677810414,209.49216605494115
8067,2024 10 17,09:01:07.213,-0.329783,-0.273697,0.599829,-0.675676,-2.848232,-0.163579,-0.227058,-46.936035,-84.289551,-507.507324,0,0,-0.4552941755575305,-0.4346572555962692,0.5107281449545803,-0.5718946265570719,-1.7368710138601198,0.1973327348143773,-0.0932726015774492,-13.0411941406249,-27.905431538964763,-196.29610641886453,-0.362876,0.800084,0.140305,0.45662,-3.572863,-4.294076,2.360424,-0.976563,-195.556641,31.677246,0,0,-0.2320096315645778,0.5990103390951054,0.2657006555813296,0.6574214089386327,-1.9411683085474467,-0.8604119210851928,0.3580326842828926,-17.0480072923532,-146.1314914419893,200.60142005219407
8068,2024 10 17,09:01:07.222,-0.305927,-0.241949,0.610806,-0.689047,-3.23545,0.187506,-0.13477,-41.625977,-86.914063,-494.812012,0,0,-0.4478258167796539,-0.4250218428164558,0.5157320377068513,-0.5777522452292183,-1.8117999631671136,0.1968413980736584,-0.0953474714985767,-14.470433283593652,-30.85586311201652,-211.2219016979213,-0.362876,0.800084,0.140305,0.45662,-3.572863,-4.294076,2.360424,-0.976563,-195.556641,31.677246,0,0,-0.2385529499863489,0.6090640221403502,0.259430872802263,0.647381338491701,-2.0227530431200744,-1.0320951250309331,0.4581522500687479,-16.244435077735538,-148.60274891988985,192.1552113495844
8069,2024 10 17,09:01:07.230,-0.283631,-0.208119,0.620058,-0.701261,-2.705161,0.523453,0.214362,-41.320801,-123.10791,-494.995117,0,0,-0.4396160759406712,-0.4141767006756329,0.5209483358215087,-0.5839276829677573,-1.856468015008758,0.2131719781699755,-0.0798619979236478,-15.81295166941397,-35.4684654564157,-225.4105624630253,-0.361051,0.801229,0.142724,0.455307,-3.116794,-4.165655,2.058657,-8.178711,6.896973,-6.835938,0,0,-0.2446778524870315,0.6186722710333326,0.2535955291621499,0.6377776215671159,-2.0774550909640705,-1.1887731187793864,0.5381774875653105,-15.84114887384876,-140.82776282389537,182.20565388210517
8070,2024 10 17,09:01:07.238,-0.260723,-0.174291,0.627464,-0.712696,-2.253975,1.14359,0.297861,-30.944824,-107.60498,-492.004395,0,0,-0.4306714221436376,-0.4021824156418512,0.5262741190304332,-0.5903660988193694,-1.87634336425832,0.2596928792614767,-0.0609758480274654,-16.56954528594327,-39.07529118359491,-238.740254089874,-0.350253,0.800509,0.143668,0.464616,-13.650807,-4.770165,-0.504898,-191.223145,18.798828,-130.554199,0,0,-0.2499566098626799,0.6277641074816659,0.2480991527040424,0.6291195404887601,-2.656122686415867,-1.367842712840417,0.4860237131870449,-24.61024868015632,-132.8464332827006,166.56766123799989
8071,2024 10 17,09:01:07.247,-0.235481,-0.141961,0.633868,-0.722915,-1.451705,1.439985,0.667013,-20.812988,-79.711914,-495.605469,0,0,-0.4209119010364557,-0.3891713448597587,0.5316538130789116,-0.5969935438784009,-1.855111446045404,0.3187074852984028,-0.0245764056260922,-16.781717421646107,-41.107122324415165,-251.5835148353803,-0.333443,0.789334,0.159261,0.490309,-0.823267,-2.877041,0.638203,9.399414,408.996582,-286.987305,0,0,-0.2541309293695459,0.6358426021075825,0.2436572450688402,0.622179013464322,-2.5644799020950737,-1.443302627198396,0.4936326775276927,-22.909765546148503,-105.75428251856556,143.88991292609987
8072,2024 10 17,09:01:07.255,-0.206255,-0.113929,0.638981,-0.732245,-0.762719,1.142125,1.281777,5.981445,1.342773,-486.14502,0,0,-0.4101790559846329,-0.3754092276167707,0.537020172424966,-0.6037561166844808,-1.8004918237431335,0.3598783610334827,0.0407412646552124,-15.6435593005638,-38.98462755819441,-263.31159009361124,-0.310076,0.765817,0.153723,0.541984,1.933653,3.15537,-4.735496,-148.132324,514.404297,-310.424805,1,0,-0.2569281829010686,0.6423413220022033,0.2391605328153982,0.6181692627911058,-2.33957325699032,-1.213368995838476,0.2321762436513079,-29.17089346884108,-74.74635354263727,121.17417702979486
8073,2024 10 17,09:01:07.263,-0.206255,-0.113929,0.638981,-0.732245,-0.762719,1.142125,1.281777,5.981445,1.342773,-486.14502,0,0,-0.3999828531854012,-0.3623352162359322,0.5421182138037177,-0.6101805608502567,-1.748603182555977,0.3989906929818086,0.1027930514224517,-14.56230908553561,-36.968257530284696,-274.4532615889307,-0.293069,0.766789,0.170846,0.544938,-2.294504,2.368725,3.659291,-104.797363,-160.705566,-292.663574,0,0,-0.2587352237560151,0.6485637059020931,0.2357448061746283,0.6145076996515505,-2.337319794140804,-1.0342642960465522,0.4035319814687426,-32.95221694539902,-79.0443141655054,100.4822894783051
8074,2024 10 17,09:01:07.272,-0.169581,-0.093386,0.64149,-0.742302,-0.445326,0.447279,0.861843,88.989258,113.342285,-496.337891,0,0,-0.3884627605261311,-0.3488877554241356,0.5470868031135319,-0.6167866328077438,-1.683439323428178,0.4014051083327182,0.1407455488513292,-9.384730731258829,-29.452730403770456,-285.54749305948417,-0.293069,0.766789,0.170846,0.544938,-2.294504,2.368725,3.659291,-104.797363,-160.705566,-292.663574,0,0,-0.2604519125682143,0.6544749706069884,0.2324998658658968,0.6110292146689729,-2.335179004433764,-0.8641148312442245,0.5663199323953054,-36.54447424812907,-83.12737675723012,80.82499630438984
8075,2024 10 17,09:01:07.280,-0.137534,-0.082243,0.634783,-0.755891,1.802301,0.624043,1.899472,199.279785,97.229004,-297.546387,0,0,-0.3759163224998246,-0.3355555176529288,0.5514716129578553,-0.6237418511673566,-1.5091523072567692,0.4125370029160822,0.2286818714087627,1.048495055304114,-23.118643683581933,-286.14743775651,-0.284055,0.752847,0.185252,0.564106,-1.020539,-0.229011,-0.127934,38.269043,285.03418,-273.010254,0,0,-0.2616320669398036,0.6593935720766391,0.230137472572602,0.6086830539355241,-2.269447004212075,-0.8323596396820132,0.5316072357755401,-32.803798385722615,-64.71929891936861,63.13323378917034
8076,2024 10 17,09:01:07.288,-0.126784,-0.089247,0.627452,-0.763062,-0.339366,1.561083,0.255379,102.966309,149.108887,29.296875,0,0,-0.3634597063748333,-0.3232400917702823,0.5552706323099624,-0.6307078586089888,-1.4506629918939309,0.4699643027702781,0.2300167278383245,6.144385752538908,-14.507267149402836,-270.3752221186844,-0.280239,0.740558,0.203154,0.575993,-1.83697,-0.384777,1.063509,112.854004,44.98291,-227.111816,0,0,-0.2625624135928134,0.6634517934728071,0.2287882989439719,0.6070485512387479,-2.2478231540014715,-0.8099805076979125,0.5582023239867632,-25.52090826643648,-59.23418847340018,48.62098129971182
8077,2024 10 17,09:01:07.297,-0.125086,-0.111328,0.616952,-0.76898,-1.771538,2.104556,0.288583,186.645508,169.128418,166.564941,0,0,-0.3515410210560916,-0.3126444871817682,0.5583547006944642,-0.6376214656785393,-1.466706742299234,0.5516938876317642,0.2329450414464083,15.169441864911963,-5.325482891932692,-248.5282139627502,-0.278342,0.728495,0.215255,0.587781,-1.707572,-0.377453,0.527848,53.649902,182.250977,-158.203125,0,0,-0.2633513929131728,0.6667039537991668,0.2281116339967733,0.6060851736768105,-2.2208105963013978,-0.7883541323130169,0.556684607787425,-21.562367753114657,-47.15993019973017,38.27977598472623
8078,2024 10 17,09:01:07.305,-0.136673,-0.130472,0.606474,-0.772326,-1.524949,1.484909,0.480483,115.966797,31.311035,250.793457,0,0,-0.340797620003287,-0.3035358628226798,0.5607606656597409,-0.6443566923946124,-1.4696188551842724,0.598354643250176,0.2453219393740879,20.209309621666364,-3.493656997336057,-223.56213041461268,-0.27809,0.714644,0.219853,0.603004,-1.139683,0.079104,-0.662618,37.597656,185.180664,-110.656738,0,0,-0.2640883232675141,0.6691009561092084,0.2276987022969346,0.6059311149929699,-2.166754216486328,-0.7449812256973659,0.4957194773980537,-18.60436656545892,-35.54290048974366,30.832950285489915
8079,2024 10 17,09:01:07.313,-0.136673,-0.130472,0.606474,-0.772326,-1.524949,1.484909,0.480483,115.966797,31.311035,250.793457,0,0,-0.3305913890031227,-0.2948826696815458,0.5630463323767538,-0.6507551577748818,-1.472385362425059,0.6426823610876672,0.2570799924053835,24.997183990583046,-1.753422397469254,-199.84435104388209,-0.281002,0.703536,0.22548,0.612564,-1.400922,0.179205,-0.337413,90.454102,147.216797,-74.768066,0,0,-0.2649340071041384,0.6708227083037479,0.2275877671820879,0.6062627592433214,-2.128462605662011,-0.6987719144124975,0.454062853528151,-13.151443137185977,-26.404915615256478,25.55289947121541
8080,2024 10 17,09:01:07.322,-0.154785,-0.146737,0.595814,-0.774284,-0.935087,1.359905,0.189459,96.008301,-7.141113,285.339355,0,0,-0.3218010695529665,-0.2874753861974685,0.564684715757916,-0.6569315998861377,-1.445520444303806,0.6785434930332838,0.2536989427851143,28.547739841053893,-2.0228069275957914,-175.58516574168794,-0.281002,0.703536,0.22548,0.612564,-1.400922,0.179205,-0.337413,90.454102,147.216797,-74.768066,0,0,-0.2657374067489315,0.6724583728885605,0.2274823788229835,0.6065778212811553,-2.0920855753789103,-0.6548730686918727,0.4144890608517435,-7.971165880326676,-17.723829984493648,20.53685119765464
8081,2024 10 17,09:01:07.330,-0.175773,-0.161119,0.586552,-0.774016,-0.491226,1.01175,0.499039,68.17627,-37.658691,293.457031,0,0,-0.3144996660753182,-0.281157566887595,0.5657780799700202,-0.6627858198918307,-1.3978057220886155,0.6952038183816196,0.2659659456458586,30.5291663490012,-3.8046011312160015,-152.13305590460354,-0.29021,0.690187,0.231435,0.621175,-1.177282,-0.226569,-0.071291,147.521973,173.76709,-36.560059,0,0,-0.2669610364114849,0.6733448042441325,0.2276800098818343,0.6073076802170976,-2.0463453966099645,-0.6334578652572791,0.3902000578091563,-0.1965089363103409,-8.149283985268964,17.682005687771905
8082,2024 10 17,09:01:07.338,-0.194788,-0.176773,0.578363,-0.772208,-0.392102,0.89114,0.314951,54.016113,8.911133,286.193848,0,0,-0.3085140827715523,-0.2759383385432152,0.5664073259715191,-0.6682569288972392,-1.3475205359841846,0.7050006274625386,0.2684151983635657,31.703513681551136,-3.168814424655201,-130.21671070937336,-0.299635,0.677016,0.235282,0.629691,-0.933622,-0.218268,0.013184,108.764648,169.616699,-23.55957,0,0,-0.2685947345909107,0.6735283640319257,0.2280601093877426,0.6084268462062428,-1.9907092267794664,-0.6126983719944151,0.3713492549186984,5.251548910505177,0.7390151639944849,15.61992690338331
8083,2024 10 17,09:01:07.347,-0.211563,-0.193779,0.571242,-0.769008,-0.277352,0.87991,0.476577,43.151855,34.912109,276.733398,0,0,-0.3036665286329746,-0.2718303716160545,0.5666490596729432,-0.6732944824523772,-1.2940121091849752,0.7137460960894115,0.2788232884453874,32.27593074747358,-1.264768253422441,-109.86920527390468,-0.306086,0.666385,0.237242,0.637148,-0.993683,0.097171,-0.160649,75.805664,136.962891,-20.874023,0,0,-0.2704692978613651,0.6731711958303295,0.2285192039183554,0.6098629038959307,-1.9408579154404928,-0.5772049033946943,0.3447493421727635,8.779254664979918,7.550208955794761,13.795229408214144
8084,2024 10 17,09:01:07.355,-0.226585,-0.212648,0.565373,-0.764063,-0.35548,0.89407,0.319834,28.320313,71.044922,278.259277,0,0,-0.2998124522013259,-0.2688712530352517,0.566585256689296,-0.6778329083297583,-1.2470855037257265,0.722762291284941,0.280873824023118,32.0781498600999,2.350716259248681,-90.46278116020945,-0.3129,0.65708,0.239465,0.642648,-1.070345,0.010254,-0.06006,91.369629,118.286133,-7.93457,0,0,-0.2725908329682969,0.672366636038813,0.2290664937224376,0.6115021587011341,-1.897332269668468,-0.5478319582249596,0.3245088750641253,12.908773381730922,13.087005158005024,12.708739437803436
8085,2024 10 17,09:01:07.363,-0.226585,-0.212648,0.565373,-0.764063,-0.35548,0.89407,0.319834,28.320313,71.044922,278.259277,0,0,-0.2961510795912596,-0.2660600903834891,0.5665246438548313,-0.6821444129132703,-1.20250522853944,0.7313276767206939,0.2828218328219621,31.8902580170949,5.785426546286248,-72.02667825219898,-0.319667,0.648431,0.241332,0.647386,-0.735862,-0.12891,0.242683,74.584961,106.872559,-4.577637,0,0,-0.274944641319882,0.6711698542368724,0.2296797690363157,0.6132963507660775,-1.8392587561850449,-0.5268858603137115,0.320417581310919,15.992582762644377,17.77628285010477,11.844420615913265
8086,2024 10 17,09:01:07.372,-0.241249,-0.232797,0.560525,-0.757243,-0.489761,0.881375,0.313974,10.131836,88.195801,286.315918,0,0,-0.2934059756116966,-0.2643969358643146,0.5662246616620897,-0.6858993422676068,-1.166868017112468,0.7388300428846591,0.284379441180864,30.802336916240154,9.905945268971935,-54.10954843958904,-0.319667,0.648431,0.241332,0.647386,-0.735862,-0.12891,0.242683,74.584961,106.872559,-4.577637,0,0,-0.2771807592538879,0.6700329115250288,0.2302623805844999,0.6150008332277737,-1.7840889183757922,-0.5069870672980259,0.3165308522453731,18.92220167451216,22.23109665759953,11.0233177351176
8087,2024 10 17,09:01:07.380,-0.25594,-0.254058,0.556605,-0.748425,-0.662618,0.793481,0.219245,-7.629395,104.309082,296.508789,0,0,-0.2915326768311118,-0.2638799890710989,0.5657436785789853,-0.6890256251542264,-1.1416555162568445,0.7415625907404262,0.2811227191218208,28.880750320428145,14.62610210552334,-36.578631567609584,-0.323201,0.642699,0.242288,0.650981,-0.803735,0.02295,0.023927,35.400391,61.462402,-10.009766,0,0,-0.2794817712911935,0.6686662159487773,0.2308636615552749,0.6167998415663849,-1.7350712224570024,-0.4804902139331246,0.3019006596331044,19.74611114078655,24.192661924719552,9.971663548361718
8088,2024 10 17,09:01:07.388,-0.2711,-0.27576,0.553272,-0.737802,-0.739769,0.672384,0.199225,-23.803711,111.022949,306.396484,0,0,-0.2905110429895561,-0.2644739896175439,0.5651200946500361,-0.6914644438965151,-1.1215611904440022,0.7381036612034048,0.2770278331657297,26.246527254406736,19.44594445024717,-19.4298757892291,-0.325076,0.639738,0.2434,0.652547,-1.007355,0.028809,0.139653,28.198242,30.334473,-6.713867,0,0,-0.2817614827266338,0.6672198051513384,0.2314904784775112,0.6185871994880656,-1.698685411334152,-0.4550252532364683,0.2937882766514492,20.16871768374722,24.49975247848357,9.137387020943631
8089,2024 10 17,09:01:07.397,-0.286395,-0.297971,0.550276,-0.725526,-0.84817,0.546403,0.198737,-34.301758,121.21582,314.51416,0,0,-0.2903052408400783,-0.2661488401366667,0.5643778899175343,-0.6931675217016893,-1.107891630921802,0.7285186281432344,0.2731132915074432,23.2191129916864,24.53443822773481,-2.732673999767645,-0.326691,0.637079,0.244223,0.654033,-0.901883,-0.01709,0.112796,21.54541,31.921387,-6.713867,0,0,-0.2840079585903021,0.6657127648937714,0.2321271045536356,0.6203594895136624,-1.6588452907674442,-0.4331284905746449,0.2847386628188767,20.23755229955986,24.870834204559397,8.344824319896452
8090,2024 10 17,09:01:07.405,-0.301648,-0.320575,0.547279,-0.711847,-0.954131,0.429212,0.187994,-40.405273,128.723145,321.166992,0,0,-0.2908723787980744,-0.2688701481298333,0.5635229454216576,-0.6941014956166048,-1.100203599375712,0.7135532967360727,0.2688573269320711,20.03789369210208,29.743873566348068,13.462309300220737,-0.327023,0.635641,0.24483,0.655038,-0.928739,0.032716,0.054689,7.141113,10.192871,-9.765625,0,0,-0.286158710660787,0.6642091766490829,0.2327622493259538,0.6220934150379793,-1.6223399762290718,-0.4098362660459126,0.2732361796779328,19.582730334581864,24.136936044331424,7.439301853901629
8091,2024 10 17,09:01:07.413,-0.301648,-0.320575,0.547279,-0.711847,-0.954131,0.429212,0.187994,-40.405273,128.723145,321.166992,0,0,-0.2914111598581707,-0.2714553907233416,0.5627107481505748,-0.6949887708357746,-1.0928999694069264,0.6993362318992691,0.2648141605854675,17.015735357496972,34.69283713803066,28.8475434352097,-0.326428,0.635295,0.245431,0.655445,-1.017609,0.092776,0.057619,-1.403809,0.854492,-11.474609,0,0,-0.2881721751277476,0.6627634678166286,0.2333956868596561,0.6237609942860802,-1.592103427417618,-0.3847056527436169,0.2624553206940362,18.53340336785277,22.972813842114853,6.4936063112065465
8092,2024 10 17,09:01:07.422,-0.316685,-0.343522,0.543911,-0.69704,-1.04593,0.348643,0.188971,-41.07666,136.108398,326.843262,0,0,-0.2926748518652621,-0.2750587211871745,0.561770760743046,-0.6950913322939858,-1.09055147093658,0.6818015703043055,0.2610220025561941,14.11111558962212,39.763615181129126,43.74732936344921,-0.326428,0.635295,0.245431,0.655445,-1.017609,0.092776,0.057619,-1.403809,0.854492,-11.474609,0,0,-0.2900849663713602,0.6613900444257972,0.2339974525166732,0.6253451945717763,-1.563378706046737,-0.3608315701064361,0.2522135046593344,17.536542749460132,21.86689775000911,5.595195545646218
8093,2024 10 17,09:01:07.430,-0.331324,-0.366873,0.539871,-0.681298,-1.188513,0.281747,0.183111,-37.719727,141.845703,332.519531,0,0,-0.2946073092719989,-0.2796494351278158,0.5606757727058937,-0.6944016656792864,-1.0954495473897508,0.6617988417890903,0.2571264524283844,11.519573460141014,44.86771957207267,58.185939445276745,-0.325586,0.634983,0.24595,0.655972,-1.035676,0.056642,-0.02295,-4.150391,2.01416,-13.549805,0,0,-0.2918600180527922,0.6600696922045073,0.2345950798908396,0.6268765348431875,-1.5369935707444,-0.3399578916011142,0.2384553294263676,16.452196061987124,20.874260862508653,4.637945518363908
8094,2024 10 17,09:01:07.438,-0.345721,-0.390408,0.534793,-0.664872,-1.334513,0.253914,0.161626,-31.12793,142.944336,339.111328,0,0,-0.297162993808399,-0.285187363371425,0.559381634070599,-0.6929251823953221,-1.1074027200202632,0.6414045996996357,0.2523514298069652,9.387198287133964,49.77155039346904,72.23220887301291,-0.324269,0.634874,0.246393,0.656563,-1.104526,0.093265,-0.04004,-7.8125,-0.183105,-15.991211,0,0,-0.2934804671501526,0.6588099075942819,0.2351849758962976,0.628360858101028,-1.5153701922071798,-0.3182967470210585,0.2245305629550492,15.238961258887766,19.82139256938322,3.606487692445712
8095,2024 10 17,09:01:07.447,-0.359957,-0.414003,0.528402,-0.647939,-1.475631,0.22364,0.145512,-22.888184,140.625,346.252441,0,0,-0.300302694117979,-0.2916281452028537,0.5578326523670691,-0.6906758732755559,-1.12581413401925,0.620516369714654,0.2470094583166169,7.773429172777265,54.31422287379559,85.93322047936226,-0.322984,0.63445,0.2469,0.657415,-1.099643,0.097171,-0.001953,-5.371094,6.774902,-18.249512,0,0,-0.2949556437926449,0.6575919122145678,0.2357707271014827,0.6298135651959765,-1.4945838325968208,-0.2975233596700055,0.2132063848072967,14.208458495943376,19.16906804091406,2.513687707823426
8096,2024 10 17,09:01:07.455,-0.374108,-0.437412,0.520557,-0.630662,-1.609912,0.213385,0.107913,-14.831543,134.521484,352.966309,0,0,-0.30399295941208,-0.2989173379427111,0.5559688697487156,-0.687675179611778,-1.1500190273182875,0.6001598012289212,0.240054635400786,6.643180564138401,58.324585930105805,99.28487490539416,-0.322032,0.633447,0.247442,0.658645,-1.021516,0.067385,0.023927,-1.464844,13.244629,-18.493652,0,0,-0.2963094616030127,0.6563846666038394,0.2363542907464085,0.6312551369361776,-1.4709304409669797,-0.2792779416865052,0.2037424155669319,13.424793371146208,18.87284608886836,1.4633207224322544
8097,2024 10 17,09:01:07.463,-0.388127,-0.460421,0.511254,-0.613179,-1.734428,0.200201,0.069826,-6.713867,127.807617,357.48291,0,0,-0.308199661441476,-0.3069925210455755,0.5537331262612799,-0.683950370631189,-1.1792394759523732,0.5801618611674751,0.2315432036307467,5.975328185931481,61.79873748360051,112.19477666012445,-0.321167,0.632415,0.248051,0.659829,-0.978057,0.052736,0.049318,-1.220703,10.864258,-18.127441,0,0,-0.297552338522862,0.6551861832736474,0.2369391262090881,0.6326838300893688,-1.4462867689186305,-0.26267724460218,0.1960211947885853,12.692518552588895,18.47241668442494,0.4837826363106414
8098,2024 10 17,09:01:07.472,-0.388127,-0.460421,0.511254,-0.613179,-1.734428,0.200201,0.069826,-6.713867,127.807617,357.48291,0,0,-0.3121960283694022,-0.3146639449932967,0.551609169948216,-0.6804118020996295,-1.2069989021547545,0.5611638181091013,0.2234573434492094,5.340868426634907,65.09918145942049,124.4591833271182,-0.321167,0.632415,0.248051,0.659829,-0.978057,0.052736,0.049318,-1.220703,10.864258,-18.127441,0,0,-0.2987330715967189,0.654047624109965,0.2374947198986337,0.6340410885849004,-1.422875280472699,-0.246906582372071,0.188686035049156,11.996857474959452,18.092008750203693,-0.4467785455048907
8099,2024 10 17,09:01:07.480,-0.402015,-0.482926,0.500568,-0.595481,-1.798395,0.193854,0.073733,-0.061035,120.117188,362.792969,0,0,-0.3166869769509321,-0.3230770477436318,0.549057111450805,-0.676165261994648,-1.2365687070470166,0.5427983272036462,0.2159711262767489,5.070773255303162,67.85008178644946,136.3758726107623,-0.320126,0.631644,0.248688,0.660832,-0.987823,0.054689,0.045412,-3.234863,7.080078,-18.554688,0,0,-0.2998027180168829,0.6529274429044667,0.238054383903702,0.6353806341556554,-1.401122666449064,-0.2318268032534674,0.1815223332966982,11.23527145121148,17.541412212693505,-1.3521740182296462
8100,2024 10 17,09:01:07.488,-0.415794,-0.505129,0.488536,-0.577315,-1.888241,0.195807,0.123539,5.065918,116.088867,371.21582,0,0,-0.3216423281033855,-0.3321796453564502,0.5460310558782647,-0.6712227488949156,-1.269152321694666,0.5254487608434638,0.2113495199629114,5.070530492538004,70.26202104712699,148.11786998022416,-0.318865,0.631099,0.249308,0.661729,-0.98001,0.052248,0.019532,-5.737305,3.967285,-19.165039,0,0,-0.3007558321160388,0.6518360207592433,0.2386170647085169,0.6366980524478726,-1.3800670331266107,-0.217623063090794,0.1734228166318633,10.386642628650906,16.86270585205883,-2.242817267318164
8101,2024 10 17,09:01:07.497,-0.429485,-0.527092,0.475196,-0.558485,-1.980529,0.139653,0.172369,9.216309,112.426758,380.554199,0,0,-0.3270344616982162,-0.3419252630886277,0.5424893030843515,-0.6655858614501698,-1.3047211556099323,0.5061589728012906,0.2094004939647658,5.277819417911104,72.37025789477065,159.73968643121293,-0.317348,0.630761,0.249931,0.662544,-1.001984,0.041505,0.028321,-7.507324,1.647949,-20.019531,0,0,-0.3015854405102369,0.6507822697212811,0.2391827614730911,0.637990349825479,-1.36116288147028,-0.2046666599362543,0.1661677258002701,9.49194429721836,16.101968009455888,-3.131652953952256
8102,2024 10 17,09:01:07.505,-0.442812,-0.548825,0.460682,-0.538962,-2.073794,0.043947,0.237312,14.587402,112.731934,387.817383,0,0,-0.3328233386133054,-0.3522702499341963,0.5383989379301339,-0.6592546683776613,-1.3431747978294355,0.483048374161226,0.2107960692665275,5.743298547015549,74.38834170003211,171.14357125965228,-0.315699,0.630508,0.250514,0.663353,-0.997589,0.06006,0.019044,-9.216309,1.037598,-20.324707,0,0,-0.302291118484725,0.649768556235217,0.2397493233994365,0.639258482334205,-1.342984187396766,-0.1914303269394416,0.1588115395102566,8.556531632357443,15.348749508983092,-3.9913056562546423
8103,2024 10 17,09:01:07.513,-0.455237,-0.57042,0.4453,-0.518737,-2.195868,-0.058596,0.295907,21.42334,117.06543,390.625,0,0,-0.3389440216826401,-0.3631777374374865,0.5337439910336272,-0.6522287849587782,-1.3858094579379638,0.4559661554531647,0.2150516158032012,6.527300619664771,76.52219611503051,182.1176426966697,-0.314103,0.630238,0.251114,0.664139,-0.999542,0.041505,0.045412,-8.422852,1.525879,-20.019531,0,0,-0.3028817125604888,0.6487920284234562,0.2403175572294646,0.6405025082174947,-1.3258120780269278,-0.1797835605924695,0.1531415625347437,7.707562450739571,14.657605983533935,-4.792716923441911
