frame,date,time,quaternion_x_left,quaternion_y_left,quaternion_z_left,quaternion_w_left,accel_x_left,accel_y_left,accel_z_left,gyro_x_left,gyro_y_left,gyro_z_left,HS_left,TO_left,filtered_quaternion_x_left,filtered_quaternion_y_left,filtered_quaternion_z_left,filtered_quaternion_w_left,filtered_accel_x_left,filtered_accel_y_left,filtered_accel_z_left,filtered_gyro_x_left,filtered_gyro_y_left,filtered_gyro_z_left,quaternion_x_right,quaternion_y_right,quaternion_z_right,quaternion_w_right,accel_x_right,accel_y_right,accel_z_right,gyro_x_right,gyro_y_right,gyro_z_right,HS_right,TO_right,filtered_quaternion_x_right,filtered_quaternion_y_right,filtered_quaternion_z_right,filtered_quaternion_w_right,filtered_accel_x_right,filtered_accel_y_right,filtered_accel_z_right,filtered_gyro_x_right,filtered_gyro_y_right,filtered_gyro_z_right
12388,2024 10 19,05:25:53.220,0.703772,-0.173833,-0.643057,-0.246911,-0.914579,0.150884,-0.115726,-4.211426,-1.281738,0.305176,0,0,0.703772,-0.173833,-0.643057,-0.246911,-0.914579,0.150884,-0.115726,-4.211426,-1.281738,0.305176,0.243198,-0.635475,-0.24033,-0.692292,-1.020051,-0.035646,0.063478,0.061035,-2.380371,-6.225586,0,0,0.243198,-0.635475,-0.24033,-0.692292,-1.020051,-0.035646,0.063478,0.061035,-2.380371,-6.225586
12389,2024 10 19,05:25:53.229,0.703761,-0.174131,-0.642943,-0.247028,-0.991241,0.154302,-0.069826,-3.356934,-0.427246,-2.807617,0,0,0.70377145,-0.1738479,-0.6430513,-0.24691685,-0.9184121,0.1510549,-0.1134309999999999,-4.168701400000001,-1.2390134,0.1495363499999999,0.242839,-0.635388,-0.24072,-0.692363,-1.008332,-0.037599,0.046876,0.610352,-0.427246,-6.04248,0,0,0.24318005,-0.6354706499999999,-0.2403494999999999,-0.69229555,-1.01946505,-0.0357436499999999,0.0626479,0.0885008499999999,-2.28271475,-6.216430699999999
12390,2024 10 19,05:25:53.237,0.703939,-0.174534,-0.642663,-0.246966,-0.968291,0.124027,-0.107425,-3.112793,-2.990723,-5.554199,0,0,0.7037798274999999,-0.1738822049999999,-0.6430318849999999,-0.2469193075,-0.920906045,0.149703505,-0.1131306999999999,-4.115905980000001,-1.32659888,-0.1356504175,0.242545,-0.635264,-0.241107,-0.692444,-1.007355,-0.044435,0.047365,0.793457,0.0,-5.615234,0,0,0.2431482975,-0.6354603174999999,-0.2403873749999999,-0.6923029725,-1.0188595475,-0.0361782175,0.061883755,0.1237486575,-2.168579012499999,-6.186370864999999
12391,2024 10 19,05:25:53.245,0.704238,-0.17489,-0.642362,-0.246644,-0.929228,0.123051,-0.10596,-0.427246,-2.258301,-7.263184,0,0,0.7038027361249999,-0.1739325947499999,-0.6429983907499999,-0.246905542125,-0.92132214275,0.14837087975,-0.1127721649999999,-3.9314729810000006,-1.373183986,-0.492027096625,0.242545,-0.635264,-0.241107,-0.692444,-1.007355,-0.044435,0.047365,0.793457,0.0,-5.615234,0,0,0.2431181326249999,-0.6354505016249998,-0.2404233562499999,-0.692310023875,-1.0182843201249998,-0.036591056625,0.06115781725,0.157234074625,-2.060150061874999,-6.157814021749999
12392,2024 10 19,05:25:53.254,0.704469,-0.175218,-0.6422,-0.246173,-0.91702,0.132328,-0.128422,0.976563,-0.732422,-7.385254,0,0,0.7038360493187499,-0.1739968650124999,-0.6429584712124998,-0.24686891501875,-0.9211070356124998,0.1475687357625,-0.1135546567499999,-3.686071181950001,-1.3411458867,-0.8366884417937499,0.242253,-0.635134,-0.241461,-0.692543,-0.994171,-0.031251,0.081545,0.976563,0.0,-5.493164,0,0,0.2430748759937499,-0.6354346765437497,-0.2404752384374999,-0.69232167268125,-1.0170786541187498,-0.03632405379375,0.0621771763875,0.19820052089375,-1.957142558781249,-6.124581520662499
12393,2024 10 19,05:25:53.262,0.704612,-0.175571,-0.642115,-0.245734,-0.906766,0.135258,-0.137211,0.12207,0.854492,-6.896973,0,0,0.7038748468528123,-0.1740755717618749,-0.6429162976518749,-0.2468121692678125,-0.9203899838318748,0.1469531989743749,-0.1147374739124999,-3.4956641228525003,-1.231363992365,-1.1397026697040624,0.24206,-0.634971,-0.241864,-0.692618,-1.00296,-0.037599,0.054201,2.319336,0.0,-5.126953,0,0,0.2430241321940624,-0.6354114927165622,-0.2405446765156249,-0.6923364890471875,-1.0163727214128122,-0.0363878011040624,0.0617783675681249,0.3042572948490625,-1.8592854308421864,-6.074700094629374
12394,2024 10 19,05:25:53.270,0.704612,-0.175571,-0.642115,-0.245734,-0.906766,0.135258,-0.137211,0.12207,0.854492,-6.896973,0,0,0.7039117045101717,-0.1741503431737811,-0.6428762327692811,-0.2467582608044218,-0.9197087846402808,0.1463684390256562,-0.1158611502168749,-3.314777416709875,-1.12707119274675,-1.4275661862188591,0.241894,-0.634802,-0.242293,-0.692681,-1.007843,-0.036134,0.065432,2.685547,0.427246,-4.943848,0,0,0.2429676255843593,-0.6353810180807341,-0.2406320926898436,-0.6923537145948281,-1.0159462353421715,-0.0363751110488593,0.0619610491897187,0.4233217801066093,-1.7449588593000769,-6.018157489897905
12395,2024 10 19,05:25:53.279,0.704597,-0.17598,-0.642162,-0.245361,-0.927763,0.119144,-0.118168,-0.732422,3.112793,-5.92041,0,0,0.7039459692846631,-0.1742418260150921,-0.6428405211308169,-0.2466883977642007,-0.9201114954082668,0.1450072170743734,-0.1159764927060311,-3.185659645874381,-0.9150779831094126,-1.6522083769079163,0.241796,-0.634536,-0.242723,-0.692809,-0.992218,-0.041017,0.065432,2.990723,2.01416,-5.004883,0,0,0.2429090443051413,-0.6353387671766975,-0.2407366380553515,-0.6923764788650867,-1.0147598235750628,-0.0366072054964164,0.0621345967302328,0.5516918411012789,-1.557002916335073,-5.96749376540301
12396,2024 10 19,05:25:53.287,0.704518,-0.176359,-0.64229,-0.244981,-0.935087,0.118656,-0.101077,0.0,3.540039,-5.493164,0,0,0.70397457082043,-0.1743476847143374,-0.642812995074276,-0.2466030278759907,-0.9208602706378536,0.1436896562206547,-0.1152315180707296,-3.026376663580661,-0.6923221339539418,-1.8442561580625203,0.241724,-0.634259,-0.243143,-0.692941,-0.994659,-0.051759,0.050295,2.990723,1.647949,-4.638672,0,0,0.2428497920898842,-0.6352847788178625,-0.2408569561525839,-0.6924047049218324,-1.0137547823963096,-0.0373647952215955,0.0615426168937211,0.673643399046215,-1.3967553205183192,-5.901052677132858
12397,2024 10 19,05:25:53.295,0.704415,-0.176668,-0.64248,-0.244557,-0.9429,0.122074,-0.097659,1.342773,4.211426,-5.126953,0,0,0.7039965922794085,-0.1744637004786206,-0.6427963453205623,-0.2465007264821911,-0.9219622571059608,0.1426088734096219,-0.1143528921671931,-2.8079191804016284,-0.4471347272562447,-2.0083910001593943,0.241724,-0.634259,-0.243143,-0.692941,-0.994659,-0.051759,0.050295,2.990723,1.647949,-4.638672,0,0,0.24279350248539,-0.6352334898769693,-0.2409712583449547,-0.6924315196757407,-1.0127999932764942,-0.0380845054605157,0.0609802360490351,0.7894973790939042,-1.2445201044924032,-5.837933643276215
12398,2024 10 19,05:25:53.304,0.704332,-0.176893,-0.642689,-0.244083,-0.941435,0.125004,-0.106937,1.953125,3.601074,-5.004883,0,0,0.704013362665438,-0.1745851654546895,-0.6427909780545342,-0.2463798401580816,-0.9229358942506628,0.1417286297391408,-0.1139820975588334,-2.569866971381547,-0.2447242908934324,-2.1582156001514243,0.241623,-0.634001,-0.243498,-0.693087,-0.9888,-0.046876,0.069338,2.319336,2.01416,-4.455566,0,0,0.2427349773611205,-0.6351718653831208,-0.2410975954277069,-0.6924642936919536,-1.0115999936126694,-0.03852408018749,0.0613981242465833,0.865989310139209,-1.081586099267783,-5.768815261112404
12399,2024 10 19,05:25:53.312,0.704263,-0.177081,-0.642884,-0.24363,-0.939482,0.121586,-0.102542,2.13623,3.78418,-4.699707,0,0,0.7040258445321661,-0.174709957181955,-0.6427956291518074,-0.2462423481501775,-0.9237631995381296,0.1407214982521838,-0.1134100926808917,-2.3345621228124696,-0.0432790763487607,-2.285290170143853,0.241573,-0.633712,-0.243843,-0.693248,-0.998077,-0.051271,0.049318,2.685547,2.380371,-4.089355,0,0,0.2426768784930645,-0.6350988721139647,-0.2412348656563216,-0.6925034790073559,-1.0109238439320358,-0.0391614261781154,0.0607941180342541,0.9569671946322484,-0.9084882443043938,-5.684842248056784
12400,2024 10 19,05:25:53.320,0.704169,-0.177233,-0.643113,-0.243187,-0.94583,0.123539,-0.101077,2.319336,3.845215,-4.089355,0,0,0.7040330023055579,-0.1748361093228572,-0.642811497694217,-0.2460895807426686,-0.9248665395612232,0.1398623733395746,-0.1127934380468471,-2.101867216671846,0.1511456274686772,-2.3754934116366604,0.241471,-0.633449,-0.244167,-0.693409,-0.9888,-0.039064,0.081545,2.01416,1.89209,-4.516602,0,0,0.2426165845684112,-0.6350163785082663,-0.2413814723735055,-0.6925487550569881,-1.009817651735434,-0.0391565548692097,0.0618316621325414,1.009826834900636,-0.768459332089174,-5.626430235653944
12401,2024 10 19,05:25:53.329,0.704169,-0.177233,-0.643113,-0.243187,-0.94583,0.123539,-0.101077,2.319336,3.845215,-4.089355,0,0,0.7040398021902801,-0.1749559538567144,-0.6428265728095061,-0.2459444517055352,-0.925914712583162,0.1390462046725958,-0.1122076161445048,-1.8808070558382537,0.3358490960952434,-2.461186491054827,0.241377,-0.633203,-0.24455,-0.693532,-0.998566,-0.044435,0.048341,2.563477,1.403809,-4.638672,0,0,0.2425546053399906,-0.634925709582853,-0.2415398987548302,-0.6925979173041386,-1.0092550691486624,-0.0394204771257492,0.0611571290259143,1.087509343155604,-0.6598459154847153,-5.577042323871246
12402,2024 10 19,05:25:53.337,0.704086,-0.177356,-0.643319,-0.242792,-0.942412,0.121097,-0.104495,2.13623,3.479004,-3.601074,0,0,0.704042112080766,-0.1750759561638787,-0.6428511941690307,-0.2457868291202584,-0.9267395769540038,0.138148744438966,-0.1118219853372795,-1.679955203046341,0.4930068412904812,-2.5181808665020857,0.241245,-0.633008,-0.24494,-0.693618,-1.003449,-0.048341,0.071291,2.380371,0.793457,-4.699707,0,0,0.2424891250729911,-0.6348298241037102,-0.2417099038170887,-0.6926489214389316,-1.0089647656912293,-0.0398665032694617,0.0616638225746186,1.1521524259978235,-0.5871807697104795,-5.533175557677683
12403,2024 10 19,05:25:53.345,0.704015,-0.177452,-0.643514,-0.242413,-0.9429,0.126469,-0.103519,2.319336,3.051758,-3.417969,0,0,0.7040407564767276,-0.1751947583556847,-0.6428843344605791,-0.2456181376642455,-0.9275475981063036,0.1375647572170177,-0.1114068360704156,-1.4799906428940235,0.6209443992259571,-2.563170273176981,0.241245,-0.633008,-0.24494,-0.693618,-1.003449,-0.048341,0.071291,2.380371,0.793457,-4.699707,0,0,0.2424269188193415,-0.6347387328985247,-0.2418714086262343,-0.6926973753669851,-1.008688977406668,-0.0402902281059886,0.0621451814458877,1.2135633546979323,-0.5181488812249555,-5.491502129793798
12404,2024 10 19,05:25:53.354,0.703937,-0.177563,-0.643715,-0.242022,-0.940458,0.130863,-0.105472,2.13623,3.479004,-3.723145,0,0,0.7040355686528912,-0.1753131704379005,-0.6429258677375501,-0.2454383307810332,-0.9281931182009884,0.1372296693561668,-0.1111100942668948,-1.2991796107493223,0.7638473792646593,-2.621169009518132,0.241166,-0.632711,-0.245301,-0.693789,-1.004913,-0.055177,0.04297,2.746582,2.929688,-4.455566,0,0,0.2423638728783744,-0.6346373462535984,-0.2420428881949225,-0.6927519565986358,-1.0085001785363343,-0.0410345667006892,0.0611864223735933,1.290214286963036,-0.3457570371637077,-5.439705323304107
12405,2024 10 19,05:25:53.362,0.703837,-0.177714,-0.643941,-0.241601,-0.948271,0.12891,-0.097171,2.197266,4.02832,-4.211426,0,0,0.7040256402202466,-0.1754332119160054,-0.6429766243506725,-0.2452464642419815,-0.9291970122909388,0.1368136858883585,-0.11041313955355,-1.124357330211856,0.9270710103014264,-2.700681859042225,0.241108,-0.632404,-0.245612,-0.693979,-1.003937,-0.051759,0.057619,2.13623,2.929688,-4.02832,0,0,0.2423010792344557,-0.6345256789409184,-0.2422213437851764,-0.692813308768704,-1.0082720196095176,-0.0415707883656547,0.0610080512549136,1.3325150726148842,-0.1819847853055223,-5.369136057138902
12406,2024 10 19,05:25:53.370,0.703735,-0.17789,-0.644164,-0.241173,-0.936064,0.124027,-0.10889,1.953125,3.90625,-4.333496,0,0,0.7040111082092343,-0.1755560513202052,-0.6430359931331389,-0.2450427910298825,-0.929540361676392,0.1361743515939406,-0.1103369825758725,-0.9704832137012632,1.076029959786355,-2.7823225660901136,0.241087,-0.63204,-0.245866,-0.694228,-0.987823,-0.052248,0.075686,2.441406,4.333496,-3.601074,0,0,0.2422403752727329,-0.6344013949938725,-0.2424035765959176,-0.6928840433302687,-1.0072495686290417,-0.042104648947372,0.0617419486921679,1.38795961898414,0.0437892539597538,-5.280732954281957
12407,2024 10 19,05:25:53.379,0.703735,-0.17789,-0.644164,-0.241173,-0.936064,0.124027,-0.10889,1.953125,3.90625,-4.333496,0,0,0.7039973027987726,-0.1756727487541949,-0.643092393476482,-0.2448493014783883,-0.9298665435925724,0.1355669840142435,-0.1102646334470789,-0.8243028030162002,1.2175409617970372,-2.859881237785608,0.241074,-0.631664,-0.246106,-0.69449,-0.974639,-0.04297,0.082522,1.831055,3.723145,-3.601074,0,0,0.2421820565090962,-0.6342645252441789,-0.2425886977661217,-0.6929643411637553,-1.0056190401975895,-0.0421479165000034,0.0627809512575595,1.410114388034933,0.2277570412617661,-5.196750006567859
12408,2024 10 19,05:25:53.387,0.703617,-0.178098,-0.644399,-0.240736,-0.936552,0.124027,-0.104007,1.831055,4.394531,-4.699707,0,0,0.703978287658834,-0.1757940113164851,-0.6431577238026578,-0.2446436364044689,-0.9302008164129436,0.1349899848135313,-0.1099517517747249,-0.69153491286539,1.376390463707185,-2.951872525896327,0.241017,-0.631395,-0.24639,-0.694653,-0.9888,-0.044435,0.078616,2.258301,2.01416,-3.78418,0,0,0.2421238036836414,-0.6341210489819699,-0.2427787628778156,-0.6930487741055675,-1.00477808818771,-0.0422622706750032,0.0635727036946816,1.4525237186331863,0.3170771891986778,-5.126121506239466
12409,2024 10 19,05:25:53.395,0.703491,-0.178336,-0.64464,-0.240283,-0.945341,0.122074,-0.090823,1.586914,4.455566,-4.943848,0,0,0.7039539232758922,-0.1759211107506609,-0.6432318376125249,-0.2444256045842455,-0.9309578255922965,0.1343441855728547,-0.1089953141859887,-0.5776124672221206,1.5303492405218262,-3.0514712996015105,0.241017,-0.631395,-0.24639,-0.694653,-0.9888,-0.044435,0.078616,2.258301,2.01416,-3.78418,0,0,0.2420684634994593,-0.6339847465328713,-0.2429593247339248,-0.6931289854002891,-1.0039791837783243,-0.0423709071412531,0.0643248685099475,1.4928125827015268,0.4019313297387439,-5.059024430927492
12410,2024 10 19,05:25:53.404,0.703392,-0.178579,-0.64485,-0.239828,-0.932646,0.118168,-0.10596,1.77002,3.967285,-5.004883,0,0,0.7039258271120976,-0.1760540052131278,-0.6433127457318986,-0.2441957243550332,-0.9310422343126816,0.133535376294212,-0.1088435484766892,-0.4602308438610145,1.6521960284957349,-3.149141884621435,0.240947,-0.631165,-0.24674,-0.694762,-0.999542,-0.052248,0.058596,2.441406,1.159668,-4.150391,0,0,0.2420123903244863,-0.6338437592062277,-0.2431483584972286,-0.6932106361302747,-1.0037573245894085,-0.0428647617841904,0.0640384250844501,1.5402422535664506,0.4398181632518068,-5.013592759381117
12411,2024 10 19,05:25:53.412,0.703281,-0.178797,-0.645083,-0.239365,-0.937529,0.115726,-0.095706,2.13623,4.455566,-4.821777,0,0,0.7038935857564927,-0.1761911549524714,-0.6434012584453036,-0.2439541881372815,-0.9313665725970474,0.1326449074795014,-0.1081866710528548,-0.3304078016679637,1.792364527070948,-3.2327736403903637,0.240805,-0.630957,-0.247095,-0.694874,-0.996612,-0.045412,0.071291,2.01416,1.342773,-4.638672,0,0,0.241952020808262,-0.6336994212459164,-0.2433456905723671,-0.693293804323761,-1.0034000583599378,-0.0429921236949809,0.0644010538302276,1.563938140888128,0.4849659050892164,-4.994846721412061
12412,2024 10 19,05:25:53.420,0.703166,-0.178994,-0.64533,-0.238887,-0.944365,0.112796,-0.104495,2.258301,4.333496,-4.760742,0,0,0.703857206468668,-0.1763312972048479,-0.6434976955230384,-0.2437008287304174,-0.932016493967195,0.1316524621055263,-0.108002087500212,-0.2009723615845655,1.919421100717401,-3.3091720583708453,0.240687,-0.630739,-0.247444,-0.694989,-0.997101,-0.055177,0.042482,1.77002,1.037598,-4.333496,0,0,0.2418887697678489,-0.6335514001836205,-0.2435506060437487,-0.6933785641075728,-1.003085105441941,-0.0436013675102318,0.0633051011387162,1.5742422338437216,0.5125975098347556,-4.961779185341458
12413,2024 10 19,05:25:53.429,0.703166,-0.178994,-0.64533,-0.238887,-0.944365,0.112796,-0.104495,2.258301,4.333496,-4.760742,0,0,0.7038226461452346,-0.1764644323446055,-0.6435893107468864,-0.2434601372938965,-0.9326339192688352,0.13070963900025,-0.1078267331252014,-0.0780086935053372,2.04012484568153,-3.381750555452303,0.240485,-0.630593,-0.247788,-0.695069,-1.019562,-0.04297,0.084475,1.220703,0.732422,-4.882813,0,0,0.2418185812794565,-0.6334034801744395,-0.2437624757415613,-0.6934630859021941,-1.003908950169844,-0.0435697991347202,0.0643635960817804,1.5565652721515355,0.5235887343430178,-4.957830876074385
12414,2024 10 19,05:25:53.437,0.703108,-0.179147,-0.645528,-0.23841,-0.941923,0.115726,-0.099124,2.746582,3.356934,-4.699707,0,0,0.7037869138379728,-0.1765985607273752,-0.6436862452095421,-0.2432076304292017,-0.9330983733053934,0.1299604570502375,-0.1073915964689413,0.0632208411699296,2.105965303397454,-3.447648377679688,0.240412,-0.630239,-0.248116,-0.695298,-1.008332,-0.064943,0.037599,2.502441,4.02832,-4.516602,0,0,0.2417482522154836,-0.6332452561657175,-0.2439801519544832,-0.6935548316070843,-1.0041301026613516,-0.0446384591779842,0.0630253662776914,1.6038590585439587,0.6988252976258669,-4.935769432270665
12415,2024 10 19,05:25:53.445,0.703081,-0.179241,-0.645706,-0.237936,-0.93704,0.106937,-0.090823,2.868652,2.685547,-4.211426,0,0,0.7037516181460741,-0.1767306826910064,-0.6437872329490649,-0.2429440489077416,-0.9332954546401236,0.1288092841977256,-0.1065631666454943,0.2034923991114331,2.1349443882275816,-3.485837258795703,0.240412,-0.630239,-0.248116,-0.695298,-1.008332,-0.064943,0.037599,2.502441,4.02832,-4.516602,0,0,0.2416814396047094,-0.6330949433574315,-0.244186944356759,-0.6936419900267301,-1.004340197528284,-0.045653686219085,0.0617540479638068,1.6487881556167607,0.8653000327445736,-4.914811060657131
12416,2024 10 19,05:25:53.454,0.703108,-0.179278,-0.645835,-0.237476,-0.938017,0.109867,-0.078616,3.540039,1.586914,-3.90625,0,0,0.7037194372387703,-0.1768580485564561,-0.6438896213016116,-0.2426706464623545,-0.9335315319081174,0.1278621699878393,-0.1051658083132195,0.3703197291558615,2.1075428688162026,-3.506857895855918,0.240262,-0.629944,-0.248447,-0.695499,-1.005402,-0.057619,0.059084,1.586914,2.01416,-5.004883,0,0,0.2416104676244739,-0.6329373961895599,-0.2443999471389211,-0.6937348405253936,-1.0043932876518695,-0.0462519519081307,0.0616205455656165,1.6456944478359226,0.9227430311073448,-4.919314657624275
12417,2024 10 19,05:25:53.462,0.703171,-0.179239,-0.645946,-0.237019,-0.935575,0.11182,-0.100101,4.150391,1.159668,-3.479004,0,0,0.7036920153768318,-0.1769770961286333,-0.643992440236531,-0.2423880641392368,-0.9336337053127116,0.1270600614884474,-0.1049125678975586,0.5593232926980685,2.0601491253753923,-3.505465201063122,0.240097,-0.629668,-0.248796,-0.695682,-1.01175,-0.052736,0.069338,2.01416,2.685547,-5.126953,0,0,0.2415347942432502,-0.6327739263800819,-0.244619749781975,-0.6938321984991238,-1.004761123269276,-0.0465761543127242,0.0620064182873356,1.6641177254441264,1.0108832295519776,-4.929696574743061
12418,2024 10 19,05:25:53.470,0.703263,-0.179142,-0.646031,-0.236588,-0.933134,0.107425,-0.101077,4.516602,0.671387,-2.929688,0,0,0.7036705646079902,-0.1770853413222016,-0.6440943682247044,-0.2420980609322749,-0.9336087200470758,0.126078308414025,-0.1047207895026806,0.7571872280631651,1.9907110191066224,-3.476676341009966,0.239926,-0.629342,-0.249167,-0.695902,-1.005402,-0.04883,0.055666,1.89209,2.258301,-5.79834,0,0,0.2414543545310877,-0.6326023300610777,-0.2448471122928763,-0.6939356885741675,-1.0047931671058123,-0.046688846597088,0.0616893973729688,1.67551633917192,1.0732541180743786,-4.973128746005908
12419,2024 10 19,05:25:53.479,0.703263,-0.179142,-0.646031,-0.236588,-0.933134,0.107425,-0.101077,4.516602,0.671387,-2.929688,0,0,0.7036501863775907,-0.1771881742560915,-0.6441911998134692,-0.2418225578856611,-0.933584984044722,0.1251456429933237,-0.1045386000275466,0.9451579666600068,1.9247448181512916,-3.4493269239594677,0.239698,-0.629115,-0.249683,-0.696001,-1.027863,-0.063967,0.051759,3.051758,0.305176,-6.652832,0,0,0.2413665368045333,-0.6324279635580238,-0.2450889066782325,-0.6940389541454591,-1.0059466587505217,-0.0475527542672336,0.0611928775043204,1.7443284222133235,1.0348502121706598,-5.057113908705611
12420,2024 10 19,05:25:53.487,0.703361,-0.178978,-0.646127,-0.236158,-0.940458,0.104495,-0.087893,5.004883,0.488281,-2.502441,0,0,0.7036357270587111,-0.1772776655432869,-0.6442879898227957,-0.2415393299913781,-0.933928634842486,0.1241131108436575,-0.1037063200261692,1.1481442183270063,1.8529216272437268,-3.4019826277614937,0.239412,-0.628841,-0.250252,-0.696143,-1.027863,-0.053713,0.053713,2.807617,0.976563,-7.873535,0,0,0.2412688099643066,-0.6322486153801226,-0.2453470613443208,-0.6941441564381862,-1.0070424758129954,-0.0478607665538719,0.0608188836291044,1.797492851102657,1.0319358515621266,-5.19793496327033
12421,2024 10 19,05:25:53.495,0.703507,-0.178729,-0.646202,-0.235705,-0.936064,0.113285,-0.099124,5.79834,-0.549316,-2.197266,0,0,0.7036292907057756,-0.1773502322661226,-0.6443836903316559,-0.2412476134918092,-0.9340354031003616,0.1235717053014746,-0.1034772040248608,1.380654007410656,1.7328097458815404,-3.3417467963734198,0.239038,-0.628572,-0.250958,-0.69626,-1.042024,-0.04883,0.046388,3.479004,-0.183105,-9.58252,0,0,0.2411572694660913,-0.6320647846111165,-0.2456276082771048,-0.6942499486162768,-1.0087915520223456,-0.0479092282261783,0.0600973394476491,1.8815684085475244,0.9711838089840203,-5.417164215106814
12422,2024 10 19,05:25:53.504,0.703696,-0.178436,-0.646234,-0.235276,-0.940458,0.113285,-0.098636,6.04248,-1.037598,-1.89209,0,0,0.7036326261704868,-0.1774045206528164,-0.644476205815073,-0.2409490328172187,-0.9343565329453436,0.1230573700364009,-0.1032351438236177,1.613745307040123,1.5942893585874631,-3.2692639565547483,0.239038,-0.628572,-0.250958,-0.69626,-1.042024,-0.04883,0.046388,3.479004,-0.183105,-9.58252,0,0,0.2410513059927868,-0.6318901453805607,-0.2458941278632495,-0.6943504511854629,-1.0104531744212284,-0.0479552668148694,0.0594118724752667,1.961440188120148,0.9134693685348192,-5.625432004351473
12423,2024 10 19,05:25:53.512,0.703901,-0.178103,-0.646256,-0.234853,-0.947295,0.11182,-0.094729,6.286621,-1.586914,-1.708984,0,0,0.7036460448619625,-0.1774394446201756,-0.6445651955243193,-0.2406442311763577,-0.9350034562980762,0.1224955015345808,-0.1028098366324368,1.847389091688117,1.4352291906580898,-3.1912499587270107,0.238544,-0.628323,-0.251847,-0.696333,-1.061556,-0.049318,0.059084,3.845215,-1.525879,-12.084961,0,0,0.2409259406931474,-0.6317117881115326,-0.246191771470087,-0.6944495786261897,-1.013008315700167,-0.0480234034741259,0.0593954788515033,2.0556289287141407,0.7915019501080782,-5.948408454133899
12424,2024 10 19,05:25:53.520,0.70416,-0.177748,-0.646227,-0.234423,-0.935087,0.120121,-0.093265,6.347656,-2.380371,-1.89209,0,0,0.7036717426188643,-0.1774548723891668,-0.6446482857481033,-0.2403331696175398,-0.9350076334831724,0.1223767764578518,-0.102332594800815,2.072402437103711,1.2444491811251852,-3.12629196079066,0.237855,-0.62803,-0.252922,-0.696444,-1.081576,-0.041017,0.04004,3.723145,-1.77002,-15.258789,0,0,0.24077239365849,-0.6315276987059559,-0.2465282828965827,-0.6945492996948802,-1.0164366999151586,-0.0476730833004196,0.0584277049089282,2.139004732278434,0.6634258526026742,-6.413927481427204
12425,2024 10 19,05:25:53.529,0.70416,-0.177748,-0.646227,-0.234423,-0.935087,0.120121,-0.093265,6.347656,-2.380371,-1.89209,0,0,0.7036961554879211,-0.1774695287697084,-0.644727221460698,-0.2400376611366628,-0.9350116018090135,0.1222639876349592,-0.1018792150607742,2.2861651152485254,1.063208172068926,-3.064581862751127,0.236954,-0.627732,-0.254265,-0.696531,-1.104526,-0.036134,0.070315,4.638672,-3.662109,-19.165039,0,0,0.2405814739755655,-0.6313379137706582,-0.2469151187517535,-0.6946483847101362,-1.0208411649194007,-0.0470961291353986,0.0590220696634817,2.263988095664512,0.4471491099725404,-7.051483057355844
12426,2024 10 19,05:25:53.537,0.704409,-0.177421,-0.646193,-0.234018,-0.940947,0.114261,-0.098148,6.04248,-2.01416,-1.89209,0,0,0.703731797713525,-0.177467102331223,-0.6448005103876631,-0.2397366780798297,-0.9353083717185628,0.1218638382532112,-0.1016926543077355,2.4739808594860992,0.9093397634654796,-3.0059572696135706,0.235809,-0.627359,-0.25594,-0.696642,-1.126499,-0.058107,0.052248,6.835938,-3.967285,-23.742676,0,0,0.2403428502767872,-0.6311389680821252,-0.2473663628141658,-0.6947480654746294,-1.0261240566734309,-0.0476466726786287,0.0586833661803077,2.492585590881286,0.2264274044739133,-7.886042704488051
12427,2024 10 19,05:25:53.545,0.70467,-0.177086,-0.646155,-0.233591,-0.929228,0.11182,-0.097171,6.103516,-2.13623,-2.075195,0,0,0.7037787078278488,-0.1774480472146618,-0.6448682348682798,-0.2394293941758382,-0.9350043531326346,0.1213616463405506,-0.1014665715923487,2.655457616511794,0.7570612752922057,-2.959419156132892,0.23426,-0.626969,-0.257964,-0.696769,-1.184118,-0.038087,0.043947,5.859375,-6.347656,-30.395508,0,0,0.2400387077629479,-0.6309304696780189,-0.2478962446734575,-0.6948491122008978,-1.034023753839759,-0.0471686890446972,0.0579465478712923,2.6609250613372217,-0.1022767657497823,-9.011515969263648
12428,2024 10 19,05:25:53.554,0.704908,-0.176791,-0.646141,-0.233136,-0.939482,0.122562,-0.101566,6.04248,-1.586914,-2.441406,0,0,0.7038351724364563,-0.1774151948539287,-0.6449318731248658,-0.2391147244670463,-0.9352282354760028,0.1214216640235231,-0.1014715430127313,2.824808735686204,0.6398625115275954,-2.9335184983262472,0.23426,-0.626969,-0.257964,-0.696769,-1.184118,-0.038087,0.043947,5.859375,-6.347656,-30.395508,0,0,0.2397497723748005,-0.6307323961941179,-0.2483996324397847,-0.6949451065908528,-1.041528466147771,-0.0467146045924624,0.0572465704777276,2.8208475582703607,-0.4145457274622932,-10.080715570800466
12429,2024 10 19,05:25:53.562,0.70514,-0.176555,-0.646115,-0.232683,-0.939482,0.127934,-0.097659,5.249023,-1.708984,-2.990723,0,0,0.7039004138146334,-0.1773721851112323,-0.6449910294686225,-0.238793138243694,-0.9354409237022028,0.1217472808223469,-0.1012809158620947,2.9460194489018936,0.5224201859512156,-2.9363787234099346,0.232108,-0.626548,-0.260475,-0.696933,-1.364299,-0.026368,0.008301,3.479004,-9.216309,-40.039063,0,0,0.2393676837560605,-0.630523176384412,-0.2490034008177954,-0.6950445012613101,-1.0576669928403826,-0.0456972743628393,0.0547992919538413,2.8537553803568425,-0.8546338910891786,-11.578632942260445
12430,2024 10 19,05:25:53.570,0.705334,-0.176438,-0.646071,-0.232306,-0.947295,0.121097,-0.099124,3.662109,-1.159668,-3.234863,0,0,0.7039720931239017,-0.1773254758556706,-0.6450450279951914,-0.2384687813315092,-0.9360336275170924,0.1217147667812296,-0.10117307006899,2.9818239264567987,0.4383157766536548,-2.9513029372394377,0.228953,-0.625817,-0.263313,-0.697567,-1.492721,-0.000488,0.092288,-0.854492,-3.723145,-53.588867,0,0,0.2388469495682574,-0.6302878675651914,-0.2497188807769056,-0.6951706261982447,-1.0794196931983635,-0.0434368106446973,0.0566737273561492,2.668343011339,-0.9980594465347196,-13.67914464514742
12431,2024 10 19,05:25:53.579,0.705334,-0.176438,-0.646071,-0.232306,-0.947295,0.121097,-0.099124,3.662109,-1.159668,-3.234863,0,0,0.7040401884677067,-0.1772811020628871,-0.6450963265954317,-0.2381606422649338,-0.9365966961412378,0.1216838784421681,-0.1010706165655405,3.015838180133959,0.3584165878209721,-2.9654809403774656,0.2252,-0.623802,-0.266538,-0.699366,-1.58208,0.00586,-0.004395,-1.098633,13.244629,-68.237305,0,0,0.2381646020898445,-0.6299635741869318,-0.2505598367380603,-0.6953803948883324,-1.1045527085384454,-0.0409719701124624,0.0536202909883417,2.47999421077205,-0.2859250242079836,-16.40705266289005
12432,2024 10 19,05:25:53.587,0.705545,-0.176385,-0.645976,-0.231971,-0.940458,0.115238,-0.099612,2.807617,-2.075195,-3.417969,0,0,0.7041154290443213,-0.1772362969597427,-0.6451403102656601,-0.2378511601516871,-0.9367897613341758,0.1213615845200597,-0.1009976857372634,3.0054271211272607,0.2367360084299234,-2.988105343358592,0.220743,-0.620729,-0.270424,-0.702025,-1.699271,0.033692,0.036622,-0.671387,23.132324,-84.716797,0,0,0.2372935219853523,-0.6295018454775853,-0.2515530449011573,-0.6957126251439157,-1.134288623111523,-0.0372387716068393,0.0527703764389246,2.3224251502334474,0.8849874270024156,-19.822539879745545
12433,2024 10 19,05:25:53.595,0.705778,-0.176356,-0.645842,-0.231654,-0.941923,0.11182,-0.094729,2.685547,-2.13623,-3.601074,0,0,0.7041985575921051,-0.1771922821117556,-0.6451753947523771,-0.2375413021441027,-0.937046423267467,0.1208845052940567,-0.1006842514504003,2.9894331150708977,0.1180877080084273,-3.0187537761906627,0.215907,-0.615979,-0.27506,-0.7059,-1.821345,0.072268,0.084964,3.78418,46.020508,-102.050781,0,0,0.2362241958860847,-0.6288257032037059,-0.2527283926560994,-0.6962219938867199,-1.1686414419559468,-0.0317634330264973,0.0543800576169784,2.395512892721775,3.141763455652294,-23.933951935758262
12434,2024 10 19,05:25:53.604,0.706008,-0.176332,-0.645714,-0.231329,-0.950713,0.11182,-0.097659,2.563477,-2.197266,-3.601074,0,0,0.7042890297124998,-0.1771492680061678,-0.6452023250147582,-0.2372306870368976,-0.9377297521040936,0.1204312800293538,-0.1005329888778802,2.968135309317353,0.0023200226080059,-3.0478697873811296,0.215907,-0.615979,-0.27506,-0.7059,-1.821345,0.072268,0.084964,3.78418,46.020508,-102.050781,0,0,0.2352083360917804,-0.6281833680435206,-0.2538449730232944,-0.6967058941923838,-1.2012766198581497,-0.0265618613751725,0.0559092547361295,2.464946248085686,5.285700682869679,-27.839793388970357
12435,2024 10 19,05:25:53.612,0.706278,-0.176305,-0.645534,-0.231028,-0.946318,0.10889,-0.099612,2.380371,-2.929688,-3.601074,0,0,0.7043884782268748,-0.1771070546058594,-0.6452189087640202,-0.2369205526850527,-0.9381591644988888,0.1198542160278861,-0.1004869394339862,2.938747093851485,-0.1442803785223944,-3.075529998012073,0.210781,-0.609121,-0.280442,-0.711264,-1.778863,0.021485,0.074709,9.521484,69.580078,-120.788574,0,0,0.2339869692871914,-0.6272302496413444,-0.2551748243721297,-0.6974337994827646,-1.230155938865242,-0.0241595183064138,0.056849241999323,2.817773135681402,8.500419548726196,-32.48723241952183
12436,2024 10 19,05:25:53.620,0.706561,-0.17628,-0.645339,-0.230725,-0.939482,0.110843,-0.105472,2.319336,-3.234863,-3.723145,0,0,0.704497104315531,-0.1770657018755664,-0.6452249133258192,-0.2366107750508,-0.9382253062739444,0.1194036552264918,-0.1007361924622869,2.9077765391589105,-0.2988095095962746,-3.107910748111469,0.204832,-0.601009,-0.286581,-0.717428,-1.730033,0.101566,0.026856,7.8125,76.35498,-138.305664,0,0,0.2325292208228318,-0.6259191871592772,-0.2567451331535232,-0.6984335095086264,-1.2551497919219796,-0.0178732423910931,0.0553495798993568,3.067509478897332,11.893147571289887,-37.77815399854574
12437,2024 10 19,05:25:53.629,0.706561,-0.17628,-0.645339,-0.230725,-0.939482,0.110843,-0.105472,2.319336,-3.234863,-3.723145,0,0,0.7046002990997544,-0.1770264167817881,-0.6452306176595283,-0.23631648629826,-0.9382881409602472,0.1189756224651672,-0.1009729828391726,2.8783545122009646,-0.4456121841164609,-3.138672460705896,0.198326,-0.592069,-0.293639,-0.723807,-1.716849,0.066897,0.119144,12.756348,83.984375,-152.099609,0,0,0.2308190597816902,-0.6242266778013132,-0.258589826495847,-0.6997021840331951,-1.2782347523258806,-0.0136347302715385,0.058539300904389,3.5519514049524648,15.497708942725392,-43.49422674861845
12438,2024 10 19,05:25:53.637,0.706861,-0.176241,-0.645127,-0.23043,-0.936552,0.111332,-0.105472,2.319336,-3.356934,-3.601074,0,0,0.7047133341447667,-0.1769871459426987,-0.6452254367765519,-0.236022161983347,-0.9382013339122348,0.1185934413419089,-0.1011979336972139,2.850403586590916,-0.5911782749106378,-3.1617925376706006,0.191673,-0.58166,-0.301135,-0.730924,-1.666555,0.132328,0.156743,19.40918,97.961426,-161.132813,0,0,0.2288617567926057,-0.6220983439112475,-0.2607170851710547,-0.7012632748315353,-1.2976507647095863,-0.0063365937579615,0.0634494858591695,4.344812834704841,19.620894795589123,-49.37615606118752
12439,2024 10 19,05:25:53.645,0.707146,-0.176216,-0.644931,-0.230122,-0.934599,0.10889,-0.10303,2.319336,-3.112793,-3.78418,0,0,0.7048349674375284,-0.1769485886455638,-0.6452107149377242,-0.2357271538841796,-0.9380212172166228,0.1181082692748134,-0.1012895370123532,2.8238502072613696,-0.7172590111651059,-3.1929119107870703,0.185785,-0.57021,-0.30934,-0.738006,-1.649464,-0.063967,0.24659,34.362793,110.290527,-162.17041,0,0,0.2267079189529754,-0.6195039267156851,-0.2631482309125019,-0.7031004110899585,-1.315241426474107,-0.0092181140700635,0.072606511566211,5.8457118429696,24.154376405809668,-55.01586875812815
12440,2024 10 19,05:25:53.654,0.707429,-0.176203,-0.644729,-0.229827,-0.935087,0.108402,-0.104007,2.380371,-2.929688,-3.78418,0,0,0.7049646690656519,-0.1769113092132855,-0.6451866291908379,-0.2354321461899706,-0.9378745063557916,0.1176229558110727,-0.1014254101617356,2.801676246898301,-0.8278804606068506,-3.222475315247717,0.185785,-0.57021,-0.30934,-0.738006,-1.649464,-0.063967,0.24659,34.362793,110.290527,-162.17041,0,0,0.2246617730053266,-0.6170392303799008,-0.2654578193668768,-0.7048456905354605,-1.3319525551504017,-0.0119555583665603,0.0813056859879005,7.27156590082112,28.461183935519184,-60.37359582022174
12441,2024 10 19,05:25:53.662,0.70769,-0.176187,-0.644559,-0.229515,-0.938505,0.113285,-0.101077,2.563477,-2.685547,-3.723145,0,0,0.7051009356123693,-0.1768750937526212,-0.645155247731296,-0.2351362888804721,-0.937906031038002,0.1174060580205191,-0.1014079896536488,2.789766284553386,-0.920763787576508,-3.2475087994853307,0.180555,-0.557255,-0.317296,-0.745782,-1.495163,-0.031251,0.10596,32.775879,126.647949,-158.325195,0,0,0.2224564343550602,-0.6140500188609058,-0.268049728398533,-0.7068925060086875,-1.340113077392881,-0.0129203304482323,0.0825384016885055,8.546781555780065,33.37052218874322,-65.27117577921065
12442,2024 10 19,05:25:53.670,0.70791,-0.17623,-0.644412,-0.229214,-0.953154,0.113285,-0.094729,1.586914,-1.831055,-4.089355,0,0,0.7052413888317508,-0.1768428390649902,-0.6451180853447311,-0.2348401744364484,-0.938668429486102,0.1172000051194931,-0.1010740401709663,2.729623670325717,-0.9662783481976828,-3.289601109511064,0.176895,-0.544091,-0.323898,-0.7535,-1.477096,0.314951,0.327158,33.14209,142.089844,-131.530762,0,0,0.2201783626373072,-0.6105520679178605,-0.2708421419786064,-0.7092228807082531,-1.3469622235232372,0.0034732360741792,0.0947693816040802,9.776546977991062,38.80648827930606,-68.5841550902501
12443,2024 10 19,05:25:53.679,0.70791,-0.17623,-0.644412,-0.229214,-0.953154,0.113285,-0.094729,1.586914,-1.831055,-4.089355,0,0,0.7053748193901632,-0.1768121971117407,-0.6450827810774946,-0.234558865714626,-0.9393927080117968,0.1170042548635185,-0.100756788162418,2.672488186809431,-1.0095171807877985,-3.329588804035511,0.177386,-0.528938,-0.328475,-0.762143,-1.277871,0.439467,0.225593,48.339844,189.147949,-92.834473,0,0,0.2180387445054418,-0.6064713645219676,-0.2737237848796761,-0.7118688866728404,-1.3435076623470752,0.0252729242704703,0.1013105625238762,11.704711829091508,46.323561315340754,-69.7966709857376
12444,2024 10 19,05:25:53.687,0.708117,-0.17636,-0.644264,-0.228892,-0.954131,0.113773,-0.104984,1.159668,-1.77002,-5.065918,0,0,0.705511928420655,-0.1767895872561536,-0.6450418420236199,-0.2342755224288947,-0.940129622611207,0.1168426921203425,-0.1009681487542971,2.5968471774689594,-1.0475423217484086,-3.416405263833735,0.181933,-0.511858,-0.33253,-0.770925,-0.671407,0.446791,0.062502,67.077637,219.177246,-64.819336,0,0,0.2162334572801697,-0.6017406962958692,-0.2766640956356923,-0.7148216923391983,-1.3099026292297211,0.0463488280569468,0.0993701343976823,14.473358087636932,54.96624554957371,-69.54780423645072
12445,2024 10 19,05:25:53.695,0.708337,-0.176597,-0.644068,-0.22858,-0.951201,0.131352,-0.093265,-0.061035,-1.525879,-5.92041,0,0,0.7056531819996223,-0.1767799578933459,-0.6449931499224388,-0.2339907463074499,-0.9406831914806466,0.1175681575143254,-0.1005829913165822,2.463953068595511,-1.071459155660988,-3.541605500642048,0.189233,-0.494366,-0.335006,-0.779464,0.511734,0.997589,-1.092319,74.462891,222.473145,-25.817871,0,0,0.2148834344161612,-0.5963719614810757,-0.2795811908539076,-0.7180538077222385,-1.218820797768235,0.0939108366540994,0.0397856776777982,17.472834733255088,63.34159052209503,-67.36130757462819
12446,2024 10 19,05:25:53.704,0.708449,-0.177125,-0.64389,-0.228326,-0.970244,0.123539,-0.063478,-3.356934,-0.366211,-7.385254,0,0,0.7057929728996412,-0.1767972099986786,-0.6449379924263169,-0.2337075089920774,-0.9421612319066144,0.1178666996386091,-0.0987277417507531,2.172908715165735,-1.0361967478779386,-3.7337879256099455,0.189233,-0.494366,-0.335006,-0.779464,0.511734,0.997589,-1.092319,74.462891,222.473145,-25.817871,0,0,0.2136009126953532,-0.5912716634070219,-0.2823524313112122,-0.7211243173361266,-1.1322930578798232,0.1390947448213945,-0.0168195562060916,20.322337546592333,71.29816824599027,-65.28413574589678
12447,2024 10 19,05:25:53.712,0.70854,-0.178018,-0.643616,-0.22812,-0.975616,0.135258,-0.090823,-7.751465,-0.0,-10.375977,0,0,0.7059303242546591,-0.1768582494987447,-0.644871892805001,-0.2334281335424735,-0.9438339703112836,0.1187362646566787,-0.0983325046632155,1.6766900294074485,-0.9843869104840416,-4.065897379329448,0.197095,-0.485026,-0.338729,-0.781771,0.075198,1.192907,-0.732933,97.900391,83.984375,11.535645,0,0,0.2127756170605855,-0.5859593802366707,-0.2851712597456516,-0.7241566514693202,-1.071918504985832,0.1917853575803247,-0.052625228395787,24.201240219262715,71.93247858369075,-61.44314670860194
12448,2024 10 19,05:25:53.720,0.708502,-0.1794,-0.643376,-0.227832,-1.006867,0.160649,-0.065432,-10.070801,3.967285,-14.404297,0,0,0.7060589080419261,-0.1769853370238075,-0.644797098164751,-0.2331483268653498,-0.9469856217957192,0.1208319014238447,-0.0966874794300547,1.0893154779370755,-0.7368033149598394,-4.582817360362975,0.206124,-0.481005,-0.345263,-0.779064,-0.476089,1.301798,-0.362804,132.873535,49.072266,36.499023,0,0,0.2124430362075562,-0.5807116612248372,-0.288175846758369,-0.7269020188958542,-1.0421270297365404,0.2472859897013085,-0.0681341669759977,29.634854958299577,70.78946795450621,-56.54603822317184
12449,2024 10 19,05:25:53.729,0.708341,-0.18128,-0.643268,-0.22715,-0.964385,0.115726,-0.16895,-11.413574,6.713867,-21.850586,0,0,0.7061730126398297,-0.1772000701726171,-0.6447206432565133,-0.2328484105220823,-0.9478555907059332,0.1205766063526525,-0.1003006054585519,0.4641710040402217,-0.3642697992118474,-5.446205792344826,0.219345,-0.47616,-0.352291,-0.775274,-0.469253,1.067904,-0.850124,171.691895,55.969238,68.603516,0,0,0.2127881343971784,-0.5754840781635954,-0.2913816044204505,-0.7293206179510614,-1.013483328249713,0.288316890216243,-0.1072336586271978,36.7377069603846,70.0484564567809,-50.28856051201325
12450,2024 10 19,05:25:53.737,0.708341,-0.18128,-0.643268,-0.22715,-0.964385,0.115726,-0.16895,-11.413574,6.713867,-21.850586,0,0,0.7062814120078381,-0.1774040666639862,-0.6446480110936876,-0.2325634899959782,-0.9486820611706366,0.1203340760350198,-0.1037330751856243,-0.1297162461617895,-0.010362959251255,-6.266424802727585,0.234264,-0.47248,-0.360234,-0.76949,-0.408216,0.863796,-0.581072,190.368652,49.621582,88.012695,0,0,0.2138619276773194,-0.5703338742554156,-0.294824224199428,-0.7313290870535083,-0.9832199618372276,0.3170908457054309,-0.1309255756958379,44.419254212365374,69.02711273394185,-43.37349773641258
12451,2024 10 19,05:25:53.745,0.707942,-0.183584,-0.6436,-0.225596,-0.984893,0.162114,-0.181646,-6.896973,19.287109,-30.639648,0,0,0.7063644414074461,-0.1777130633307869,-0.6445956105390032,-0.2322151154961793,-0.9504926081121048,0.1224230722332688,-0.1076287214263431,-0.4680790838537,0.9545106387113078,-7.485085962591206,0.250866,-0.468558,-0.367647,-0.763122,-0.101077,0.734886,-1.142125,191.589355,46.081543,107.543945,0,0,0.2157121312934535,-0.5652450805426448,-0.2984653629894566,-0.7329187327008329,-0.939112813745366,0.3379806034201593,-0.181485546911046,51.7777592517471,67.87983424724474,-35.82762559959195
12452,2024 10 19,05:25:53.754,0.707178,-0.186453,-0.644505,-0.223042,-0.977081,0.116214,-0.142094,-2.258301,27.46582,-41.19873,0,0,0.7064051193370737,-0.1781500601642475,-0.644591080012053,-0.2317564597213703,-0.9518220277064994,0.1221126186216054,-0.109351985355026,-0.557590179661015,2.2800761067757422,-9.170768164461643,0.250866,-0.468558,-0.367647,-0.763122,-0.101077,0.734886,-1.142125,191.589355,46.081543,107.543945,0,0,0.2174698247287808,-0.5604107265155125,-0.3019244448399837,-0.7344288960657912,-0.8972110230580979,0.3578258732491514,-0.2295175195654937,58.76833903915974,66.7899196848825,-28.65904706961235
12453,2024 10 19,05:25:53.762,0.706204,-0.18964,-0.645838,-0.219558,-1.07181,0.136723,-0.125492,2.807617,37.04834,-48.950195,0,0,0.70639506337022,-0.1787245571560351,-0.6446534260114504,-0.2311465367353018,-0.9578214263211744,0.1228431376905251,-0.1101589860872746,-0.3893298206779642,4.018489301436955,-11.159739506238562,0.266874,-0.468211,-0.37475,-0.7544,-0.303232,0.664083,-0.749046,182.434082,-0.244141,126.464844,0,0,0.2199400334923418,-0.5558007401897369,-0.3055657225979845,-0.7354274512625016,-0.867512071905193,0.3731387295866938,-0.255493943587219,64.95162618720175,63.43821665063837,-20.90285251613173
12454,2024 10 19,05:25:53.770,0.705164,-0.193126,-0.647435,-0.215114,-1.094272,0.099124,-0.13477,6.530762,37.780762,-58.654785,0,0,0.706333510201709,-0.1794446292982333,-0.6447925047108779,-0.2303449098985367,-0.9646439550051156,0.1216571808059988,-0.1113895367829109,-0.0433252296440658,5.706602936365107,-13.534491780926633,0.283203,-0.469148,-0.380463,-0.744945,-0.415052,0.562517,-0.826197,171.020508,-2.319336,144.042969,0,0,0.2231031818177247,-0.55146810318025,-0.3093105864680853,-0.7359033286993765,-0.8448890683099333,0.3826076431073591,-0.284029096407858,70.25507027784167,60.15033901810645,-12.655561440325144
12455,2024 10 19,05:25:53.779,0.704308,-0.196868,-0.648997,-0.209752,-1.103061,0.094241,0.013672,12.695313,43.151855,-68.481445,0,0,0.7062322346916236,-0.1803157978333217,-0.645002729475334,-0.2293152644036099,-0.97156480725486,0.1202863717656989,-0.1051364599437653,0.5936066818381375,7.578865539546852,-16.2818394418803,0.299529,-0.471514,-0.384757,-0.734792,-0.508805,0.471694,-0.670431,156.860352,-16.296387,160.095215,0,0,0.2269244727268385,-0.5474703980212374,-0.313082907144681,-0.7358477622644076,-0.8280848648944366,0.3870619609519911,-0.3033491915874651,74.58533436394957,56.32800271720112,-4.018022618308885
12456,2024 10 19,05:25:53.787,0.704308,-0.196868,-0.648997,-0.209752,-1.103061,0.094241,0.013672,12.695313,43.151855,-68.481445,0,0,0.7061360229570424,-0.1811434079416556,-0.6452024430015673,-0.2283371011834293,-0.9781396168921168,0.1189841031774139,-0.0991960369465771,1.1986919977462307,9.35751501256951,-18.891819719786284,0.315957,-0.474852,-0.38756,-0.724213,-0.590838,0.407727,-0.626972,144.226074,-19.042969,174.621582,0,0,0.2313760990904965,-0.5438394781201756,-0.3168067617874469,-0.7352660241511872,-0.8162225216497146,0.3880952129043916,-0.3195303320080919,78.0673713457521,52.55945413134106,4.913957612606559
12457,2024 10 19,05:25:53.795,0.703175,-0.200819,-0.651036,-0.203394,-1.143101,0.034181,0.047853,20.935059,48.828125,-75.378418,0,0,0.7059879718091903,-0.1821271875445728,-0.6454941208514889,-0.2270899461242579,-0.986387686047511,0.1147439480185432,-0.0918435850992482,2.1855103478589197,11.331045511941031,-21.71614963379697,0.332468,-0.479149,-0.389248,-0.712999,-0.678243,0.387219,-0.529801,136.169434,-28.076172,188.049316,0,0,0.2364306941359717,-0.5406049542141669,-0.3204288236980745,-0.7341526729436278,-0.809323545567229,0.3880514022591719,-0.3300438654076872,80.97247447846448,48.52767282477401,14.07072553197623
12458,2024 10 19,05:25:53.804,0.702085,-0.204505,-0.653404,-0.19575,-1.044465,-0.056642,0.236824,32.348633,53.833008,-82.885742,0,0,0.7057928232187307,-0.1832460781673441,-0.6458896148089145,-0.225522948818045,-0.9892915517451356,0.106174650617616,-0.0754102058442858,3.693666480465973,13.45614363634398,-24.77462925210712,0.332468,-0.479149,-0.389248,-0.712999,-0.678243,0.387219,-0.529801,136.169434,-28.076172,188.049316,0,0,0.2412325594291731,-0.5375321565034585,-0.3238697825131708,-0.7330949892964465,-0.8027695182888676,0.3880097821462133,-0.3400317221373028,83.73232245454125,44.69748058353531,22.769655055377417
12459,2024 10 19,05:25:53.812,0.70062,-0.207592,-0.656678,-0.186577,-1.014679,-0.10889,0.393567,53.100586,67.749023,-86.303711,0,0,0.7055341820577942,-0.1844633742589769,-0.6464290340684687,-0.2235756513771427,-0.9905609241578788,0.0954214180867352,-0.0519613455520715,6.164012456442674,16.17078760452678,-27.851083339501763,0.349273,-0.484149,-0.390282,-0.70092,-0.796899,0.337901,-0.473159,135.803223,-33.996582,200.012207,0,0,0.2466345814577145,-0.5348629986782856,-0.3271903933875122,-0.7314862398316241,-0.8024759923744241,0.3855043430389027,-0.3466880860304377,86.33586748181419,40.76277745435854,31.631782652608543
12460,2024 10 19,05:25:53.820,0.698795,-0.20949,-0.66097,-0.175835,-0.96292,-0.155278,0.518082,77.270508,77.209473,-85.81543,0,0,0.7051972229549045,-0.185714705546028,-0.6471560823650453,-0.2211886188082855,-0.9891788779499848,0.0828864471823985,-0.0234591782744679,9.71933723362054,19.22272187430044,-30.74930067252668,0.366481,-0.489423,-0.391233,-0.687818,-0.901395,0.234382,-0.440931,142.333984,-40.283203,208.190918,0,0,0.2526269023848287,-0.5325909987443712,-0.3303925237181366,-0.7293028278400429,-0.8074219427557029,0.3779482258869575,-0.3514002317289158,89.13577330772348,36.71047843164061,40.45973941997812
12461,2024 10 19,05:25:53.829,0.696656,-0.209643,-0.66638,-0.163275,-0.991729,-0.10303,0.567888,107.48291,91.491699,-82.885742,0,0,0.7047701618071592,-0.1869111202687266,-0.648117278246793,-0.2182929378678712,-0.9893063840524854,0.0735906248232785,0.0061081806392554,14.607515871939514,22.836170730585412,-33.35612273890034,0.383858,-0.494663,-0.392631,-0.673648,-1.027863,0.087405,-0.488296,152.34375,-47.180176,210.266113,0,0,0.2591884572655873,-0.5306945988071526,-0.3335044475322297,-0.7265200864480407,-0.8184439956179177,0.3634210645926096,-0.35824502014247,92.2961721423373,32.51594571005858,48.95005809897921
12462,2024 10 19,05:25:53.837,0.696656,-0.209643,-0.66638,-0.163275,-0.991729,-0.10303,0.567888,107.48291,91.491699,-82.885742,0,0,0.7043644537168012,-0.1880477142552903,-0.6490304143344533,-0.2155420409744776,-0.989427514849861,0.0647595935821146,0.0341971716072926,19.25128557834254,26.268947144056146,-35.83260370195532,0.400948,-0.499493,-0.395188,-0.658464,-1.127964,-0.034669,-0.457045,167.602539,-56.640625,202.392578,0,0,0.2662764344023079,-0.529134518866795,-0.3365886251556182,-0.7231172821256386,-0.8339199958370217,0.3435165613629791,-0.3631850191353465,96.06149048522045,28.05811717455565,56.62218409403025
12463,2024 10 19,05:25:53.845,0.694266,-0.207861,-0.672749,-0.148983,-1.038606,-0.10596,0.652852,137.390137,97.473145,-79.650879,0,0,0.7038595310309612,-0.1890383785425257,-0.6502163436177305,-0.2122140889257537,-0.991886439107368,0.0562236139030088,0.065129913026928,25.15822814942541,29.82915703685333,-38.02351746685756,0.417575,-0.503607,-0.399423,-0.64224,-1.130894,-0.14893,-0.496109,185.913086,-67.565918,191.467285,0,0,0.2738413626821925,-0.5278581429234551,-0.3397303438978373,-0.7190734180193568,-0.8487686960451706,0.3188942332948301,-0.3698312181785791,100.5540702609594,23.276915415827865,63.36443913932874
12464,2024 10 19,05:25:53.854,0.691891,-0.204181,-0.679607,-0.133158,-1.116733,-0.063967,0.563005,163.330078,101.013184,-76.416016,0,0,0.7032611044794131,-0.1897955096153994,-0.651685876436844,-0.208261284479466,-0.9981287671519996,0.0502140832078584,0.0900236673755816,32.06682064195414,33.38835838501067,-39.94314239351468,0.417575,-0.503607,-0.399423,-0.64224,-1.130894,-0.14893,-0.496109,185.913086,-67.565918,191.467285,0,0,0.2810280445480829,-0.5266455857772823,-0.3427149767029454,-0.7152317471183889,-0.862874961242912,0.2955030216300885,-0.3761451072696502,104.82202104791142,18.73477374503647,69.7695814323623
12465,2024 10 19,05:25:53.862,0.690306,-0.198639,-0.685918,-0.116347,-1.054231,-0.038575,0.614765,186.157227,86.120605,-71.899414,0,0,0.7026133492554425,-0.1902376841346294,-0.6533974826150017,-0.2036655702554927,-1.0009338787943995,0.0457746290474655,0.1162607340068025,39.77134095985643,36.02497071576013,-41.54095597383894,0.433462,-0.507179,-0.405674,-0.624747,-1.197302,-0.374035,-0.459975,204.772949,-85.876465,177.307129,0,0,0.2886497423206787,-0.5256722564884181,-0.3458629278677981,-0.7107075097624694,-0.8795963131807664,0.2620261205485841,-0.3803366019061677,109.81956744551584,13.504211807784646,75.14645881074418
12466,2024 10 19,05:25:53.870,0.689411,-0.19157,-0.691516,-0.09909,-0.998566,-0.015137,0.596698,201.477051,76.23291,-66.040039,0,0,0.7019532317926703,-0.1903042999278979,-0.6553034084842517,-0.1984367917427181,-1.0008154848546795,0.0427290475950922,0.1402825973064624,47.856626461863605,38.035367679972126,-42.76591012514699,0.447723,-0.509966,-0.41447,-0.606378,-1.340373,-0.688498,-0.340342,220.458984,-105.895996,149.658203,0,0,0.2966034052046448,-0.5248869436639971,-0.3492932814744082,-0.705491034274346,-0.902635147521728,0.2144999145211548,-0.3783368718108593,115.35153827324004,7.534201417395414,78.87204602020697
12467,2024 10 19,05:25:53.879,0.689009,-0.182639,-0.696606,-0.081552,-1.129917,0.34962,0.279305,219.970703,64.208984,-53.283691,0,0,0.7013060202030368,-0.189921034931503,-0.6573685380600391,-0.1925925521555822,-1.0072705606119454,0.0580735952153376,0.1472337174411393,56.46233028877042,39.34404849597352,-43.29179916888964,0.459927,-0.51171,-0.425518,-0.587839,-1.480514,-0.918973,-0.210944,227.905273,-119.506836,120.666504,0,0,0.3047695849444125,-0.5242280964807973,-0.3531045174006878,-0.6996084325606287,-0.9315290901456414,0.1578262687950971,-0.3699672282203163,120.97922500957804,1.1821495465256424,80.9617689191966
12468,2024 10 19,05:25:53.887,0.689009,-0.182639,-0.696606,-0.081552,-1.129917,0.34962,0.279305,219.970703,64.208984,-53.283691,0,0,0.700691169192885,-0.1895569331849279,-0.6593304111570372,-0.187040524547803,-1.013402882581348,0.0726509154545707,0.1538372815690823,64.6377489243319,40.58729527117484,-43.79139376044516,0.47072,-0.512404,-0.43765,-0.569497,-1.698294,-1.098178,-0.086428,231.018066,-121.09375,102.783203,0,0,0.3130671056971918,-0.5236368916567574,-0.3573317915306534,-0.6931028609325972,-0.9698673356383594,0.0950260553553422,-0.3557902668093004,126.48116705909914,-4.931645430800639,82.05284062323676
12469,2024 10 19,05:25:53.895,0.691228,-0.171001,-0.699005,-0.065982,-1.23246,0.382336,0.110355,224.182129,4.699707,-21.118164,0,0,0.7002180107332406,-0.1886291365256815,-0.6613141405991853,-0.1809875983204129,-1.0243557384522808,0.0881351696818422,0.1516631674906282,72.6149679281153,38.792915857616094,-42.6577322724229,0.481116,-0.511609,-0.449589,-0.551955,-1.843318,-1.370647,-0.039064,229.797363,-103.45459,91.97998,0,0,0.3214695504123322,-0.5230354970739195,-0.3619446519541207,-0.6860454678859673,-1.0135398688564414,0.0217424025875751,-0.3399539534688354,131.64697685614416,-9.857792659260609,82.54919759207493
12470,2024 10 19,05:25:53.904,0.696546,-0.156724,-0.698194,-0.052795,-0.847194,0.498062,0.144536,232.971191,-43.029785,7.202148,0,0,0.7000344101965785,-0.1870338796993974,-0.663158133569226,-0.1745779684043922,-1.0154976515296663,0.1086315111977501,0.1513068091160968,80.63277908170954,34.701780814735294,-40.16473825880176,0.491415,-0.509324,-0.460274,-0.535955,-1.88287,-1.603076,-0.056154,219.299316,-77.575684,85.327148,0,0,0.3299668228917156,-0.5223499222202235,-0.3668611193564147,-0.6785409444916689,-1.0570063754136192,-0.0594985175418036,-0.3257639557953936,136.02959381333693,-13.243687226297576,82.68809511247119
12471,2024 10 19,05:25:53.912,0.702268,-0.140928,-0.696656,-0.040362,-0.558123,0.359386,0.427747,235.900879,-43.029785,20.751953,0,0,0.7001460896867495,-0.1847285857144275,-0.6648330268907647,-0.1678671699841726,-0.9926289189531832,0.1211692356378625,0.1651288186602919,88.39618407762407,30.81520252399853,-37.11890369586166,0.491415,-0.509324,-0.460274,-0.535955,-1.88287,-1.603076,-0.056154,219.299316,-77.575684,85.327148,0,0,0.3380392317471298,-0.5216986261092122,-0.3715317633885939,-0.6714116472670854,-1.098299556642938,-0.1366773916647134,-0.3122834580056239,140.19307992267005,-16.460287064982694,82.82004775684763
12472,2024 10 19,05:25:53.920,0.706406,-0.124894,-0.696149,-0.027728,-0.651387,0.380871,0.240242,235.778809,-22.644043,20.507813,0,0,0.700459085202412,-0.1817368564287061,-0.6663988255462264,-0.160860211484964,-0.975566823005524,0.1341543238559694,0.1688844777272773,95.76531532374288,28.1422402477986,-34.23756786106858,0.501807,-0.505791,-0.468831,-0.522075,-1.747124,-1.755913,-0.075198,200.98877,-42.602539,81.359863,0,0,0.3462276201597732,-0.5209032448037516,-0.3763967252191642,-0.663944814903731,-1.1307407788107913,-0.2176391720814777,-0.3004291851053427,143.23286442653654,-17.76739966173356,82.74703851900524
12473,2024 10 19,05:25:53.929,0.709901,-0.109211,-0.695622,-0.014964,-0.668966,0.492691,0.282723,231.933594,-19.226074,16.479492,0,0,0.7009311809422913,-0.1781105636072708,-0.6678599842689151,-0.1535654009107158,-0.9602367818552476,0.1520811576631709,0.1745764038409135,102.57372925755573,25.773824535408668,-31.701714868015145,0.511816,-0.501236,-0.475409,-0.510679,-1.509323,-1.833064,-0.121586,178.283691,-17.211914,68.664551,0,0,0.3545070391517846,-0.519919882563564,-0.381347338958206,-0.6562815241585445,-1.1496698898702518,-0.2984104134774039,-0.2914870258500756,144.98540575520968,-17.73962537864688,82.04291414305497
12474,2024 10 19,05:25:53.937,0.709901,-0.109211,-0.695622,-0.014964,-0.668966,0.492691,0.282723,231.933594,-19.226074,16.479492,0,0,0.7013796718951767,-0.1746655854269073,-0.6692480850554694,-0.14663533086518,-0.9456732427624852,0.1691116497800124,0.1799837336488678,109.04172249467793,23.523829608638238,-29.292654524614388,0.520165,-0.4962,-0.481296,-0.501566,-1.330607,-1.808161,-0.076174,155.578613,-9.460449,44.73877,0,0,0.3627899371941954,-0.5187338884353858,-0.3863447720102956,-0.6485457479506173,-1.1587167453767393,-0.3738979428035336,-0.2807213745575718,145.5150661174492,-17.325666559714534,80.17770693590221
12475,2024 10 19,05:25:53.945,0.712648,-0.094077,-0.695179,-0.002894,-0.702658,0.557634,0.181646,219.360352,-13.061523,19.287109,0,0,0.7019430883004179,-0.1706361561555619,-0.6705446308026959,-0.139448264321921,-0.933522480624361,0.1885377672910118,0.1800668469664244,114.557653969944,21.69456197820632,-26.863666348383667,0.526576,-0.490697,-0.487068,-0.494671,-1.188513,-1.700247,-0.041993,135.070801,-5.187988,18.127441,0,0,0.3709792403344856,-0.5173320440136165,-0.3913809334097808,-0.6408520105530864,-1.1602065581079022,-0.440215395663357,-0.2687849558296932,144.99285286157675,-16.718782631728807,77.0751936391071
12476,2024 10 19,05:25:53.954,0.714948,-0.079569,-0.69459,0.00788,-0.689474,0.54738,0.168462,203.00293,-13.061523,24.841309,0,0,0.7025933338853969,-0.1660827983477838,-0.671746899262561,-0.1320818511058249,-0.921320056593143,0.2064798789264612,0.1794866046181031,118.9799177714468,19.956757729296,-24.27841758096448,0.527034,-0.484461,-0.497744,-0.489678,-1.213416,-2.394116,1.095248,128.723145,-84.350586,-87.158203,0,0,0.3787819783177613,-0.5156884918129356,-0.3966990867392918,-0.633293310025432,-1.162867030202507,-0.5379104258801891,-0.2005833080382085,144.1793674684979,-20.100372800142367,68.86352380715175
12477,2024 10 19,05:25:53.962,0.716684,-0.065725,-0.694077,0.017374,-0.599139,0.503433,0.167486,186.584473,-6.896973,30.090332,0,0,0.7032978671911271,-0.1610649084303946,-0.6728634042994329,-0.1246090585505336,-0.9052110037634856,0.2213275349801381,0.178886574387198,122.36014553287448,18.6140711928312,-21.559980101916256,0.527034,-0.484461,-0.497744,-0.489678,-1.213416,-2.394116,1.095248,128.723145,-84.350586,-87.158203,0,0,0.3861945794018732,-0.5141271172222889,-0.4017513324023272,-0.6261125445241603,-1.1653944786923816,-0.6307207045861796,-0.135791742636298,143.406556345073,-23.312883460135247,61.06243746679416
12478,2024 10 19,05:25:53.970,0.717363,-0.052566,-0.694236,0.025756,-0.574236,0.477065,0.135258,171.325684,8.178711,33.996582,0,0,0.7040011238315707,-0.1556399630088748,-0.6739320340844612,-0.1170908056230069,-0.8886622535753114,0.2341144082311312,0.1767051456678381,124.80842245623074,18.09230318318964,-18.78215199682044,0.530487,-0.47181,-0.504614,-0.491267,-2.393628,-2.763268,0.564959,175.231934,70.678711,-91.247559,1,0,0.3934092004317795,-0.5120112613611744,-0.4068944657822108,-0.6193702672979523,-1.2268061547577624,-0.7373480693568706,-0.1007542055044831,144.99782522781936,-18.613303737128483,53.44693764345445
12479,2024 10 19,05:25:53.979,0.716787,-0.040117,-0.69535,0.033097,-0.65334,0.477554,0.067873,156.25,25.146484,37.109375,0,0,0.7046404176399922,-0.1498638148584311,-0.6750029323802381,-0.1095814153418566,-0.8768961408965458,0.2462863878195746,0.1712635383844462,126.3805013334192,18.445012224030155,-15.98757564697942,0.53642,-0.456065,-0.509585,-0.494552,-0.543962,-1.436079,1.972228,124.450684,166.748047,-71.105957,0,0,0.4005597404101905,-0.5092139482931156,-0.4120289924931002,-0.6131293539330547,-1.192663947019874,-0.7722846158890271,0.002894904770741,143.9704681664284,-9.345236200272057,47.21929291128172
12480,2024 10 19,05:25:53.987,0.716787,-0.040117,-0.69535,0.033097,-0.65334,0.477554,0.067873,156.25,25.146484,37.109375,0,0,0.7052477467579926,-0.1443764741155095,-0.6760202857612261,-0.1024474945747637,-0.8657183338517185,0.2578497684285958,0.1660940114652238,127.87397626674824,18.780085812828645,-13.332728114630449,0.551081,-0.440005,-0.501505,-0.501195,1.021027,-2.213935,-2.678793,36.987305,217.773438,8.483887,0,0,0.4080858033896809,-0.5057535008784598,-0.4165027928684451,-0.607532636236402,-1.0819793996688802,-0.8443671350945757,-0.131189490467796,138.62131000810697,2.010697509741549,45.28252261571763
12481,2024 10 19,05:25:53.995,0.715373,-0.028312,-0.697064,0.039258,-0.723167,0.465835,0.000488,140.930176,34.057617,42.175293,0,0,0.7057540094200929,-0.138573250409734,-0.6770724714731647,-0.0953622198460255,-0.8585907671591325,0.268249030007166,0.1578137108919626,128.52678625341082,19.543962372187213,-10.557327058898924,0.538197,-0.451922,-0.502266,-0.503825,-0.930204,1.644093,2.307688,-125.183105,-227.233887,-21.728516,0,0,0.4145913632201968,-0.5030619258345368,-0.4207909532250229,-0.6023472544245818,-1.0743906296854362,-0.7199441283398469,-0.0092456159444062,125.4310892577016,-9.45153171574553,41.93197068493175
12482,2024 10 19,05:25:54.004,0.713558,-0.017042,-0.698997,0.044132,-0.802759,0.420423,-0.034669,126.098633,37.841797,48.64502,0,0,0.7061442089490882,-0.1324966878892473,-0.6781686978995064,-0.0883875088537242,-0.8557991788011758,0.2758577285068077,0.1481895753473645,128.40537859074027,20.458854103577853,-7.597209705953976,0.535354,-0.455277,-0.506338,-0.499741,-2.116276,-0.077151,0.277841,5.371094,1.586914,4.455566,0,0,0.420629495059187,-0.5006726795428099,-0.4250683055637717,-0.5972169417033527,-1.1264848982011644,-0.6878044719228545,0.005108714852814,119.4280894948165,-8.899609429958254,40.05815045068516
12483,2024 10 19,05:25:54.012,0.711647,-0.006243,-0.700871,0.047946,-0.853053,0.341807,-0.067385,114.868164,36.132813,53.161621,0,0,0.7064193485016338,-0.1261840034947849,-0.6793038130045311,-0.081570833411038,-0.8556618698611169,0.2791551920814673,0.1374108465799963,127.72851786120326,21.24255204839896,-4.559268170656277,0.535354,-0.455277,-0.506338,-0.499741,-2.116276,-0.077151,0.27784,5.371094,1.586914,4.455566,0,0,0.4263657203062276,-0.4984028955656694,-0.4291317902855831,-0.592343144618185,-1.175974453291106,-0.6572717983267118,0.0187452791101733,113.72523972007566,-8.37528325846034,38.278021228150905
12484,2024 10 19,05:25:54.020,0.709844,0.004227,-0.702487,0.051135,-0.839869,0.262215,-0.052736,108.520508,33.813477,55.847168,0,0,0.706590581076552,-0.1196634533200457,-0.6804629723543045,-0.0749355417404861,-0.854872226368061,0.278308182477394,0.1279035042509964,126.7681173681431,21.871098295979007,-1.538946362123463,0.540327,-0.450543,-0.501785,-0.503259,-0.382824,-0.210944,-1.081576,13.427734,85.021973,0.671387,0,0,0.4320637842909163,-0.4960099007873859,-0.4327644507713039,-0.5878889373872758,-1.1363169306265506,-0.6349554084103761,-0.0362707848453352,108.71036443407188,-3.7054204455373223,36.39768951674336
12485,2024 10 19,05:25:54.029,0.707858,0.014729,-0.704135,0.053989,-0.861843,0.209967,-0.052736,107.299805,36.376953,59.448242,0,0,0.7066539520227244,-0.1129438306540434,-0.6816465737365892,-0.0684893146534618,-0.8552207650496579,0.2748911233535242,0.1188715290384466,125.79470174973594,22.59639103118005,1.5104130559827105,0.537056,-0.453106,-0.504493,-0.50175,-1.233924,-0.00293,0.603046,-7.324219,-80.200195,-7.385254,0,0,0.4373133950763704,-0.4938647057480166,-0.4363508782327387,-0.583581990517912,-1.1411972840952231,-0.6033541379898574,-0.0043049456030685,102.90863526236828,-7.530159173260456,34.208542340906185
12486,2024 10 19,05:25:54.037,0.707858,0.014729,-0.704135,0.053989,-0.861843,0.209967,-0.052736,107.299805,36.376953,59.448242,0,0,0.7067141544215881,-0.1065601891213412,-0.6827709950497597,-0.0623653989207887,-0.855551876797175,0.271644917185848,0.1102911525865243,124.86995691224914,23.28541912962105,4.407304503183575,0.536744,-0.453349,-0.504771,-0.501585,-1.152379,-0.02002,-0.003906,-3.295898,23.071289,0.549316,0,0,0.4422849253225519,-0.4918389204606157,-0.4397718843211018,-0.5794821409920164,-1.1417563698904618,-0.5741874310903645,-0.004284998322915,97.59840859924984,-6.000086764597433,32.52558102386087
12487,2024 10 19,05:25:54.045,0.705736,0.025526,-0.705745,0.056652,-0.89407,0.166997,-0.040529,109.008789,36.743164,63.720703,0,0,0.7066652467005087,-0.0999558796652742,-0.6839196952972717,-0.0564145289747493,-0.8574777829573162,0.2664125213265556,0.1027501449571981,124.07689851663667,23.95830637314,7.3729744280243965,0.537473,-0.452784,-0.503854,-0.502236,-0.911649,-0.075198,-0.439467,-3.479004,-0.061035,1.342773,0,0,0.4470443290564243,-0.4898861744375849,-0.4429759901050467,-0.5756198339424157,-1.1302510013959386,-0.5492379595358463,-0.0260440984067693,92.54453796928736,-5.703134176367561,30.96644062266783
12488,2024 10 19,05:25:54.054,0.703523,0.036729,-0.707242,0.059282,-0.981964,0.132817,-0.063967,112.304688,36.315918,67.260742,0,0,0.7065081343654832,-0.0931216356820104,-0.685085810532408,-0.0506297025260118,-0.8637020938094504,0.2597327452602277,0.0944142877093381,123.48828799080484,24.576186954483,10.367362806623175,0.535928,-0.45452,-0.505064,-0.501101,-1.232948,-0.053224,0.318369,-2.258301,-28.015137,3.051758,0,0,0.451488512603603,-0.4881178657157057,-0.4460803905997944,-0.5718938922452949,-1.1353858513261417,-0.524437261559054,-0.0088234434864308,87.80439602082299,-6.818734317549183,29.57070649153444
12489,2024 10 19,05:25:54.062,0.701634,0.048317,-0.70818,0.062103,-0.952666,0.078616,-0.038575,117.980957,27.770996,69.213867,0,0,0.706264427647209,-0.0860497038979099,-0.6862405200057876,-0.0449930673997112,-0.8681502891189778,0.2506769079972163,0.0877648233238712,123.21292144126458,24.735927406758847,13.309688016292018,0.535928,-0.45452,-0.505064,-0.501101,-1.232948,-0.053224,0.318369,-2.258301,-28.015137,3.051758,0,0,0.4557104869734228,-0.4864379724299204,-0.4490295710698046,-0.5683542476330301,-1.1402639587598349,-0.5008765984811013,0.0075361786878906,83.30126116978184,-7.878554451671723,28.24475906695772
12490,2024 10 19,05:25:54.070,0.699755,0.060433,-0.708817,0.065331,-0.927763,0.048341,-0.043947,126.403809,28.137207,70.617676,0,0,0.7059389562648485,-0.0787255687030144,-0.6873693440054982,-0.0394768640297256,-0.8711309246630289,0.2405601125973555,0.0811792321576777,123.37246581920137,24.9059913864209,16.175087415477417,0.536958,-0.454018,-0.504108,-0.501417,-0.970244,-0.047365,-0.100589,1.708984,26.367188,7.141113,0,0,0.4597728626247517,-0.4848169738084244,-0.4517834925163143,-0.5650073852513785,-1.131762960821843,-0.4782010185570463,0.0021299197534961,79.22164731129274,-6.166267329088137,27.18957676360983
12491,2024 10 19,05:25:54.079,0.697704,0.073129,-0.709286,0.069106,-0.942412,0.019044,-0.054201,136.047363,27.160645,70.617676,0,0,0.705527208451606,-0.0711328402678637,-0.6884651768052232,-0.0340477208282393,-0.8746949784298773,0.2294843069674877,0.0744102205497938,124.00621067824127,25.018724067099857,18.897216844703543,0.537485,-0.454142,-0.503572,-0.501278,-0.978545,-0.032228,-0.053713,-2.01416,-5.432129,7.385254,0,0,0.4636584694935141,-0.4832832251180031,-0.4543729178904986,-0.5618209159888096,-1.1241020627807508,-0.4559023676291939,-0.0006622262341786,75.15985694572811,-6.1295604126337295,26.199360625429332
12492,2024 10 19,05:25:54.087,0.697704,0.073129,-0.709286,0.069106,-0.942412,0.019044,-0.054201,136.047363,27.160645,70.617676,0,0,0.7051360480290256,-0.0639197482544705,-0.689506217964962,-0.0288900347868274,-0.8780808295083834,0.2189622916191133,0.0679796595223041,124.6082682943292,25.125820113744865,21.48323980246837,0.537211,-0.455027,-0.503747,-0.500593,-1.097201,0.027833,0.267586,-0.671387,-6.896973,6.713867,0,0,0.4673360960188383,-0.481870413862103,-0.4568416219959736,-0.558759520189369,-1.1227570096417132,-0.4317155992477342,0.0127501850775302,71.36829474844171,-6.167931042002043,25.22508594415787
12493,2024 10 19,05:25:54.095,0.695496,0.086339,-0.709514,0.07362,-0.952178,-0.000488,-0.076662,146.606445,27.038574,68.847656,0,0,0.7046540456275743,-0.056406810841747,-0.6905066070667139,-0.023764533047486,-0.8817856880329641,0.2079897770381576,0.0607475765461889,125.70817712961274,25.22145780805762,23.85146061234495,0.538239,-0.454599,-0.503199,-0.500429,-0.990753,-0.008789,-0.021485,7.385254,12.634277,7.019043,0,0,0.4708812412178964,-0.4805068431689978,-0.4591594908961749,-0.5558429941799006,-1.1161568091596274,-0.4105692692853475,0.0110384258236537,68.16914271101962,-5.227820639901941,24.31478379694997
12494,2024 10 19,05:25:54.104,0.693078,0.100007,-0.70951,0.078982,-0.96878,-0.014649,-0.097659,157.531738,26.062012,65.795898,0,0,0.7040752433461955,-0.0485861202996596,-0.6914567767133781,-0.0186272063951117,-0.8861354036313158,0.1968578381862497,0.0528272477188794,127.29935517313208,25.26348551765474,25.948682481727705,0.538767,-0.4545,-0.503268,-0.499882,-1.000031,-0.016602,0.08301,6.103516,-3.417969,4.943848,0,0,0.4742755291570016,-0.4792065010105479,-0.4613649163513662,-0.5530449444709056,-1.110350518701646,-0.3908709058210801,0.014637004532471,65.06586137546863,-5.137328057906844,23.346237007102477
12495,2024 10 19,05:25:54.112,0.690519,0.114077,-0.709164,0.085188,-1.021027,-0.052248,-0.113773,168.09082,23.620605,62.744141,0,0,0.7033974311788858,-0.0404529642846766,-0.6923421378777092,-0.0134364460753561,-0.8928799834497501,0.1844025462769372,0.0444972353329354,129.33892841447548,25.181341491772,27.78845540764132,0.538767,-0.4545,-0.503268,-0.499882,-1.000031,-0.016602,0.08301,6.103516,-3.417969,4.943848,0,0,0.4775001026991515,-0.4779711759600205,-0.4634600705337979,-0.5503867972473603,-1.1048345427665636,-0.3721574605300261,0.0180556543058475,62.11774410669519,-5.051360105011502,22.42611755674735
12496,2024 10 19,05:25:54.120,0.687996,0.128451,-0.70826,0.092358,-1.030305,-0.11182,-0.118168,178.833008,17.089844,58.166504,0,0,0.7026273596199414,-0.0320077660704428,-0.6931380309838236,-0.0081467237715883,-0.8997512342772626,0.1695914189630904,0.0363639735662887,131.81363239375167,24.7767666171834,29.307357837259254,0.539081,-0.454492,-0.503508,-0.499308,-1.063997,-0.026368,0.056642,6.04248,-0.671387,3.601074,0,0,0.4805791475641939,-0.4767972171620194,-0.4654624670071079,-0.5478328573849923,-1.1027926656282352,-0.3548679875035248,0.0199849715905551,59.31398090136043,-4.832361449760926,21.48486537890998
12497,2024 10 19,05:25:54.129,0.685526,0.142903,-0.706753,0.100658,-0.991729,-0.155766,-0.120609,189.025879,10.925293,50.354004,0,0,0.7017722916389443,-0.0232622277669206,-0.6938187794346324,-0.0027064875830089,-0.9043501225633994,0.1533235480149359,0.0285153248879742,134.6742447240641,24.084192936324232,30.35969014539629,0.539472,-0.454228,-0.50354,-0.499094,-1.043489,-0.034181,-0.007324,4.943848,2.441406,1.342773,0,0,0.4835237901859842,-0.4756687563039184,-0.4673663436567525,-0.5453959145157427,-1.0998274823468237,-0.3388336381283485,0.0186195230110273,56.59547425629241,-4.46867307727288,20.47776075996448
12498,2024 10 19,05:25:54.137,0.682816,0.157236,-0.704934,0.110033,-1.000031,-0.131352,-0.145024,196.289063,9.338379,41.19873,0,0,0.700824477056997,-0.0142373163785746,-0.6943745404629007,0.0029304867961415,-0.9091341664352294,0.1390897706141891,0.0198383586435755,137.75498563786087,23.34690223950802,30.901642138126476,0.53957,-0.454075,-0.50369,-0.498975,-1.037141,-0.011719,0.08301,2.319336,0.0,-0.732422,0,0,0.4863261006766849,-0.4745890684887225,-0.4691825264739149,-0.5430748687899555,-1.0966931582294823,-0.322477906221931,0.021839046860476,53.881667343477794,-4.245239423409235,19.41725162196625
12499,2024 10 19,05:25:54.145,0.682816,0.157236,-0.704934,0.110033,-1.000031,-0.131352,-0.145024,196.289063,9.338379,41.19873,0,0,0.6999240532041471,-0.0056636505596459,-0.6949025134397556,0.0082856124563344,-0.9136790081134678,0.1255676820834796,0.0115952407113967,140.68168950596782,22.64647607753262,31.416496531220147,0.539726,-0.453784,-0.503782,-0.498979,-1.029817,-0.019532,0.055666,3.234863,2.746582,-1.464844,0,0,0.4889960956428507,-0.4735488150642863,-0.4709125001502191,-0.5408700753504576,-1.093349350318008,-0.3073306109108344,0.0235303945174522,51.34932712630391,-3.895648352238773,18.37314684086794
12500,2024 10 19,05:25:54.154,0.678611,0.171883,-0.7042,0.118511,-3.372173,0.349132,-2.667562,207.458496,36.193848,54.626465,0,0,0.6988584005439397,0.0032136819683363,-0.6953673877677677,0.0137968818335177,-1.0366037077077943,0.1367458979793056,-0.1223626213241731,144.02052983066943,23.323844673655987,32.57699495465914,0.539938,-0.453399,-0.503868,-0.499012,-1.021027,-0.023927,0.060549,3.78418,3.051758,-1.586914,0,0,0.4915431908607082,-0.472541324311072,-0.4725602751427081,-0.5387771715829347,-1.0897332328021077,-0.2931604303652927,0.0253813247915795,48.9710697699887,-3.5482780346268346,17.37514379882454
12501,2024 10 19,05:25:54.162,0.693669,0.179892,-0.684443,0.134163,-0.069826,-1.795465,0.73928,145.874023,-372.192383,7.141113,0,0,0.6985989305167426,0.0120475978699195,-0.6948211683793792,0.0198151877418418,-0.9882648223224048,0.0401353530803403,-0.0792804902579644,144.11320448913597,3.548033289973187,31.305200856926184,0.539938,-0.453399,-0.503868,-0.499012,-1.021027,-0.023927,0.060549,3.78418,3.051758,-1.586914,0,0,0.4939629313176727,-0.4715842080955184,-0.4741256613855727,-0.536788913003788,-1.0862979211620023,-0.2796987588470281,0.0271397085520006,46.71172528148927,-3.2182762328954926,16.42704090888331
12502,2024 10 19,05:25:54.170,0.697371,0.191698,-0.674244,0.149404,-1.373577,-0.153813,-1.860408,232.36084,-34.973145,1.037598,0,0,0.6985375339909055,0.0210301179764235,-0.6937923099604102,0.0262946283547497,-1.0075304312062845,0.0304379354263233,-0.1683368657450662,148.52558626467916,1.6219743754745275,29.791820714079872,0.540195,-0.452986,-0.50394,-0.499036,-1.014191,-0.026856,0.063478,4.272461,4.02832,-1.281738,0,0,0.4962745347517891,-0.4706542976907424,-0.4756163783162941,-0.5349012673535984,-1.0826925751039025,-0.2670566209046767,0.0289566231244005,44.5897620674148,-2.8559464212507177,15.541601963439144
12503,2024 10 19,05:25:54.179,0.705041,0.201514,-0.659485,0.165495,-0.13184,0.064943,0.187994,214.538574,-244.628906,-5.67627,0,0,0.6988627072913601,0.0300543120776023,-0.6920769444623897,0.0332546469370122,-0.9637459096459704,0.0321631886550071,-0.1505203224578129,151.8262356514452,-10.6905696432992,28.01841617837588,0.540601,-0.45248,-0.503917,-0.49908,-1.000031,-0.032228,0.060549,4.760742,6.103516,-0.610352,0,0,0.4984908580141997,-0.4697455828062053,-0.4770314094004794,-0.5331102039859186,-1.078559496348707,-0.2553151898594428,0.0305362419681805,42.59831106404406,-2.407973300188182,14.734004265267188
12504,2024 10 19,05:25:54.187,0.707169,0.2117,-0.650915,0.177212,-0.991241,0.356945,-1.617237,165.893555,-33.813477,9.399414,0,0,0.6992780219267921,0.0391365964737222,-0.6900188472392702,0.0404525145901616,-0.9651206641636716,0.0484022792222568,-0.2238561563349222,152.52960161887293,-11.846715011134238,27.087466069457083,0.541026,-0.451977,-0.503849,-0.499144,-1.006378,-0.039064,0.036134,4.089355,6.164551,-0.488281,0,0,0.5006176151134897,-0.468857153665895,-0.4783722889304553,-0.5314118937866227,-1.0749504215312715,-0.2445026303664706,0.0308161298697715,40.67286326084186,-1.979347085178773,13.972890002003826
12505,2024 10 19,05:25:54.195,0.707169,0.2117,-0.650915,0.177212,-0.991241,0.356945,-1.617237,165.893555,-33.813477,9.399414,0,0,0.6996725708304525,0.0477647666500361,-0.6880636548773067,0.0472904888606535,-0.966426680955488,0.0638294152611439,-0.2935251985181761,153.19779928792929,-12.945053110577526,26.20306346598423,0.541348,-0.451572,-0.503729,-0.499281,-1.00296,-0.029786,0.072756,2.502441,5.615234,-0.671387,0,0,0.5026541343578151,-0.4679928959826002,-0.4796401244839325,-0.5298053490972915,-1.071350900454708,-0.2337667988481471,0.0329131233762829,38.764342147799766,-1.5996180309198342,13.240676151903632
12506,2024 10 19,05:25:54.204,0.711573,0.218487,-0.641777,0.184527,-0.781274,1.079134,-0.858913,99.243164,-129.211426,22.644043,0,0,0.7002675922889299,0.0563008783175343,-0.6857493221334414,0.0541523144176208,-0.9571690469077136,0.1145946444980867,-0.3217945885922673,150.5000675235328,-18.75837175504865,26.025112442685018,0.541635,-0.451193,-0.503572,-0.499471,-1.00882,-0.035646,0.045412,1.525879,5.92041,-0.915527,0,0,0.5046031776399243,-0.4671529011834702,-0.4808367182597359,-0.5282886316424269,-1.0682243554319724,-0.2238607589057397,0.0335380672074688,36.90241899040978,-1.2236166293738424,12.53286599430845
12507,2024 10 19,05:25:54.212,0.716217,0.221943,-0.634617,0.187178,-0.5215,0.838893,-1.238807,27.160645,-75.927734,24.475098,0,0,0.7010650626744833,0.0645829844016576,-0.6831927060267693,0.0608035986967398,-0.9353855945623278,0.1508095622731824,-0.367645209162654,144.33309639735617,-21.61683986729621,25.947611720550764,0.541635,-0.451193,-0.503572,-0.499471,-1.00882,-0.035646,0.045412,1.525879,5.92041,-0.915527,0,0,0.506454768757928,-0.4663549061242966,-0.4819734823467491,-0.5268477500603055,-1.0652541376603737,-0.2144500209604527,0.0341317638470953,35.133591990889286,-0.8664152979051503,11.860446344593026
12508,2024 10 19,05:25:54.220,0.720088,0.221483,-0.630468,0.186893,-0.370617,0.459975,0.044435,14.770508,-34.362793,13.000488,0,0,0.7020162095407592,0.0724279851815747,-0.6805564707254308,0.0671080687619028,-0.9071471648342114,0.1662678341595233,-0.3470411987045212,137.85496697748837,-22.254137523931405,25.300255534523224,0.5419,-0.450847,-0.503386,-0.499684,-0.992706,-0.024903,0.081057,0.915527,6.04248,-0.793457,0,0,0.5082270303200316,-0.4655795108180818,-0.4830441082294116,-0.5254895625572902,-1.061626730777355,-0.2049726699124301,0.0364780256547405,33.422688741344814,-0.5209705330098926,11.227751177363372
12509,2024 10 19,05:25:54.229,0.718904,0.22207,-0.631925,0.185832,-0.944365,0.052736,-0.685568,-12.573242,26.611328,1.831055,0,0,0.7028605990637212,0.079910085922496,-0.6781248971891592,0.0730442653238076,-0.9090080565925008,0.1605912424515471,-0.3639675387692951,130.3335565286139,-19.810864247734838,24.126795507797063,0.5422,-0.450489,-0.503172,-0.499897,-0.993194,-0.023438,0.067873,1.525879,6.225586,-0.488281,0,0,0.50992567880403,-0.4648249852771776,-0.484050502817941,-0.5242099344294257,-1.0582050942384873,-0.1958959364168085,0.0380477743720035,31.827848254277573,-0.1836427063593979,10.641949568495203
12510,2024 10 19,05:25:54.237,0.71825,0.221853,-0.63283,0.185538,-1.093295,0.240242,0.393567,-11.657715,16.540527,-3.90625,0,0,0.7036300691105352,0.0870072316263712,-0.6758601523297012,0.0786689520576173,-0.9182224037628758,0.1645737803289697,-0.3260908118308303,123.2339929521832,-17.99329468534809,22.72514323240721,0.54252,-0.450117,-0.502992,-0.500066,-0.990265,-0.019044,0.090823,2.01416,5.92041,-0.549316,0,0,0.5115553948638284,-0.4640895860133187,-0.4849975776770439,-0.5230027377079544,-1.0548080895265628,-0.1870533395959681,0.0406865356534033,30.337163841563694,0.121559928958572,10.082386290070442
12511,2024 10 19,05:25:54.245,0.71825,0.221853,-0.63283,0.185538,-1.093295,0.240242,0.393567,-11.657715,16.540527,-3.90625,0,0,0.7043610656550083,0.0937495200450526,-0.6737086447132161,0.0840124044547364,-0.926976033574732,0.1683571913125212,-0.2901079212392888,116.48940755457404,-16.266603601080686,21.39357357078685,0.542829,-0.449728,-0.502864,-0.50021,-1.001007,-0.022462,0.068361,2.380371,5.432129,-0.854492,0,0,0.5131190751206369,-0.4633715067126528,-0.4858908987931917,-0.5218631008225566,-1.0521180350502346,-0.1788237726161697,0.0420702588707332,28.939324199485508,0.3870883825106434,9.53554237556692
12512,2024 10 19,05:25:54.254,0.717705,0.22083,-0.634249,0.184014,-1.197791,0.093753,-0.058596,-13.73291,10.192871,-0.488281,0,0,0.7050282623722579,0.1001035440428,-0.6717356624775553,0.0890124842319996,-0.9405167818959952,0.1646269817468952,-0.2785323251773243,109.97829167684532,-14.943629871026651,20.299480842247505,0.543097,-0.449336,-0.502767,-0.500368,-0.984405,-0.020997,0.097171,2.380371,5.126953,-1.281738,0,0,0.5146179713646051,-0.4626697313770201,-0.486734703853532,-0.5207883457814287,-1.048732383297723,-0.1709324339853611,0.0448252959271965,27.61137653951123,0.6240816133851113,8.994678356788574
12513,2024 10 19,05:25:54.262,0.718261,0.22008,-0.633935,0.183827,-1.058626,0.076174,0.176763,-9.155273,-10.864258,-2.01416,0,0,0.705689899253645,0.10610236684066,-0.6698456293536776,0.0937532100203996,-0.9464222428011956,0.1602043326595504,-0.2557675589184581,104.02161344300306,-14.73966127747532,19.18379880013513,0.543097,-0.449336,-0.502767,-0.500368,-0.984405,-0.020997,0.097171,2.380371,5.126953,-1.281738,0,0,0.5160419227963747,-0.4620030448081691,-0.4875363186608554,-0.5197673284923573,-1.0455160141328368,-0.1634356622860931,0.0474425811308367,26.349826262535668,0.8492251827158557,8.480857538949145
12514,2024 10 19,05:25:54.270,0.71888,0.219602,-0.633305,0.184152,-0.980987,0.092776,-0.132817,-0.854492,-15.258789,-3.234863,0,0,0.7063494042909627,0.111777348498627,-0.6680185978859937,0.0982731495193796,-0.9481504806611356,0.1568329160265729,-0.2496200309725352,98.77780817085292,-14.765617663601551,18.06286571012837,0.543336,-0.44895,-0.502729,-0.500494,-0.987335,-0.024903,0.084475,2.685547,4.089355,-1.586914,0,0,0.517406626656556,-0.4613503925677607,-0.4882959527278125,-0.5188036620677394,-1.042606963426195,-0.1565090291717884,0.0492942020742948,25.16661229940889,1.0112316735800628,7.977468962001688
12515,2024 10 19,05:25:54.279,0.71981,0.219398,-0.632097,0.184911,-0.834986,0.140629,-0.129887,6.103516,-16.967773,-2.502441,0,0,0.7070224340764146,0.1171583810736956,-0.666222517991694,0.1026050420434106,-0.9424922566280788,0.1560227202252442,-0.2436333794239084,94.14409356231026,-14.875725430421474,17.03460037462195,0.543483,-0.448621,-0.502771,-0.500587,-0.989776,-0.024415,0.084964,2.441406,2.563477,-1.89209,0,0,0.5187104453237281,-0.4607139229393727,-0.4890197050914219,-0.5178928289643524,-1.0399654152548852,-0.149904327713199,0.0510776919705801,24.03035198443844,1.0888439399010597,7.483991013901603
12516,2024 10 19,05:25:54.287,0.720169,0.219594,-0.631443,0.185515,-0.893582,0.158208,-0.166021,6.713867,-7.263184,-1.403809,0,0,0.7076797623725939,0.1222801620200108,-0.6644835420921092,0.1067505399412401,-0.9400467437966749,0.156131984213982,-0.239752760452713,89.77258223419474,-14.4950983589004,16.112679905890854,0.543631,-0.448283,-0.502824,-0.500675,-0.989288,-0.027833,0.075198,2.685547,3.112793,-1.89209,0,0,0.5199564730575417,-0.460092376792404,-0.4897099198368507,-0.5170319375161347,-1.037431544492141,-0.143800761327539,0.0522837073720511,22.96311173521652,1.1900413929060067,7.0151869632065225
12517,2024 10 19,05:25:54.295,0.720169,0.219594,-0.631443,0.185515,-0.893582,0.158208,-0.166021,6.713867,-7.263184,-1.403809,0,0,0.7083042242539641,0.1271458539190103,-0.6628315149875038,0.1106887629441781,-0.9377235066068408,0.1562357850032829,-0.2360661724300773,85.619646472485,-14.13350264095538,15.23685546059631,0.543775,-0.447944,-0.502881,-0.500766,-0.990265,-0.029786,0.080569,2.502441,2.685547,-2.075195,0,0,0.5211473994046646,-0.4594849579527838,-0.4903684738450081,-0.516218640640328,-1.035073217267534,-0.138100023261162,0.0536979720034485,21.94007819845569,1.2648166732607065,6.560667865046196
12518,2024 10 19,05:25:54.304,0.720382,0.219739,-0.631018,0.185961,-0.89407,0.167486,-0.142094,3.356934,-4.577637,-1.586914,0,0,0.7089081130412659,0.1317755112230598,-0.6612408392381286,0.1144523747969692,-0.9355408312764988,0.1567982957531188,-0.2313675638085734,81.50651084886074,-13.655709358907613,14.395666987566496,0.543856,-0.447648,-0.502957,-0.500866,-0.995636,-0.031739,0.077151,1.77002,2.075195,-2.319336,0,0,0.5222828294344313,-0.4588931100551446,-0.4909979001527577,-0.5154510086083116,-1.0331013564041571,-0.1327819720981039,0.0548706234032761,20.93157528853291,1.305335589597671,6.116667671793886
12519,2024 10 19,05:25:54.312,0.72037,0.219766,-0.630965,0.186154,-0.893582,0.172857,-0.144536,1.708984,0.976563,-1.831055,0,0,0.7094812073892025,0.1361750356619068,-0.6597270472762222,0.1180374560571207,-0.9334428897126738,0.1576012309654628,-0.2270259856181448,77.5166345064177,-12.92409574096223,13.58433088818817,0.543856,-0.447648,-0.502957,-0.500866,-0.995636,-0.031739,0.077151,1.77002,2.075195,-2.319336,0,0,0.5233614879627096,-0.4583308545523874,-0.4915958551451198,-0.514721758177896,-1.031228088583949,-0.1277298234931987,0.0559846422331123,19.973497524106264,1.3438285601177875,5.694867488204191
12520,2024 10 19,05:25:54.320,0.720057,0.219771,-0.631324,0.186139,-0.913602,0.138676,-0.13477,-0.732422,7.141113,-2.075195,0,0,0.7100099970197424,0.1403548338788114,-0.6583068949124111,0.1214425332542646,-0.93245084522704,0.1566549694171897,-0.2224131863372375,73.6041816810968,-11.920835303914115,12.80135459377876,0.543916,-0.447365,-0.503017,-0.500992,-1.001984,-0.031251,0.064943,1.342773,2.441406,-2.380371,0,0,0.5243892135645741,-0.457782561824768,-0.4921669123878638,-0.5140352702690012,-1.0297658841547517,-0.1229058823185388,0.0564325601214567,19.04196129790095,1.3987074321118982,5.291105563793981
12521,2024 10 19,05:25:54.329,0.719524,0.219841,-0.631879,0.186237,-0.958525,0.135746,-0.045412,2.441406,8.728027,-3.417969,0,0,0.7104856971687553,0.1443291421848709,-0.6569855001667905,0.1246822565915514,-0.933754552965688,0.1556095209463302,-0.2135631270203757,70.04604289704197,-10.888392188718411,11.990388414089823,0.543954,-0.447101,-0.503051,-0.501153,-1.00589,-0.04297,0.064943,1.220703,2.319336,-2.502441,0,0,0.5253674528863455,-0.4572484837335295,-0.4927111167684705,-0.5133911567555511,-1.028572089947014,-0.1189090882026118,0.0568580821153838,18.150898383005902,1.4447388605063032,4.901428235604282
12522,2024 10 19,05:25:54.337,0.718883,0.220053,-0.63242,0.186624,-1.000519,0.134281,-0.053224,5.737305,7.568359,-5.126953,0,0,0.7109055623103174,0.1481153350756273,-0.6557572251584509,0.1277793437619738,-0.9370927753174034,0.1545430948990137,-0.2055461706693569,66.83060600218988,-9.96555462928249,11.13452134338533,0.543949,-0.446869,-0.503059,-0.501357,-1.019074,-0.034181,0.06592,0.0,2.441406,-2.624512,0,0,0.5262965302420282,-0.456729509546853,-0.493228510930047,-0.5127894489177736,-1.0280971854496634,-0.1146726837924812,0.0573111780096146,17.243353463855605,1.494572217480988,4.525131223824068
12523,2024 10 19,05:25:54.345,0.718883,0.220053,-0.63242,0.186624,-1.000519,0.134281,-0.053224,5.737305,7.568359,-5.126953,0,0,0.7113044341948015,0.1517122183218459,-0.6545903639005284,0.1307215765738751,-0.9402640865515332,0.153529990154063,-0.197930062135889,63.77594095208038,-9.088858947818366,10.321447626216065,0.543952,-0.446596,-0.503036,-0.501621,-1.022004,-0.026856,0.069338,0.12207,3.540039,-3.295898,0,0,0.5271793037299267,-0.4562228340695103,-0.4937188853835447,-0.5122310264718849,-1.0277925261771803,-0.1102818496028572,0.0579125191091339,16.38728929066282,1.5968455566069386,4.134079762632863
12524,2024 10 19,05:25:54.354,0.71838,0.220279,-0.632698,0.187351,-0.967315,0.151372,-0.061037,8.117676,3.417969,-6.713867,0,0,0.7116582124850614,0.1551405574057536,-0.653495745705502,0.1335530477451814,-0.9416166322239564,0.1534220906463598,-0.1910854090290945,60.99302770447636,-8.463517550427449,9.46968189490526,0.543958,-0.446252,-0.503006,-0.501951,-1.014191,-0.030763,0.074221,0.12207,4.150391,-4.02832,0,0,0.5280182385434303,-0.4557242923660348,-0.4941832411143674,-0.5117170251482906,-1.0271124498683213,-0.1063059071227143,0.0587279431536772,15.57402832612968,1.7245228287765917,3.72595977450122
12525,2024 10 19,05:25:54.362,0.717967,0.220431,-0.632878,0.188147,-0.924345,0.15479,-0.125004,6.958008,2.624512,-7.263184,0,0,0.7119736518608083,0.1584050795354659,-0.6524648584202268,0.1362827453579223,-0.9407530506127584,0.1534904861140418,-0.1877813385776398,58.291276719252544,-7.909116072906076,8.633038600159997,0.543821,-0.445934,-0.503025,-0.502361,-1.03177,-0.012696,0.075198,-0.793457,2.319336,-5.737305,0,0,0.5288083766162588,-0.4552347777477331,-0.4946253290586491,-0.511249223890876,-1.0273453273749051,-0.1016254117665786,0.0595514459959933,14.755654059823195,1.754263487337762,3.252796535776159
12526,2024 10 19,05:25:54.370,0.717543,0.220456,-0.633151,0.188814,-0.925321,0.155766,-0.11182,4.821777,4.516602,-7.263184,0,0,0.7122521192677679,0.1615076255586926,-0.6514991654992155,0.1389093080900262,-0.9399814480821204,0.1536042618083397,-0.1839832716487578,55.61780173328991,-7.287830169260772,7.838227470151997,0.543821,-0.445934,-0.503025,-0.502361,-1.03177,-0.012696,0.075198,-0.793457,2.319336,-5.737305,0,0,0.5295590077854458,-0.4547697388603464,-0.4950453126057166,-0.5108048126963322,-1.0275665610061595,-0.0971789411782497,0.0603337736961937,13.978198506832037,1.782517112970874,2.803291458987351
12527,2024 10 19,05:25:54.379,0.717061,0.220376,-0.633572,0.189325,-0.948759,0.147465,-0.098148,2.624512,5.737305,-7.263184,0,0,0.7124925633043795,0.164451044280758,-0.6506028072242547,0.1414300926855249,-0.9404203256780144,0.1532972987179227,-0.1796915080663199,52.96813724662541,-6.636573410797733,7.083156896644397,0.543453,-0.445621,-0.50333,-0.502732,-1.071322,-0.014649,0.059572,-0.305176,-0.854492,-8.728027,0,0,0.5302537073961735,-0.4543123019173291,-0.4954595469754307,-0.5104011720615155,-1.0297543329558516,-0.0930524441193372,0.060295685011384,13.264029781490432,1.65066665732233,2.2267255360379834
12528,2024 10 19,05:25:54.387,0.716616,0.220209,-0.634004,0.189759,-0.96292,0.133305,-0.069338,1.831055,5.249023,-7.141113,0,0,0.7126987351391605,0.16723894206672,-0.6497728668630419,0.1438465380512486,-0.9415453093941136,0.1522976837820266,-0.1741738326630039,50.41128313429414,-6.042293590257846,6.371943401812176,0.542814,-0.445212,-0.50385,-0.503263,-1.07767,0.003906,0.050783,-0.915527,-2.258301,-13.183594,0,0,0.5308817220263649,-0.4538572868214626,-0.4958790696266592,-0.5100442634584397,-1.032150116308059,-0.0882045219133703,0.0598200507608148,12.55505194241591,1.4552182744562134,1.456209559236084
12529,2024 10 19,05:25:54.395,0.716616,0.220209,-0.634004,0.189759,-0.96292,0.133305,-0.069338,1.831055,5.249023,-7.141113,0,0,0.7128945983822025,0.169887444963384,-0.6489844235198897,0.1461421611486862,-0.942614043924408,0.1513480495929253,-0.1689320410298537,47.98227172757942,-5.477727760744953,5.696290581721567,0.5419,-0.444705,-0.504791,-0.503754,-1.147496,-0.001953,0.008301,1.708984,-6.530762,-17.39502,0,0,0.5314326359250465,-0.4533996724803895,-0.4963246661453262,-0.5097297502855177,-1.037917410492656,-0.0838919458177018,0.057244098222774,12.012748545295112,1.0559192607334027,0.5136480812742799
12530,2024 10 19,05:25:54.404,0.716255,0.220043,-0.634334,0.190212,-0.95999,0.128422,-0.079592,2.197266,3.173828,-6.835938,0,0,0.7130626184630923,0.1723952227152148,-0.6482519023438953,0.1483456530912519,-0.9434828417281876,0.150201747113279,-0.164465038978361,45.69302144120045,-5.045149972707705,5.069679152635488,0.540669,-0.443958,-0.506265,-0.504256,-1.273965,0.034669,-0.010743,5.065918,-9.094238,-24.108887,0,0,0.5318944541287942,-0.4529275888563699,-0.4968216828380599,-0.5094560627712418,-1.0497197899680233,-0.0779638985268167,0.0538447433116353,11.665407018030356,0.5484113976967325,-0.7174786727894342
12531,2024 10 19,05:25:54.412,0.715995,0.219916,-0.634514,0.190736,-0.963408,0.136235,-0.081545,2.929688,1.220703,-6.469727,0,0,0.7132092375399376,0.1747712615794541,-0.6475650072267005,0.1504651704366893,-0.944479099641778,0.149503409757615,-0.1603190370294429,43.55485476914043,-4.731857324072319,4.492708845003714,0.539631,-0.442363,-0.508101,-0.504923,-1.377483,-0.020997,-0.051759,13.122559,-2.01416,-30.700684,0,0,0.5322812814223545,-0.4523993594135514,-0.4973856486961568,-0.5092294096326797,-1.066107950469622,-0.0751155536004759,0.0485645561460535,11.738264617128838,0.4202828278118958,-2.216638939149963
12532,2024 10 19,05:25:54.420,0.715872,0.219733,-0.634555,0.191273,-0.955107,0.141606,-0.085452,2.380371,-0.915527,-6.469727,0,0,0.7133423756629407,0.1770193485004814,-0.6469145068653654,0.1525055619148548,-0.945010494659689,0.1491085392697343,-0.1565756851779707,41.496130580683406,-4.541040807868702,3.944587052753528,0.539631,-0.442363,-0.508101,-0.504923,-1.377483,-0.020997,-0.051759,13.122559,-2.01416,-30.700684,0,0,0.5326487673512368,-0.4518975414428738,-0.497921416261349,-0.5090140891510457,-1.081676702946141,-0.0724096259204521,0.0435483783387509,11.807479336272396,0.298560686421301,-3.6408411921924646
12533,2024 10 19,05:25:54.429,0.71583,0.219471,-0.634534,0.191797,-0.95706,0.148442,-0.086917,1.342773,-2.197266,-6.713867,0,0,0.7134667568797936,0.1791419310754573,-0.6462954815220971,0.1544701338191121,-0.9456129699267044,0.1490752123062476,-0.1530927509190722,39.48846270164923,-4.423852067475266,3.411664350115851,0.538484,-0.439941,-0.5102,-0.506145,-1.466842,0.092288,0.041505,15.075684,2.197266,-42.419434,0,0,0.5329405289836748,-0.4512997143707302,-0.4985353454482815,-0.5088706346934934,-1.1009349677988338,-0.0641747446244295,0.0434462094218133,11.970889569458777,0.3934959521002359,-5.579770832582842
12534,2024 10 19,05:25:54.437,0.715859,0.219071,-0.634495,0.192278,-0.948759,0.15186,-0.094241,0.0,-2.563477,-7.263184,0,0,0.7135863690358039,0.1811383845216844,-0.6457054574459923,0.1563605271281565,-0.9457702714303692,0.1492144516909352,-0.1501501633731186,37.51403956656677,-4.330833314101502,2.8779219326100582,0.53717,-0.436229,-0.51309,-0.507831,-1.977111,0.040529,0.135258,21.66748,6.347656,-61.828613,0,0,0.533152002534491,-0.4505461786521936,-0.4992630781758674,-0.5088186529588187,-1.1447437694088922,-0.058939557393208,0.0480367989507227,12.455719090985834,0.6912039544952242,-8.3922129409537
12535,2024 10 19,05:25:54.445,0.715859,0.219071,-0.634495,0.192278,-0.948759,0.15186,-0.094241,0.0,-2.563477,-7.263184,0,0,0.7137000005840137,0.1830350152956002,-0.6451449345736926,0.1581564007717487,-0.9459197078588508,0.1493467291063884,-0.1473547052044626,35.63833758823844,-4.2424654983964265,2.370866635979555,0.535135,-0.430655,-0.515579,-0.512196,-2.104556,0.098148,0.160161,10.070801,36.865234,-91.125488,0,0,0.5332511524077664,-0.4495516197195839,-0.500078874267074,-0.5089875203108777,-1.1927343809384476,-0.0510851795235476,0.0536430090031865,12.336473186436542,2.4999054567704637,-12.528876693906014
12536,2024 10 19,05:25:54.454,0.715895,0.218535,-0.634511,0.192701,-0.93997,0.145024,-0.091311,-1.953125,-2.197266,-7.93457,0,0,0.713809750554813,0.1848100145308202,-0.6446132378450079,0.1598836307331612,-0.9456222224659084,0.1491305926510689,-0.1445525199442395,33.75876445882651,-4.140205523476605,1.8555948041805768,0.534077,-0.422215,-0.516484,-0.519366,-1.910215,0.097171,0.089358,11.169434,84.289551,-109.924316,0,0,0.533292444787378,-0.4481847887336047,-0.5008991305537203,-0.5095064442953338,-1.2286084118915253,-0.0436723705473702,0.0554287585530272,12.278121227114717,6.589387733931941,-17.398648659210714
12537,2024 10 19,05:25:54.462,0.71589,0.217901,-0.634625,0.193057,-0.952178,0.142094,-0.084964,-2.990723,-0.915527,-8.483887,0,0,0.7139137630270722,0.1864645638042791,-0.6441138259527575,0.1615422991965031,-0.9459500113426128,0.1487787630185155,-0.1415730939470275,31.921290085885182,-3.978971597302775,1.3386207139715482,0.533133,-0.411924,-0.517032,-0.527983,-1.820856,0.139164,-0.125492,9.82666,94.970703,-127.990723,0,0,0.533284472548009,-0.4463717492969244,-0.5017057740260342,-0.510430272080567,-1.258220791296949,-0.0345305520200017,0.0463827206253758,12.15554816575898,11.008453497235344,-22.928252376250175
12538,2024 10 19,05:25:54.470,0.715887,0.21718,-0.634778,0.19338,-0.932646,0.136723,-0.118168,-4.333496,-0.915527,-8.728027,0,0,0.7140124248757186,0.1880003356140652,-0.6436470346551195,0.163134184236678,-0.945284810775482,0.1481759748675897,-0.1404028392496761,30.108550781590925,-3.825799367437636,0.8352883282729706,0.533133,-0.411924,-0.517032,-0.527983,-1.820856,0.139164,-0.125492,9.82666,94.970703,-127.990723,0,0,0.5332768989206085,-0.4446493618320782,-0.5024720853247325,-0.5113079084765386,-1.2863525517321015,-0.0258458244190016,0.037788984594107,12.039103757471027,15.206565972373577,-28.18137590743767
12539,2024 10 19,05:25:54.479,0.715813,0.216425,-0.635027,0.193681,-0.934111,0.133305,-0.101077,-4.211426,0.915527,-9.155273,0,0,0.7141024536319327,0.1894215688333619,-0.6432160329223635,0.1646615250248441,-0.944726120236708,0.1474324261242103,-0.1384365472871923,28.39255194251137,-3.588733049065754,0.335760261859322,0.531446,-0.400729,-0.518304,-0.536976,-1.86285,0.133793,0.151372,16.845703,96.313477,-142.578125,0,0,0.533185353974578,-0.4424533437404743,-0.5032636810584958,-0.5125913130527117,-1.3151774241454963,-0.0178638831980515,0.0434681353644017,12.279433719597478,19.261911523754897,-33.90121336206579
12540,2024 10 19,05:25:54.487,0.715687,0.215683,-0.635341,0.193946,-0.934111,0.117191,-0.107913,-4.821777,1.342773,-8.850098,0,0,0.7141816809503361,0.1907346403916938,-0.6428222812762453,0.1661257487736019,-0.9441953642248724,0.1459203548179997,-0.1369103699228327,26.73183549538581,-3.3421577466124663,-0.123532651233644,0.530495,-0.38768,-0.518978,-0.546755,-1.83697,0.166021,0.077151,22.949219,122.131348,-149.047852,0,0,0.533050836275849,-0.4397146765534506,-0.504049397005571,-0.5142994974000761,-1.3412670529382211,-0.0086696390381489,0.0451522785961816,12.812922983617602,24.40538334756715,-39.6585452939625
12541,2024 10 19,05:25:54.495,0.715541,0.214985,-0.635651,0.194246,-0.934111,0.117191,-0.107913,-4.821777,1.342773,-8.850098,0,0,0.7142496469028192,0.1919471583721091,-0.642463717212433,0.1675317613349217,-0.9436911460136288,0.1444838870770997,-0.135460501426691,25.154154870616512,-3.107911209281843,-0.5598609186719619,0.5301,-0.373206,-0.519237,-0.556869,-1.677786,0.115726,0.08594,28.686523,136.291504,-154.785156,0,1,0.5329032944620565,-0.436389242725778,-0.5048087771552925,-0.5164279725300722,-1.3580930002913103,-0.0024498570862415,0.0471916646663725,13.60660298443672,29.99968938018879,-45.414875829264375
12542,2024 10 19,05:25:54.504,0.715541,0.214985,-0.635651,0.194246,-0.937529,0.121097,-0.08887,-3.78418,1.464844,-8.850098,0,0,0.7143142145576782,0.1930990504535036,-0.6421230813518113,0.1688674732681757,-0.9433830387129472,0.1433145427232447,-0.1331309763553565,23.707238127085684,-2.8792734488177505,-0.9743727727383638,0.530327,-0.358179,-0.518734,-0.566901,-1.809137,0.391613,0.241218,30.822754,147.949219,-145.629883,0,0,0.5327744797389536,-0.4324787305894891,-0.5055050382975278,-0.5189516239035686,-1.3806452002767449,0.0172532857680705,0.0568929814330539,14.467410535214883,35.89716586117935,-50.42562618780116
12543,2024 10 19,05:25:54.512,0.715397,0.214316,-0.635942,0.194562,-0.939482,0.114261,-0.100589,-3.356934,1.037598,-8.728027,0,0,0.7143683538297942,0.1941598979308284,-0.6418140272842208,0.1701521996047668,-0.9431879867773,0.1418618655870825,-0.1315038775375886,22.3540295207314,-2.683429876376863,-1.3620554841014456,0.533759,-0.341683,-0.515737,-0.576515,-1.654836,0.67629,0.525407,43.640137,202.270508,-118.896484,0,0,0.532823705752006,-0.4279389440600146,-0.5060166363826514,-0.5218297927083901,-1.3943547402629075,0.050205121479667,0.0803186823614012,15.92604685845414,44.21583296812038,-53.84916907841109
12544,2024 10 19,05:25:54.520,0.715296,0.213726,-0.636138,0.194941,-0.929716,0.112308,-0.084475,-2.01416,-0.0,-8.300781,0,0,0.7144147361383045,0.195138203034287,-0.6415302259200096,0.1713916396245285,-0.9425143874384349,0.1403841723077283,-0.1291524336607092,21.13562004469483,-2.5492583825580195,-1.7089917598963733,0.533759,-0.341683,-0.515737,-0.576515,-1.654836,0.67629,0.525407,43.640137,202.270508,-118.896484,0,0,0.5328704704644057,-0.4236261468570139,-0.5065026545635187,-0.5245640530729706,-1.407378803249762,0.0815093654056836,0.1025730982433311,17.311751365531432,52.11856671971436,-57.101534824490535
12545,2024 10 19,05:25:54.529,0.715199,0.21318,-0.636305,0.195347,-0.927274,0.098148,-0.092776,-1.281738,-0.305176,-8.178711,0,0,0.7144539493313893,0.1960402928825727,-0.6412689646240091,0.1725894076433021,-0.9417523680665132,0.1382723636923419,-0.1273336119776737,20.01475214246009,-2.437054263430118,-2.032477721901554,0.541754,-0.322313,-0.510568,-0.584754,-1.455122,0.359386,0.227058,71.533203,247.924805,-91.61377,0,0,0.5333146469411855,-0.4185604895141632,-0.5067059218353428,-0.5275735504193221,-1.409765963087274,0.0954031971353994,0.1087973433311646,20.022823947254857,61.90887863372864,-58.82714658326601
12546,2024 10 19,05:25:54.537,0.715099,0.212772,-0.636407,0.195825,-0.937529,0.113773,-0.099612,0.671387,-0.305176,-7.507324,0,0,0.7144862018648197,0.196876878238444,-0.6410258663928086,0.173751187261137,-0.9415411996631874,0.1370473955077248,-0.12594753137879,19.04758388533708,-2.330460350258612,-2.3062200358064766,0.55183,-0.301478,-0.504195,-0.591931,-0.674337,0.319346,0.215339,85.510254,270.507813,-74.523926,0,0,0.5342404145941262,-0.412706365038455,-0.5065803757435756,-0.5307914228983559,-1.3729945149329104,0.1066003372786295,0.1141244261646063,23.29719544989211,72.3388253520422,-59.6119855541027
12547,2024 10 19,05:25:54.545,0.715056,0.21241,-0.636427,0.196311,-0.928251,0.107425,-0.100589,0.793457,-1.586914,-6.958008,0,0,0.7145146917715787,0.1976535343265218,-0.6407959230731681,0.1748791778980801,-0.940876689680028,0.1355662757323385,-0.1246796048098505,18.134877541070225,-2.293283032745681,-2.5388094340161524,0.562516,-0.281774,-0.496743,-0.59785,0.861354,1.138218,-1.126011,80.078125,251.037598,-47.363281,0,0,0.5356541938644198,-0.4061597467865322,-0.5060885069563968,-0.5341443517534381,-1.2612770891862648,0.158181220414698,0.052117654856376,26.136241927397503,81.2737639844401,-58.99955032639756
12548,2024 10 19,05:25:54.554,0.715056,0.21241,-0.636427,0.196311,-0.928251,0.107425,-0.100589,0.793457,-1.586914,-6.958008,0,0,0.7145417571829997,0.1983913576101957,-0.6405774769195096,0.1759507690031761,-0.9402454051960266,0.1341592119457216,-0.123475074569358,17.267806514016712,-2.2579645811083973,-2.7597693623153448,0.568483,-0.270609,-0.496806,-0.597312,0.358898,1.169469,-0.919462,100.585938,57.312012,-19.042969,0,0,0.5372956341711987,-0.3993822094472056,-0.505624381608577,-0.5373027341657662,-1.1802683347269514,0.2087456093939631,0.0035386721135572,29.85872673102763,80.07567638521809,-57.00172126007768
12549,2024 10 19,05:25:54.562,0.714981,0.212125,-0.636447,0.196826,-0.929716,0.113285,-0.106449,1.342773,-0.915527,-6.713867,0,0,0.7145637193238497,0.1990780397296859,-0.6403709530735341,0.1769945305530173,-0.9397189349362252,0.1331155013484355,-0.1226237708408901,16.471554838315875,-2.190842702052977,-2.9574742441995774,0.570739,-0.265086,-0.503884,-0.591682,-0.544939,1.505417,-0.247566,125.610352,-5.737305,0.061035,0,0,0.5389678024626388,-0.3926673989748453,-0.5055373625281482,-0.5400216974574779,-1.1485018679906038,0.273579178924265,-0.0090165614921206,34.646307994476246,75.78502731595718,-54.1485834470738
12550,2024 10 19,05:25:54.570,0.714888,0.211867,-0.636484,0.197321,-0.938017,0.113285,-0.086428,1.708984,-0.671387,-6.591797,0,0,0.7145799333576571,0.1997174877432016,-0.6401766054198573,0.1780108540253664,-0.939633838189414,0.1321239762810137,-0.1208139822988456,15.73342629640008,-2.1148699169503287,-3.1391903819895983,0.570739,-0.265086,-0.503884,-0.591682,-0.544939,1.505417,-0.247566,125.610352,-5.737305,0.061035,0,0,0.5405563623395068,-0.386288329026103,-0.5054546944017407,-0.542604712584604,-1.1183237245910738,0.3351710699780517,-0.0209440334175146,39.19451019475243,71.70891070015931,-51.43810252472011
12551,2024 10 19,05:25:54.579,0.714804,0.21163,-0.636509,0.197798,-0.940947,0.103519,-0.090823,1.647949,-1.037598,-6.103516,0,0,0.7145911366897743,0.2003131133560415,-0.6399932251488645,0.1790002113240981,-0.9396994962799432,0.130693727466963,-0.1193144331839033,15.029152431580076,-2.061006321102812,-3.287406662890118,0.576925,-0.257405,-0.510048,-0.583739,-0.454115,1.119175,-0.780786,166.564941,25.45166,28.137207,0,0,0.5423747942225313,-0.3798441625747979,-0.5056843596816537,-0.5446614269553738,-1.0851132883615202,0.3743712664791491,-0.0589361317466388,45.56303173501481,69.39604816515134,-47.459337048484095
12552,2024 10 19,05:25:54.587,0.714733,0.211442,-0.636491,0.198311,-0.941435,0.109867,-0.092288,2.258301,-1.342773,-5.79834,0,0,0.7145982298552855,0.2008695576882395,-0.6398181138914212,0.1799657507578932,-0.939786271465946,0.1296523910936149,-0.1179631115247081,14.39060986000107,-2.0250946550476714,-3.4129533297456125,0.583619,-0.249808,-0.517352,-0.573874,-0.17774,0.871609,-0.620624,182.800293,20.385742,41.992188,0,0,0.5444370045114048,-0.373342354446058,-0.506267741697571,-0.5461220556076051,-1.0397446239434442,0.3992331531551916,-0.0870205251593069,52.42489479826406,66.94553285689378,-42.98676079605989
12553,2024 10 19,05:25:54.595,0.714688,0.21128,-0.636431,0.198841,-0.943388,0.112796,-0.099124,2.746582,-1.89209,-5.79834,0,0,0.7146027183625212,0.2013900798038275,-0.6396487581968501,0.1809095132199985,-0.9399663578926486,0.1288095715389341,-0.1170211559484727,13.808408467001016,-2.018444422295288,-3.532222663258332,0.590645,-0.243005,-0.524591,-0.562932,0.026856,0.804224,-1.149449,176.696777,-2.319336,58.532715,0,0,0.5467474042858346,-0.3668254867237551,-0.5071839046126925,-0.5469625528272248,-0.986414592746272,0.419482695497432,-0.1401419489013415,58.63848890835085,63.482289414049085,-37.91078700625689
12554,2024 10 19,05:25:54.604,0.714688,0.21128,-0.636431,0.198841,-0.943388,0.112796,-0.099124,2.746582,-1.89209,-5.79834,0,0,0.714606982444395,0.2018845758136361,-0.6394878702870075,0.1818060875589986,-0.940137439998016,0.1280088929619874,-0.116126298151049,13.255317143650966,-2.0121267011805237,-3.645528530095415,0.59556,-0.240071,-0.533773,-0.550237,-0.32374,0.796899,-0.579608,166.07666,-50.537109,74.401855,0,0,0.5491880340715428,-0.3604877623875674,-0.5085133593820579,-0.5471262751858635,-0.9532808631089584,0.4383535107225604,-0.1621152514562744,64.01039746293331,57.78131949334663,-32.295154905944045
12555,2024 10 19,05:25:54.612,0.714642,0.211111,-0.636367,0.199389,-0.943388,0.116214,-0.104495,2.807617,-1.77002,-6.04248,0,0,0.7146087333221753,0.2023458970229543,-0.6393318267726571,0.1826852331810486,-0.9402999679981152,0.127419148313888,-0.1155447332434966,12.732932136468415,-2.000021366121497,-3.765376103590644,0.601109,-0.238149,-0.541918,-0.536914,-0.414563,0.724631,-0.711936,159.301758,-40.893555,91.61377,0,0,0.5517840823679656,-0.354370824268189,-0.510183591412955,-0.5466156614265704,-0.9263449699535105,0.4526673851864323,-0.1896062888834607,68.77496548978664,52.8475757686793,-26.09970866064684
12556,2024 10 19,05:25:54.620,0.714558,0.210934,-0.636346,0.199944,-0.943876,0.117679,-0.103519,2.502441,-1.037598,-6.469727,0,0,0.7146061966560666,0.2027753021718065,-0.6391825354340243,0.1835481715219962,-0.9404787695982096,0.1269321408981936,-0.1149434465813217,12.221407579644996,-1.951900197815422,-3.900593648411112,0.601109,-0.238149,-0.541918,-0.536914,-0.414563,0.724631,-0.711936,159.301758,-40.893555,91.61377,0,0,0.5542503282495673,-0.3485597330547795,-0.5117703118423071,-0.5461305783552418,-0.9007558714558348,0.4662655659271107,-0.2157227744392877,73.3013051152973,48.160519230245335,-20.214034727614496
12557,2024 10 19,05:25:54.629,0.714432,0.210687,-0.636395,0.200498,-0.937529,0.122562,-0.104495,1.831055,-0.183105,-7.385254,0,0,0.7145974868232633,0.2031708870632162,-0.6390431586623231,0.1843956629458964,-0.940331281118299,0.1267136338532839,-0.1144210242522557,11.701889950662746,-1.8634604379246509,-4.074826665990556,0.606824,-0.237592,-0.549586,-0.522752,-0.517106,0.612323,-0.54152,153.137207,-50.78125,108.520508,0,0,0.5568790118370889,-0.3430113464020405,-0.5136610962501917,-0.5449616494374797,-0.881573377883043,0.4735684376307552,-0.2320126357173233,77.29310020953243,43.21343076873307,-13.777307591233772
12558,2024 10 19,05:25:54.637,0.714216,0.210361,-0.636572,0.201046,-0.936552,0.12598,-0.104495,1.159668,1.525879,-8.483887,0,0,0.7145784124821002,0.2035303927100554,-0.6389196007292068,0.1852281797986016,-0.940142317062384,0.1266769521606197,-0.1139247230396429,11.174778853129608,-1.6939934660284184,-4.295279682691028,0.612994,-0.237999,-0.556396,-0.507955,-0.598651,0.540544,-0.546892,146.54541,-46.630859,123.779297,0,0,0.5596847612452344,-0.3377607290819384,-0.5157978414376821,-0.5431113169656057,-0.8674272589888907,0.4769172157492174,-0.2477566039314571,80.7557156990558,38.72121628029642,-6.899477361672083
12559,2024 10 19,05:25:54.645,0.713861,0.209957,-0.636937,0.201574,-0.928739,0.11475,-0.110843,0.244141,3.967285,-9.58252,0,0,0.7145425418579952,0.2038517230745526,-0.6388204706927465,0.1860454708086715,-0.9395721512092648,0.1260806045525887,-0.1137706368876607,10.628246960473128,-1.4109295427269974,-4.559641698556477,0.619268,-0.239382,-0.562692,-0.492526,-0.670431,0.481948,-0.513199,141.296387,-53.100586,136.108398,0,0,0.5626639231829726,-0.3328417926278415,-0.518142549365798,-0.5405820511173254,-0.8575774460394462,0.4771687549617565,-0.2610287237348843,83.78274926410302,34.13012616628159,0.2509164064115223
12560,2024 10 19,05:25:54.654,0.713861,0.209957,-0.636937,0.201574,-0.928739,0.11475,-0.110843,0.244141,3.967285,-9.58252,0,0,0.7145084647650953,0.2041569869208249,-0.6387262971581091,0.1868218972682379,-0.9390304936488016,0.1255140743249593,-0.1136242550432777,10.10904166244947,-1.1420188155906474,-4.810785613628653,0.625469,-0.241672,-0.568722,-0.476381,-0.807154,0.41261,-0.430677,138.366699,-56.945801,147.338867,0,0,0.565804177023824,-0.3282833029964495,-0.520671521897508,-0.537371998561459,-0.855056273737474,0.4739408172136687,-0.26951113754814,86.51194675089786,29.576329807967507,7.605313936090946
12561,2024 10 19,05:25:54.662,0.713398,0.209483,-0.637462,0.202044,-0.937529,0.114261,-0.11475,-0.854492,6.286621,-10.192871,0,0,0.7144529415268406,0.2044232875747837,-0.6386630823002036,0.187583002404826,-0.9389554189663614,0.1249514206087113,-0.1136805422911138,9.560864979326997,-0.770586824811115,-5.07988988294722,0.631831,-0.24446,-0.574342,-0.459521,-0.91702,0.337413,-0.423353,138.122559,-58.044434,157.592773,0,0,0.5691055181726328,-0.324092137846627,-0.5233550458026326,-0.533479448633386,-0.8581544600506001,0.4671144263529852,-0.277203230670733,89.09247736335297,25.195291617569133,15.104686889286398
12562,2024 10 19,05:25:54.670,0.712772,0.208956,-0.638185,0.202517,-0.957549,0.119144,-0.112308,-1.586914,8.850098,-11.59668,0,0,0.7143688944504984,0.2046499231960445,-0.6386391781851934,0.1883297022845847,-0.9398850980180432,0.1246610495782757,-0.1136119151765581,9.003476030360646,-0.2895525835705592,-5.405729388799859,0.631831,-0.24446,-0.574342,-0.459521,-0.91702,0.337413,-0.423353,138.122559,-58.044434,157.592773,0,0,0.5722417922640012,-0.3201105309542956,-0.525904393512501,-0.5297815262017167,-0.86109773704807,0.4606293550353359,-0.2845107191371963,91.54398144518532,21.033305336690677,22.22909119482208
12563,2024 10 19,05:25:54.679,0.711998,0.208327,-0.639082,0.203059,-0.979034,0.127445,-0.094729,-1.159668,11.169434,-14.099121,0,0,0.7142503497279735,0.2048337770362423,-0.6386613192759337,0.1890661671703555,-0.941842543117141,0.1248002470993619,-0.1126677694177302,8.495318828842615,0.2833967456079687,-5.840398969359866,0.638221,-0.247582,-0.579775,-0.441858,-1.089877,0.262703,-0.370617,141.113281,-60.546875,166.259766,0,0,0.5755407526508012,-0.3164841044065807,-0.5285979238368759,-0.5253853498916308,-0.8725367001956664,0.450733037283569,-0.2888160331803365,94.02244642292604,16.95429631985614,29.43062493508097
12564,2024 10 19,05:25:54.687,0.711035,0.207556,-0.640176,0.203775,-0.999054,0.139164,-0.112308,-1.586914,12.878418,-17.76123,0,0,0.7140895822415748,0.2049698881844301,-0.6387370533121369,0.1898016088118377,-0.944703115961284,0.1255184347443938,-0.1126497809468437,7.991207187400485,0.9131478083275704,-6.436440520891872,0.644885,-0.250552,-0.584935,-0.423319,-1.229041,0.211432,-0.320811,148.681641,-56.57959,173.950195,0,0,0.579007965018261,-0.3131874991862516,-0.5314147776450321,-0.5202820323970492,-0.890361915185883,0.4387679854193906,-0.2904157815213196,96.75540615177974,13.277602003863333,36.656603438326925
12565,2024 10 19,05:25:54.695,0.709796,0.206517,-0.641573,0.204754,-1.024934,0.133793,-0.086917,-1.77002,16.967773,-24.108887,0,0,0.7138749031294961,0.2050472437752086,-0.63887885064653,0.1905492283712458,-0.9487146601632196,0.1259321630071741,-0.1113631418995015,7.50314582803046,1.715879067911192,-7.320062844847278,0.652127,-0.252833,-0.589741,-0.403747,-1.301798,0.164068,-0.327647,162.353516,-50.170898,180.786133,0,0,0.582663916767348,-0.3101697742269391,-0.5343310887627805,-0.5144552807771967,-0.9109337194265889,0.425032986148421,-0.2922773424452536,100.03531164419074,10.105177003670164,43.86307991641058
12566,2024 10 19,05:25:54.704,0.709796,0.206517,-0.641573,0.204754,-1.024934,0.133793,-0.086917,-1.77002,16.967773,-24.108887,0,0,0.7136709579730213,0.2051207315864482,-0.6390135581142035,0.1912594669526834,-0.9525256271550584,0.1263252048568154,-0.1101408348045264,7.039487536628937,2.4784737645156323,-8.159504052604914,0.659704,-0.254043,-0.594761,-0.382769,-1.3726,0.081545,-0.306162,183.47168,-50.048828,184.143066,0,0,0.5865159209289806,-0.3073634355155921,-0.5373525843246414,-0.5078709667383369,-0.9340170334552592,0.4078585868409999,-0.2929715753229909,104.2071300619812,7.097476753486655,50.87707922059005
12567,2024 10 19,05:25:54.712,0.708298,0.205163,-0.643208,0.20617,-1.019562,0.136723,-0.086428,-0.732422,18.249512,-31.311035,0,0,0.7134023100743702,0.2051228450071258,-0.6392232802084933,0.1920049936050493,-0.9558774457973056,0.1268450946139746,-0.1089551930643001,6.65089205979749,3.26702567628985,-9.317080599974668,0.6674,-0.253524,-0.600429,-0.36026,-1.441939,-0.042482,-0.336436,211.791992,-51.574707,181.884766,0,0,0.5905601248825316,-0.3046714637398126,-0.5405064051084093,-0.5004904184014201,-0.9594131317824964,0.3853415574989499,-0.2951447965568413,109.58637315888214,4.163867565812321,57.42746355956054
12568,2024 10 19,05:25:54.720,0.706457,0.203474,-0.645146,0.208093,-1.06888,0.162114,-0.096194,0.366211,21.972656,-39.794922,0,0,0.7130550445706516,0.2050404027567695,-0.6395194161980686,0.1928093939247968,-0.9615275735074404,0.1286085398832759,-0.108317133411085,6.336658006807616,4.202307192475358,-10.840972669975931,0.6674,-0.253524,-0.600429,-0.36026,-1.441939,-0.042482,-0.336436,211.791992,-51.574707,181.884766,0,0,0.594402118638405,-0.3021140905528219,-0.5435025348529888,-0.493478897481349,-0.9835394251933716,0.3639503796240023,-0.2972093567289992,114.69665410093803,1.3769388375217049,63.65032868158252
12569,2024 10 19,05:25:54.729,0.704191,0.201315,-0.647486,0.210592,-1.155797,0.173833,-0.084964,0.0,25.20752,-50.537109,0,0,0.712611842342119,0.204854132618931,-0.6399177453881651,0.193698524228557,-0.9712410448320684,0.1308697628891121,-0.1071494767405308,6.019825106467235,5.2525678328515895,-12.825779486477137,0.674958,-0.250813,-0.607113,-0.336062,-1.488815,-0.196295,-0.375011,245.178223,-56.945801,176.452637,0,0,0.5984299127064847,-0.2995490360251808,-0.5466830581103393,-0.4856080526072815,-1.008803203933703,0.3359381106428022,-0.3010994388925492,121.22073254589112,-1.539198154354381,69.29044409750338
12570,2024 10 19,05:25:54.737,0.701654,0.198335,-0.650109,0.213784,-1.18656,0.181646,-0.077151,-1.708984,25.390625,-64.51416,0,0,0.7120639502250131,0.2045281759879844,-0.6404273081187569,0.1947027980171291,-0.9820069925904648,0.1334085747446565,-0.1056495529035042,5.6333846511438725,6.2594706912090095,-15.41019851215328,0.682194,-0.245746,-0.614844,-0.31014,-1.40434,-0.381359,-0.406262,277.832031,-62.62207,170.166016,0,0,0.6026181170711604,-0.2968588842239218,-0.5500911052048223,-0.4768346499769175,-1.0285800437370178,0.3000732551106621,-0.3063575669479218,129.05129746859657,-4.5933417466366615,74.33422269262822
12571,2024 10 19,05:25:54.745,0.698715,0.194473,-0.653145,0.21767,-1.281777,0.206549,-0.06592,-2.807617,29.296875,-78.613281,0,0,0.7113965027137624,0.2040254171885852,-0.641063192712819,0.1958511581162726,-0.9969954929609416,0.1370655960074236,-0.103663075258329,5.211334568586679,7.411340906648559,-18.57035263654561,0.688757,-0.238413,-0.623451,-0.282987,-1.213904,-0.695822,-0.580584,303.283691,-72.570801,158.14209,0,0,0.6069250612176024,-0.2939365900127257,-0.5537590999445812,-0.4671422674780716,-1.0378462415501668,0.2502784923551289,-0.3200688886005257,137.76291714516674,-7.992214709304829,78.52461605799681
12572,2024 10 19,05:25:54.754,0.698715,0.194473,-0.653145,0.21767,-1.281777,0.206549,-0.06592,-2.807617,29.296875,-78.613281,0,0,0.7107624275780743,0.2035477963291559,-0.641667283077178,0.196942100210459,-1.0112345683128945,0.1405397662070525,-0.1017759214954126,4.810386990157345,8.505617611316131,-21.57249905471833,0.692764,-0.229556,-0.634181,-0.255336,-1.455611,-1.130406,-0.585467,313.720703,-108.093262,137.512207,0,0,0.6112170081567222,-0.2907175605120894,-0.5577801949473521,-0.456551954104168,-1.0587344794726583,0.1812442677373724,-0.3333387941704993,146.5608064379084,-12.997267073839588,81.47399560509697
12573,2024 10 19,05:25:54.762,0.695328,0.189653,-0.656613,0.222284,-1.402387,0.239753,-0.110355,-5.92041,30.883789,-95.397949,0,0,0.7099907061991705,0.2028530565126982,-0.642414568923319,0.198209195199936,-1.0307921898972496,0.1455004278966998,-0.1022048754206419,4.273847140649478,9.624526180750324,-25.263771551982416,0.694594,-0.21948,-0.645832,-0.228625,-1.679739,-1.355998,-0.421888,311.340332,-115.844727,114.074707,0,0,0.615385857748886,-0.2871556824864849,-0.5621827851999844,-0.4451556063989595,-1.0897847054990253,0.1043821543505038,-0.3377662544619743,154.79978271601297,-18.139640070147607,83.10403117484212
12574,2024 10 19,05:25:54.770,0.691601,0.183505,-0.660302,0.228071,-1.396039,0.247078,-0.0918,-7.8125,29.11377,-116.455078,0,0,0.7090712208892119,0.2018856536870632,-0.643308940477153,0.1997022854399392,-1.049054530402387,0.1505793065018648,-0.1016846316496098,3.669529783617004,10.598988371712808,-29.82333687438329,0.694594,-0.21948,-0.645832,-0.228625,-1.679739,-1.355998,-0.421888,311.340332,-115.844727,114.074707,0,0,0.6193462648614416,-0.2837718983621606,-0.5663652459399852,-0.4343290760790115,-1.119282420224074,0.0313631466329786,-0.3419723417388756,162.62681018021232,-23.024894416640223,84.65256496610002
12575,2024 10 19,05:25:54.779,0.687405,0.176019,-0.664337,0.234837,-1.313517,0.166021,-0.100589,-10.192871,31.066895,-136.169434,0,0,0.7079879098447514,0.2005923210027101,-0.6443603434532953,0.2014590211679422,-1.0622776538822676,0.1513513911767716,-0.1016298500671293,2.976409744436154,11.622383703127166,-35.14064173066413,0.696006,-0.208065,-0.656302,-0.203842,-1.777398,-1.629933,-0.482925,301.635742,-96.862793,92.529297,0,0,0.6231792516183695,-0.2799865534440526,-0.5708620836429859,-0.4228047222750609,-1.15218819921287,-0.0517016606986703,-0.3490199746519318,169.5772567712017,-26.716789345808216,85.04640156779502
12576,2024 10 19,05:25:54.787,0.682271,0.167957,-0.668846,0.242778,-1.123569,0.087893,-0.121097,-3.967285,39.428711,-151.428223,0,0,0.7067020643525138,0.1989605549525746,-0.6455846262806305,0.2035249701095451,-1.0653422211881542,0.148178471617933,-0.1026032075637729,2.629225007214346,13.012700067970808,-40.95502079413093,0.697881,-0.195695,-0.664546,-0.181779,-1.648,-1.971252,-0.563982,282.348633,-63.232422,71.899414,0,0,0.626914339037451,-0.27577197577185,-0.5755462794608365,-0.4107534361613079,-1.1769787892522263,-0.1476791776637367,-0.3597680759193352,175.21582558264157,-28.542570978517805,84.38905218940526
12577,2024 10 19,05:25:54.795,0.675988,0.160035,-0.674008,0.25128,-0.898465,-0.00586,-0.004883,2.807617,55.053711,-155.944824,0,0,0.7051663611348882,0.1970142772049458,-0.6470057949665989,0.2059127216040678,-1.0569983601287465,0.1404765480370363,-0.0977171971855842,2.6381446068536287,15.114750614572268,-46.70451095442438,0.700096,-0.183214,-0.670528,-0.163374,-1.351115,-2.271065,-0.753929,247.619629,-38.146973,48.76709,0,0,0.6305734220855783,-0.2711440769832575,-0.5802953654877946,-0.3983844643532424,-1.1856855997896152,-0.2538484687805499,-0.3794761221233684,178.83601575350949,-29.02279107959191,82.607954079935
12578,2024 10 19,05:25:54.804,0.675988,0.160035,-0.674008,0.25128,-0.898465,-0.00586,-0.004883,2.807617,55.053711,-155.944824,0,0,0.7037074430781438,0.1951653133446985,-0.6483559052182689,0.2081810855238644,-1.049071692122309,0.1331597206351845,-0.093075487326305,2.6466182265109475,17.111698633843652,-52.16652660670316,0.701275,-0.171519,-0.675656,-0.149278,-2.312571,-2.852138,-0.885281,201.965332,-36.254883,19.226074,0,0,0.6341085009812993,-0.2661628231340946,-0.5850633972134048,-0.3859291411355803,-1.2420298698001344,-0.3837629453415224,-0.4047663660171999,179.992481565834,-29.384395675612318,79.43886007593825
12579,2024 10 19,05:25:54.812,0.668067,0.153496,-0.680119,0.25993,-0.629414,-0.162603,0.310556,19.165039,82.336426,-149.658203,0,0,0.7019254209242365,0.1930818476774636,-0.6499440599573554,0.2107685312476712,-1.0280888075161936,0.1183715846034253,-0.0728939129599897,3.4725392651854,20.37293500215147,-57.041110426368,0.69809,-0.158196,-0.683233,-0.144348,-1.138707,-2.906827,0.976592,126.159668,-62.438965,-93.87207,0,0,0.6373075759322343,-0.2607644819773899,-0.5899718773527346,-0.3738500840788012,-1.2368637263101276,-0.5099161480744463,-0.3356984477163399,177.3008408875423,-31.037124141831697,70.77331357214135
12580,2024 10 19,05:25:54.820,0.657011,0.150264,-0.688022,0.269042,-0.620136,-0.26661,0.462905,50.720215,131.774902,-137.756348,0,0,0.6996796998780247,0.1909409552935904,-0.6518479569594875,0.2136822046852876,-1.007691167140384,0.099122505373254,-0.0461039673119902,5.834923051926131,25.94303335204389,-61.0768723050496,0.699757,-0.142296,-0.684919,-0.14484,-3.338481,-4.564592,0.258797,141.967773,21.850586,-120.97168,1,0,0.6404300471356226,-0.2548410578785203,-0.5947192334850978,-0.3623995798748612,-1.3419445899946212,-0.7126499406707241,-0.3059736753305229,175.53418749316518,-28.392738634740116,61.18606389353428
12581,2024 10 19,05:25:54.829,0.642947,0.150988,-0.697211,0.278781,-0.626484,-0.297372,0.592792,86.791992,171.325684,-122.314453,0,0,0.6968430648841234,0.1889433075289109,-0.6541161091115131,0.2169371444510232,-0.9886308087833646,0.0792977801045913,-0.0141591689463907,9.882776499329823,33.212165884441696,-64.13875133979711,0.699757,-0.142296,-0.684919,-0.14484,-3.338481,-4.564592,0.258797,141.967773,21.850586,-120.97168,0,0,0.6433963947788415,-0.2492138049845943,-0.5992292218108428,-0.3515216008811181,-1.44177141049489,-0.905247043637188,-0.2777351415639968,173.85586676850693,-25.880572403003107,52.07817669885756
