frame,date,time,quaternion_x,quaternion_y,quaternion_z,quaternion_w,accel_x,accel_y,accel_z,gyro_x,gyro_y,gyro_z,HS,TO
2949,2024 10 23,05:24:34.565,-0.469967,0.696791,0.299164,0.45179,-0.7051,0.800317,0.535661,-93.811035,-36.437988,-25.512695,0,0
2950,2024 10 23,05:24:34.574,-0.464861,0.700284,0.29294,0.455732,-0.605487,0.738304,0.546403,-106.384277,-29.541016,-17.51709,0,0
2951,2024 10 23,05:24:34.582,-0.458621,0.704377,0.287537,0.459176,-0.617695,0.771996,0.54445,-110.961914,-11.230469,-8.483887,0,0
2952,2024 10 23,05:24:34.590,-0.451164,0.708833,0.283216,0.46238,-0.721702,0.779321,0.47853,-116.088867,-0.793457,4.882813,0,0
2953,2024 10 23,05:24:34.599,-0.451164,0.708833,0.283216,0.46238,-0.721702,0.779321,0.47853,-116.088867,-0.793457,4.882813,0,0
2954,2024 10 23,05:24:34.607,-0.442878,0.713007,0.279728,0.466082,-0.725608,0.750023,0.486343,-118.164063,-0.915527,19.65332,0,0
2955,2024 10 23,05:24:34.615,-0.43389,0.716777,0.277227,0.470228,-0.703635,0.684103,0.49855,-116.943359,1.525879,35.400391,0,0
2956,2024 10 23,05:24:34.624,-0.424422,0.720138,0.275957,0.474462,-0.718284,0.612812,0.496109,-111.572266,6.896973,49.926758,0,0
2957,2024 10 23,05:24:34.632,-0.414776,0.722956,0.276095,0.478609,-0.792505,0.583026,0.471206,-101.501465,11.779785,64.086914,0,0
2958,2024 10 23,05:24:34.640,-0.405008,0.725109,0.277638,0.482807,-0.881375,0.549333,0.442885,-92.407227,14.160156,78.918457,0,0
2959,2024 10 23,05:24:34.649,-0.405008,0.725109,0.277638,0.482807,-0.881375,0.549333,0.442885,-92.407227,14.160156,78.918457,0,0
2960,2024 10 23,05:24:34.657,-0.395284,0.726368,0.280342,0.487389,-0.886746,0.512223,0.471694,-82.763672,10.314941,92.712402,0,0
2961,2024 10 23,05:24:34.665,-0.385468,0.726978,0.284237,0.492065,-0.915067,0.485366,0.495132,-74.34082,13.73291,105.834961,0,0
2962,2024 10 23,05:24:34.674,-0.375391,0.727148,0.289318,0.496621,-0.984405,0.467788,0.474624,-68.359375,17.63916,117.797852,0,0
2963,2024 10 23,05:24:34.682,-0.365055,0.726841,0.295198,0.501294,-1.013703,0.443373,0.494156,-64.941406,18.005371,127.624512,0,0
2964,2024 10 23,05:24:34.690,-0.354355,0.726236,0.301665,0.505976,-1.010773,0.406751,0.510758,-64.147949,20.324707,135.314941,0,0
2965,2024 10 23,05:24:34.699,-0.354355,0.726236,0.301665,0.505976,-1.010773,0.406751,0.510758,-64.147949,20.324707,135.314941,0,0
2966,2024 10 23,05:24:34.707,-0.34319,0.725559,0.308604,0.510439,-1.012726,0.376476,0.533708,-64.51416,26.062012,141.174316,0,0
2967,2024 10 23,05:24:34.715,-0.331404,0.725032,0.315874,0.514512,-1.020051,0.32667,0.526383,-67.810059,34.179688,145.446777,0,0
2968,2024 10 23,05:24:34.724,-0.318971,0.724795,0.323328,0.518063,-1.039582,0.285653,0.5215,-71.533203,43.701172,147.583008,0,0
2969,2024 10 23,05:24:34.732,-0.3059,0.724966,0.330802,0.520979,-1.091342,0.242683,0.509293,-76.049805,54.077148,147.644043,0,0
2970,2024 10 23,05:24:34.740,-0.292277,0.725533,0.338223,0.523241,-1.129917,0.195807,0.48732,-79.956055,63.781738,146.911621,0,0
2971,2024 10 23,05:24:34.749,-0.292277,0.725533,0.338223,0.523241,-1.129917,0.195807,0.48732,-79.956055,63.781738,146.911621,0,0
2972,2024 10 23,05:24:34.757,-0.278173,0.726467,0.345551,0.524843,-1.193884,0.129398,0.445326,-82.763672,73.364258,145.629883,0,0
2973,2024 10 23,05:24:34.765,-0.26374,0.727679,0.352721,0.525844,-1.274941,0.049806,0.373547,-85.205078,79.956055,143.493652,0,0
2974,2024 10 23,05:24:34.774,-0.249362,0.728875,0.359501,0.52661,-1.301309,-0.038087,0.322764,-85.9375,79.467773,139.465332,0,0
2975,2024 10 23,05:24:34.782,-0.235211,0.729965,0.36593,0.527183,-1.266152,-0.140141,0.259774,-84.350586,79.589844,136.108398,0,0
2976,2024 10 23,05:24:34.790,-0.221426,0.730988,0.372412,0.527196,-1.284219,-0.221198,0.203619,-77.758789,83.80127,133.972168,0,0
2977,2024 10 23,05:24:34.799,-0.208071,0.73199,0.379031,0.526528,-1.394574,-0.301279,0.104495,-69.885254,87.463379,131.225586,0,0
2978,2024 10 23,05:24:34.807,-0.208071,0.73199,0.379031,0.526528,-1.394574,-0.301279,0.104495,-69.885254,87.463379,131.225586,0,0
2979,2024 10 23,05:24:34.815,-0.195693,0.732503,0.385626,0.525772,-1.431196,-0.360851,0.046388,-60.48584,78.857422,127.502441,0,0
2980,2024 10 23,05:24:34.824,-0.184323,0.732436,0.392107,0.525181,-1.431196,-0.426771,-0.008301,-52.368164,69.946289,123.718262,0,0
2981,2024 10 23,05:24:34.832,-0.173979,0.732059,0.398189,0.524659,-2.41023,-0.823756,0.118168,-48.156738,64.758301,113.647461,0,0
2982,2024 10 23,05:24:34.840,-0.166441,0.731422,0.401129,0.525751,-1.424848,-1.084506,-0.566912,-52.91748,-0.854492,74.584961,0,0
2983,2024 10 23,05:24:34.849,-0.163394,0.726854,0.402931,0.531632,-0.787133,-1.109409,0.067873,-26.855469,-48.583984,69.885254,0,0
2984,2024 10 23,05:24:34.857,-0.163394,0.726854,0.402931,0.531632,-0.787133,-1.109409,0.067873,-26.855469,-48.583984,69.885254,0,0
2985,2024 10 23,05:24:34.865,-0.158376,0.725535,0.405093,0.533307,-0.949248,-1.432173,-0.315928,-27.34375,23.925781,62.072754,0,0
2986,2024 10 23,05:24:34.874,-0.155148,0.725079,0.408003,0.532656,-1.260292,-1.251015,-0.182134,-13.061523,22.583008,49.926758,0,0
2987,2024 10 23,05:24:34.882,-0.152364,0.724576,0.408798,0.533535,-1.115757,-1.53032,-0.525895,-23.254395,1.525879,29.968262,0,0
2988,2024 10 23,05:24:34.890,-0.15182,0.72405,0.408142,0.534904,-1.15482,-1.608936,-0.469741,-18.127441,-8.850098,5.187988,0,0
2989,2024 10 23,05:24:34.899,-0.15248,0.724219,0.405027,0.536852,-1.296915,-1.955138,-0.741234,-26.123047,-24.780273,-26.123047,0,0
2990,2024 10 23,05:24:34.907,-0.15248,0.724219,0.405027,0.536852,-1.296915,-1.955138,-0.741234,-26.123047,-24.780273,-26.123047,0,0
2991,2024 10 23,05:24:34.915,-0.156308,0.723831,0.398884,0.540859,-1.551317,-2.370678,-0.833033,-29.35791,-68.847656,-64.147949,0,0
2992,2024 10 23,05:24:34.924,-0.163626,0.722736,0.388482,0.547686,-1.557665,-3.116306,-0.991241,-40.283203,-122.741699,-113.15918,0,0
2993,2024 10 23,05:24:34.932,-0.176064,0.720663,0.373847,0.556672,-1.451216,-3.108005,-1.777886,-23.193359,-173.828125,-167.84668,1,0
2994,2024 10 23,05:24:34.940,-0.19885,0.711471,0.364779,0.566748,-1.07767,0.207526,0.033692,153.015137,-268.005371,-129.699707,0,0
2995,2024 10 23,05:24:34.949,-0.211913,0.704016,0.363036,0.572416,-1.166051,1.189978,1.032746,24.780273,-100.402832,-37.963867,0,0
2996,2024 10 23,05:24:34.957,-0.211913,0.704016,0.363036,0.572416,-1.166051,1.189978,1.032746,24.780273,-100.402832,-37.963867,0,0
2997,2024 10 23,05:24:34.965,-0.209358,0.702678,0.354158,0.580504,-1.036164,-0.275887,-1.192419,-106.262207,-104.064941,-36.865234,0,0
2998,2024 10 23,05:24:34.974,-0.214814,0.697915,0.346976,0.588538,-0.775414,0.281259,0.042482,-13.48877,-117.919922,-57.617188,0,0
2999,2024 10 23,05:24:34.982,-0.215576,0.6976,0.342115,0.591471,-0.915067,-0.488296,-0.549333,-43.518066,-23.803711,-26.489258,0,0
3000,2024 10 23,05:24:34.990,-0.219089,0.695595,0.340312,0.593579,-0.793481,0.162603,-0.229011,28.015137,-54.56543,-21.42334,0,0
3001,2024 10 23,05:24:34.999,-0.220473,0.694551,0.338786,0.595159,-1.030793,0.21485,0.239753,-21.484375,-12.878418,-12.084961,0,0
3002,2024 10 23,05:24:35.007,-0.220473,0.694551,0.338786,0.595159,-1.030793,0.21485,0.239753,-21.484375,-12.878418,-12.084961,0,0
3003,2024 10 23,05:24:35.015,-0.219388,0.694467,0.335218,0.597673,-1.006867,-0.146489,-0.352062,-36.865234,-36.499023,-15.869141,0,0
3004,2024 10 23,05:24:35.023,-0.220717,0.692836,0.332838,0.600401,-0.858913,0.014649,-0.092776,-10.314941,-35.705566,-11.71875,0,0
3005,2024 10 23,05:24:35.032,-0.221358,0.692009,0.331096,0.602079,-0.892117,0.024415,-0.253914,-9.887695,-24.291992,-11.169434,0,0
3006,2024 10 23,05:24:35.040,-0.222281,0.691216,0.329484,0.603533,-0.815455,0.016114,-0.274422,-6.713867,-18.981934,-12.084961,0,0
3007,2024 10 23,05:24:35.048,-0.223145,0.691182,0.328408,0.60384,-0.927763,0.030763,-0.211432,0.854492,-3.417969,-13.73291,0,0
3008,2024 10 23,05:24:35.057,-0.223145,0.691182,0.328408,0.60384,-0.927763,0.030763,-0.211432,0.854492,-3.417969,-13.73291,0,0
3009,2024 10 23,05:24:35.065,-0.224237,0.69148,0.327663,0.603498,-0.921903,0.043458,-0.191412,3.601074,1.77002,-15.74707,0,0
3010,2024 10 23,05:24:35.073,-0.225373,0.692069,0.326961,0.60278,-0.905789,0.001953,-0.269539,7.202148,6.958008,-17.76123,0,0
3011,2024 10 23,05:24:35.082,-0.22689,0.692891,0.326713,0.6014,-0.954131,0.078127,-0.172369,14.709473,14.526367,-19.165039,0,0
3012,2024 10 23,05:24:35.090,-0.228109,0.694091,0.326478,0.59968,-1.032746,0.043458,-0.106449,9.887695,19.165039,-19.226074,0,0
3013,2024 10 23,05:24:35.098,-0.2293,0.695213,0.326127,0.598115,-1.05472,0.032716,-0.078127,10.559082,14.709473,-18.920898,0,0
3014,2024 10 23,05:24:35.107,-0.2293,0.695213,0.326127,0.598115,-1.05472,0.032716,-0.078127,10.559082,14.709473,-18.920898,0,0
3015,2024 10 23,05:24:35.115,-0.230602,0.695989,0.325718,0.596933,-1.032746,0.024903,-0.075686,9.094238,8.911133,-17.39502,0,0
3016,2024 10 23,05:24:35.123,-0.23187,0.696466,0.32524,0.596146,-0.987335,0.023927,-0.107913,8.239746,3.845215,-15.74707,0,0
3017,2024 10 23,05:24:35.132,-0.232955,0.696815,0.324734,0.59559,-0.982452,0.026856,-0.104984,5.859375,3.173828,-13.549805,0,0
3018,2024 10 23,05:24:35.140,-0.233935,0.69712,0.324262,0.595107,-1.00589,0.030763,-0.100589,5.554199,2.319336,-12.390137,0,0
3019,2024 10 23,05:24:35.148,-0.234938,0.697299,0.323773,0.594768,-1.001495,0.036134,-0.101566,5.126953,-0.183105,-11.962891,0,0
3020,2024 10 23,05:24:35.157,-0.235919,0.69739,0.323213,0.594578,-0.978057,0.024415,-0.124516,4.333496,-1.647949,-11.71875,0,0
3021,2024 10 23,05:24:35.165,-0.235919,0.69739,0.323213,0.594578,-0.978057,0.024415,-0.124516,4.333496,-1.647949,-11.71875,0,0
3022,2024 10 23,05:24:35.173,-0.236936,0.697436,0.322687,0.594405,-0.967803,0.015625,-0.130863,5.554199,-1.708984,-11.59668,0,0
3023,2024 10 23,05:24:35.182,-0.238053,0.697468,0.322242,0.594163,-0.967803,0.016602,-0.107425,7.263184,-1.220703,-11.84082,0,0
3024,2024 10 23,05:24:35.190,-0.239169,0.697555,0.321854,0.593822,-0.972198,0.02588,-0.112308,7.263184,-0.061035,-11.71875,0,0
3025,2024 10 23,05:24:35.198,-0.240219,0.6977,0.321424,0.593462,-0.945341,0.013672,-0.112308,6.103516,0.732422,-12.084961,0,0
3026,2024 10 23,05:24:35.207,-0.24122,0.697919,0.320983,0.593036,-0.949736,0.016602,-0.116703,5.859375,2.075195,-11.962891,0,0
3027,2024 10 23,05:24:35.215,-0.24122,0.697919,0.320983,0.593036,-0.949736,0.016602,-0.116703,5.859375,2.075195,-11.962891,0,0
3028,2024 10 23,05:24:35.223,-0.242236,0.698211,0.320574,0.5925,-0.931669,0.028321,-0.128422,6.652832,3.417969,-13.061523,0,0
3029,2024 10 23,05:24:35.232,-0.243233,0.698682,0.320059,0.591814,-0.974151,0.04297,-0.156255,6.04248,6.713867,-15.075684,0,0
3030,2024 10 23,05:24:35.240,-0.244252,0.699275,0.319345,0.591079,-1.001007,0.026856,-0.125492,3.356934,6.164551,-17.39502,0,0
3031,2024 10 23,05:24:35.248,-0.245229,0.699999,0.318453,0.590298,-0.983917,0.004395,-0.089846,1.281738,5.493164,-18.249512,0,0
3032,2024 10 23,05:24:35.257,-0.246295,0.700754,0.31746,0.589492,-0.981475,0.033692,-0.110843,2.319336,6.164551,-20.935059,0,0
3033,2024 10 23,05:24:35.265,-0.246295,0.700754,0.31746,0.589492,-0.981475,0.033692,-0.110843,2.319336,6.164551,-20.935059,0,0
3034,2024 10 23,05:24:35.273,-0.247421,0.701516,0.316204,0.588789,-0.949248,-0.00586,-0.086917,1.037598,4.638672,-22.949219,0,0
3035,2024 10 23,05:24:35.282,-0.248574,0.702252,0.314868,0.588142,-0.991729,-0.004395,-0.124516,1.098633,3.479004,-22.888184,0,0
3036,2024 10 23,05:24:35.290,-0.250012,0.702828,0.313431,0.587612,-0.977569,-0.006836,-0.08887,2.502441,-0.244141,-25.57373,0,0
3037,2024 10 23,05:24:35.298,-0.25159,0.703333,0.311799,0.587202,-0.972686,-0.026368,-0.099124,2.01416,-2.13623,-26.916504,0,0
3038,2024 10 23,05:24:35.307,-0.253274,0.703791,0.310146,0.586805,-0.980987,-0.029786,-0.12598,2.13623,-3.78418,-27.22168,0,0
3039,2024 10 23,05:24:35.315,-0.253274,0.703791,0.310146,0.586805,-0.980987,-0.029786,-0.12598,2.13623,-3.78418,-27.22168,0,0
3040,2024 10 23,05:24:35.323,-0.255179,0.704016,0.308435,0.586611,-0.949736,-0.028321,-0.115238,4.699707,-8.239746,-28.442383,0,0
3041,2024 10 23,05:24:35.332,-0.257215,0.704193,0.306638,0.586451,-0.956572,-0.020508,-0.135258,4.272461,-7.629395,-28.991699,0,0
3042,2024 10 23,05:24:35.340,-0.259274,0.704389,0.30482,0.586257,-0.990265,-0.022462,-0.168462,4.821777,-8.850098,-30.090332,0,0
3043,2024 10 23,05:24:35.348,-0.261534,0.704491,0.302796,0.58618,-0.963897,-0.032228,-0.113285,4.02832,-10.498047,-32.409668,0,0
3044,2024 10 23,05:24:35.357,-0.263751,0.704798,0.300651,0.585922,-0.972686,-0.033204,-0.170415,3.234863,-8.178711,-34.301758,0,0
3045,2024 10 23,05:24:35.365,-0.263751,0.704798,0.300651,0.585922,-0.972686,-0.033204,-0.170415,3.234863,-8.178711,-34.301758,0,0
3046,2024 10 23,05:24:35.373,-0.266059,0.705169,0.298408,0.585579,-0.984405,-0.018555,-0.168462,3.540039,-7.263184,-36.682129,0,0
3047,2024 10 23,05:24:35.382,-0.268342,0.705667,0.29598,0.585169,-1.010285,-0.038575,-0.143559,1.525879,-6.469727,-38.574219,0,0
3048,2024 10 23,05:24:35.390,-0.270815,0.706324,0.29339,0.584541,-1.042512,-0.026856,-0.137211,2.868652,-4.943848,-42.84668,0,0
3049,2024 10 23,05:24:35.398,-0.273495,0.707059,0.290499,0.583848,-1.05179,-0.045412,-0.128422,2.380371,-5.79834,-47.180176,0,0
3050,2024 10 23,05:24:35.407,-0.276508,0.707927,0.287297,0.58296,-1.067904,-0.033204,-0.126957,3.234863,-5.065918,-53.588867,0,0
3051,2024 10 23,05:24:35.415,-0.276508,0.707927,0.287297,0.58296,-1.067904,-0.033204,-0.126957,3.234863,-5.065918,-53.588867,0,0
3052,2024 10 23,05:24:35.423,-0.279768,0.708974,0.283659,0.581913,-1.065462,-0.036622,-0.165044,1.342773,-5.371094,-59.936523,0,0
3053,2024 10 23,05:24:35.432,-0.283294,0.710204,0.279539,0.580701,-1.073275,-0.04004,-0.16895,1.342773,-4.272461,-66.833496,0,0
3054,2024 10 23,05:24:35.440,-0.287058,0.711724,0.274915,0.579196,-1.13773,-0.037599,-0.174322,-0.732422,-1.953125,-74.645996,0,0
3055,2024 10 23,05:24:35.448,-0.291182,0.713477,0.269736,0.577413,-1.208045,-0.062014,-0.158208,-1.77002,-2.624512,-83.984375,0,0
3056,2024 10 23,05:24:35.457,-0.29584,0.715362,0.263648,0.575522,-1.251015,-0.026856,-0.196295,-2.563477,-5.310059,-96.069336,0,0
3057,2024 10 23,05:24:35.465,-0.29584,0.715362,0.263648,0.575522,-1.251015,-0.026856,-0.196295,-2.563477,-5.310059,-96.069336,0,0
3058,2024 10 23,05:24:35.473,-0.301178,0.717251,0.256683,0.573548,-1.273965,-0.013184,-0.164556,-3.051758,-10.192871,-108.886719,0,0
3059,2024 10 23,05:24:35.482,-0.307093,0.719279,0.248636,0.571413,-1.346721,-0.011231,-0.172369,-5.92041,-12.573242,-122.86377,0,0
3060,2024 10 23,05:24:35.490,-0.313688,0.721384,0.239438,0.569099,-1.354534,-0.008301,-0.164068,-6.530762,-17.51709,-138.366699,0,0
3061,2024 10 23,05:24:35.498,-0.321134,0.723605,0.229126,0.566365,-1.435591,-0.000488,-0.126957,-6.103516,-17.944336,-155.456543,0,0
3062,2024 10 23,05:24:35.507,-0.329619,0.725947,0.217578,0.563038,-1.550829,-0.013184,-0.106449,-3.845215,-21.42334,-176.147461,0,0
3063,2024 10 23,05:24:35.515,-0.329619,0.725947,0.217578,0.563038,-1.550829,-0.013184,-0.106449,-3.845215,-21.42334,-176.147461,0,0
3064,2024 10 23,05:24:35.523,-0.339578,0.728185,0.204649,0.559064,-1.697317,0.034181,-0.035157,2.319336,-25.512695,-200.98877,0,0
3065,2024 10 23,05:24:35.532,-0.350989,0.730322,0.189932,0.554403,-1.873592,0.076662,-0.045412,4.272461,-31.188965,-229.309082,0,0
3066,2024 10 23,05:24:35.540,-0.364174,0.732204,0.173255,0.548851,-2.050844,0.150884,0.109378,10.498047,-38.330078,-262.145996,0,0
3067,2024 10 23,05:24:35.548,-0.378803,0.733726,0.153855,0.542663,-2.196844,0.105472,0.146489,4.882813,-50.842285,-297.119141,0,0
3068,2024 10 23,05:24:35.557,-0.394693,0.734847,0.131731,0.535597,-2.354076,0.121097,0.162114,3.051758,-58.59375,-331.481934,0,0
3069,2024 10 23,05:24:35.565,-0.41099,0.735719,0.106709,0.527654,-2.481521,-0.047853,0.112308,-11.71875,-67.749023,-361.450195,0,0
3070,2024 10 23,05:24:35.573,-0.41099,0.735719,0.106709,0.527654,-2.481521,-0.047853,0.112308,-11.71875,-67.749023,-361.450195,0,0
3071,2024 10 23,05:24:35.582,-0.427655,0.735627,0.078625,0.519406,-2.640217,-0.146977,0.293466,-25.20752,-87.158203,-387.512207,0,0
3072,2024 10 23,05:24:35.590,-0.442987,0.735136,0.048634,0.510855,-2.946867,-0.141118,-0.234382,-36.499023,-95.52002,-394.775391,0,0
3073,2024 10 23,05:24:35.598,-0.458274,0.731173,0.016609,0.505069,-2.2154,-0.187994,-0.033204,-37.475586,-156.799316,-396.362305,0,0
3074,2024 10 23,05:24:35.607,-0.472252,0.727443,-0.015623,0.497554,-1.9859,-0.141606,0.146977,-52.246094,-109.191895,-395.385742,0,0
3075,2024 10 23,05:24:35.615,-0.488375,0.723192,-0.045679,0.486206,-1.891659,0.118656,0.268075,-8.911133,-93.994141,-422.180176,0,0
3076,2024 10 23,05:24:35.623,-0.488375,0.723192,-0.045679,0.486206,-1.891659,0.118656,0.268075,-8.911133,-93.994141,-422.180176,0,0
3077,2024 10 23,05:24:35.632,-0.506847,0.716713,-0.07636,0.472861,-1.493698,0.27784,0.641621,24.597168,-78.857422,-446.899414,0,1
3078,2024 10 23,05:24:35.640,-0.526302,0.70989,-0.103717,0.456404,-1.043489,0.492691,0.498062,40.466309,-36.92627,-433.959961,0,0
3079,2024 10 23,05:24:35.648,-0.544893,0.701971,-0.12673,0.440758,-0.666036,0.519547,0.8052,69.580078,-30.151367,-377.380371,0,0
3080,2024 10 23,05:24:35.657,-0.563046,0.692128,-0.141994,0.42869,-0.410657,0.701193,1.112827,125.488281,-24.902344,-282.531738,0,0
3081,2024 10 23,05:24:35.665,-0.574062,0.68701,-0.148383,0.420063,-0.783715,0.908719,-0.500504,86.791992,35.888672,-128.601074,0,0
3082,2024 10 23,05:24:35.673,-0.574062,0.68701,-0.148383,0.420063,-0.783715,0.908719,-0.500504,86.791992,35.888672,-128.601074,0,0
3083,2024 10 23,05:24:35.682,-0.581787,0.681079,-0.143367,0.420834,-0.580096,1.517136,0.621113,121.765137,1.525879,24.719238,0,0
3084,2024 10 23,05:24:35.690,-0.581096,0.679791,-0.133621,0.427033,-0.626484,1.023469,-0.016114,42.053223,11.352539,139.465332,0,0
3085,2024 10 23,05:24:35.698,-0.576206,0.680162,-0.120725,0.436797,-0.405286,0.819361,0.368664,39.916992,2.380371,195.43457,0,0
3086,2024 10 23,05:24:35.707,-0.569015,0.682431,-0.106073,0.446384,-0.173345,0.646504,0.354503,7.568359,30.273438,216.85791,0,0
3087,2024 10 23,05:24:35.715,-0.560958,0.6862,-0.090601,0.454145,-0.069826,0.576189,0.384289,2.868652,55.725098,213.07373,0,0
3088,2024 10 23,05:24:35.723,-0.560958,0.6862,-0.090601,0.454145,-0.069826,0.576189,0.384289,2.868652,55.725098,213.07373,0,0
3089,2024 10 23,05:24:35.732,-0.552603,0.691766,-0.074663,0.458819,-0.211921,0.5215,0.287606,-18.310547,94.421387,198.730469,0,0
3090,2024 10 23,05:24:35.740,-0.543807,0.698744,-0.058962,0.461037,-0.353038,0.554216,0.22071,-31.37207,114.196777,185.119629,0,0
3091,2024 10 23,05:24:35.748,-0.533916,0.706789,-0.043725,0.462029,-0.547868,0.583514,0.105472,-53.161621,124.267578,182.434082,0,0
3092,2024 10 23,05:24:35.757,-0.522388,0.715292,-0.029,0.463279,-0.714866,0.578631,0.057131,-70.617676,115.844727,190.246582,0,0
3093,2024 10 23,05:24:35.765,-0.509011,0.723672,-0.014598,0.465825,-0.818384,0.502457,0.047365,-85.754395,102.233887,206.665039,0,0
3094,2024 10 23,05:24:35.773,-0.509011,0.723672,-0.014598,0.465825,-0.818384,0.502457,0.047365,-85.754395,102.233887,206.665039,0,0
3095,2024 10 23,05:24:35.782,-0.493949,0.731501,0.000184,0.470023,-0.835963,0.37843,0.052736,-91.369629,86.853027,229.980469,0,0
3096,2024 10 23,05:24:35.790,-0.477734,0.738464,0.016247,0.47558,-0.792505,0.24366,0.059572,-86.914063,82.214355,255.249023,0,0
3097,2024 10 23,05:24:35.798,-0.461198,0.744547,0.034465,0.481413,-0.777856,0.118168,0.070315,-70.007324,88.806152,276.245117,0,0
3098,2024 10 23,05:24:35.807,-0.445058,0.749762,0.054966,0.486579,-0.813501,0.02002,0.042482,-48.278809,103.942871,288.818359,0,0
3099,2024 10 23,05:24:35.815,-0.429876,0.754093,0.077596,0.490437,-0.927274,-0.010743,-0.029786,-22.094727,120.422363,294.555664,0,0
3100,2024 10 23,05:24:35.823,-0.429876,0.754093,0.077596,0.490437,-0.927274,-0.010743,-0.029786,-22.094727,120.422363,294.555664,0,0
3101,2024 10 23,05:24:35.832,-0.41586,0.75733,0.101815,0.493098,-1.116245,0.010254,-0.114261,2.075195,129.577637,295.593262,0,0
3102,2024 10 23,05:24:35.840,-0.402903,0.759102,0.126867,0.495316,-1.267128,0.041505,-0.165044,22.338867,125.244141,296.081543,0,0
3103,2024 10 23,05:24:35.848,-0.390736,0.759161,0.152412,0.497766,-1.335002,0.04004,-0.212897,37.597656,112.243652,300.292969,0,0
3104,2024 10 23,05:24:35.857,-0.379136,0.757492,0.178359,0.500648,-1.287149,0.046876,-0.200201,52.55127,103.45459,306.335449,0,0
3105,2024 10 23,05:24:35.865,-0.36765,0.754704,0.205078,0.503188,-1.316935,0.030274,-0.192389,62.988281,104.492188,313.476563,0,0
3106,2024 10 23,05:24:35.873,-0.36765,0.754704,0.205078,0.503188,-1.316935,0.030274,-0.192389,62.988281,104.492188,313.476563,0,0
3107,2024 10 23,05:24:35.882,-0.356278,0.75091,0.23245,0.505141,-1.366253,0.016114,-0.147954,72.875977,106.567383,317.932129,0,0
3108,2024 10 23,05:24:35.890,-0.344991,0.7463,0.26025,0.506249,-1.419477,-0.032228,-0.088382,81.848145,111.26709,319.519043,0,0
3109,2024 10 23,05:24:35.898,-0.33395,0.740998,0.288496,0.506133,-1.486373,-0.120609,-0.00293,93.688965,119.689941,319.580078,0,0
3110,2024 10 23,05:24:35.907,-0.323222,0.735092,0.317426,0.504389,-1.605029,-0.238289,0.043947,108.947754,131.958008,320.3125,0,0
3111,2024 10 23,05:24:35.915,-0.313138,0.728404,0.347125,0.500875,-1.698782,-0.362804,0.099124,129.02832,142.578125,319.824219,0,0
3112,2024 10 23,05:24:35.923,-0.313138,0.728404,0.347125,0.500875,-1.698782,-0.362804,0.099124,129.02832,142.578125,319.824219,0,0
3113,2024 10 23,05:24:35.932,-0.303841,0.721002,0.377487,0.495319,-1.787164,-0.515641,0.096194,149.780273,155.578613,316.467285,0,0
3114,2024 10 23,05:24:35.940,-0.295297,0.713106,0.4081,0.487579,-1.896542,-0.679708,0.004395,167.541504,168.640137,308.898926,0,0
3115,2024 10 23,05:24:35.948,-0.287499,0.704907,0.43837,0.477788,-2.06061,-0.830103,-0.080569,179.80957,179.80957,296.264648,0,0
3116,2024 10 23,05:24:35.957,-0.279996,0.696818,0.467389,0.466471,-2.202216,-1.074252,-0.281259,179.748535,186.584473,279.11377,0,0
3117,2024 10 23,05:24:35.965,-0.27283,0.689026,0.494433,0.45425,-2.287179,-1.35844,-0.459975,172.485352,187.805176,257.385254,0,0
3118,2024 10 23,05:24:35.973,-0.265916,0.681985,0.518508,0.441966,-2.248604,-1.756401,-0.720725,154.541016,180.297852,227.539063,0,0
3119,2024 10 23,05:24:35.982,-0.265916,0.681985,0.518508,0.441966,-2.248604,-1.756401,-0.720725,154.541016,180.297852,227.539063,0,0
3120,2024 10 23,05:24:35.990,-0.260081,0.675943,0.53901,0.430031,-1.940001,-2.08063,-0.962432,139.282227,166.015625,189.51416,0,0
3121,2024 10 23,05:24:35.998,-0.254868,0.671682,0.555993,0.41804,-1.699759,-2.299387,-1.347697,119.750977,164.733887,148.803711,0,0
3122,2024 10 23,05:24:36.007,-0.250055,0.669409,0.569614,0.406084,-1.720267,-2.464919,-1.777398,100.341797,161.499023,109.741211,0,0
3123,2024 10 23,05:24:36.015,-0.246433,0.668452,0.579524,0.39572,-1.739799,-2.605548,-2.08356,76.23291,130.859375,72.692871,0,0
3124,2024 10 23,05:24:36.023,-0.24485,0.668139,0.58539,0.388532,-1.617237,-2.900967,-2.031312,50.720215,85.388184,38.879395,0,0
3125,2024 10 23,05:24:36.032,-0.24485,0.668139,0.58539,0.388532,-1.617237,-2.900967,-2.031312,50.720215,85.388184,38.879395,0,0
3126,2024 10 23,05:24:36.040,-0.245336,0.6685,0.588082,0.383506,-1.689993,-3.057222,-1.705619,38.330078,48.461914,7.995605,0,0
3127,2024 10 23,05:24:36.048,-0.254093,0.673831,0.585799,0.371791,-5.879086,-1.218299,-4.640278,164.855957,70.739746,-174.621582,0,0
3128,2024 10 23,05:24:36.057,-0.280689,0.670763,0.555837,0.402909,-0.835963,-2.57918,0.469253,-214.782715,-693.786621,-205.993652,1,0
3129,2024 10 23,05:24:36.065,-0.318964,0.657139,0.535336,0.424081,-0.20069,2.233955,0.468276,122.314453,-385.559082,-153.320313,0,0
3130,2024 10 23,05:24:36.073,-0.322453,0.660252,0.520541,0.434888,-2.528398,0.777856,0.252449,-132.263184,-114.318848,-104.614258,0,0
3131,2024 10 23,05:24:36.082,-0.322453,0.660252,0.520541,0.434888,-2.528398,0.777856,0.252449,-132.263184,-114.318848,-104.614258,0,0
3132,2024 10 23,05:24:36.090,-0.329006,0.659257,0.503406,0.451351,-1.127476,0.291513,0.752953,-132.995605,-251.220703,-100.341797,0,0
3133,2024 10 23,05:24:36.098,-0.331781,0.661537,0.487307,0.46349,-0.889187,-0.152348,-1.543016,-143.127441,-125.488281,-107.60498,0,0
3134,2024 10 23,05:24:36.107,-0.334935,0.663491,0.472877,0.473272,-1.059114,-0.533708,-0.852077,-105.163574,-130.737305,-90.332031,0,0
3135,2024 10 23,05:24:36.115,-0.338262,0.663393,0.463702,0.480071,-1.181188,-0.020508,-0.470229,-47.912598,-92.895508,-49.072266,0,0
3136,2024 10 23,05:24:36.123,-0.341691,0.661852,0.456586,0.486547,-0.956572,0.217292,0.135258,-48.522949,-102.966309,-40.222168,0,0
3137,2024 10 23,05:24:36.132,-0.341691,0.661852,0.456586,0.486547,-0.956572,0.217292,0.135258,-48.522949,-102.966309,-40.222168,0,0
3138,2024 10 23,05:24:36.140,-0.342336,0.662175,0.447551,0.493992,-0.901395,-0.056154,-0.155766,-94.482422,-86.669922,-44.73877,0,0
3139,2024 10 23,05:24:36.148,-0.342539,0.662678,0.43955,0.500321,-0.718772,-0.26368,-0.423353,-69.335938,-71.105957,-36.315918,0,0
3140,2024 10 23,05:24:36.157,-0.344583,0.662069,0.43425,0.504335,-0.648946,-0.149907,-0.494156,-24.414063,-57.312012,-29.47998,0,0
3141,2024 10 23,05:24:36.165,-0.347252,0.661251,0.430866,0.506475,-0.935575,-0.026368,-0.026856,-4.943848,-41.259766,-27.160645,0,0
3142,2024 10 23,05:24:36.173,-0.349606,0.660821,0.428156,0.507714,-0.951201,-0.032228,-0.140141,-0.793457,-31.37207,-27.46582,0,0
3143,2024 10 23,05:24:36.182,-0.349606,0.660821,0.428156,0.507714,-0.951201,-0.032228,-0.140141,-0.793457,-31.37207,-27.46582,0,0
3144,2024 10 23,05:24:36.190,-0.352541,0.660248,0.425956,0.50828,-0.85403,0.028809,-0.169927,11.71875,-27.038574,-28.991699,0,0
3145,2024 10 23,05:24:36.198,-0.355004,0.660182,0.424286,0.508049,-0.890652,-0.010743,-0.22071,9.155273,-11.413574,-27.099609,0,0
3146,2024 10 23,05:24:36.207,-0.357073,0.660354,0.423046,0.507409,-0.955107,0.037599,-0.076174,10.742188,-5.554199,-24.291992,0,0
3147,2024 10 23,05:24:36.215,-0.358693,0.660733,0.421996,0.506646,-1.020539,0.046876,-0.069826,7.8125,-2.258301,-22.216797,0,0
3148,2024 10 23,05:24:36.223,-0.360337,0.660962,0.421041,0.505975,-0.994171,0.054689,-0.012696,9.033203,-3.90625,-20.812988,0,0
3149,2024 10 23,05:24:36.232,-0.360337,0.660962,0.421041,0.505975,-0.994171,0.054689,-0.012696,9.033203,-3.90625,-20.812988,0,0
3150,2024 10 23,05:24:36.240,-0.361465,0.66134,0.419876,0.505645,-1.006867,0.022462,-0.046388,0.366211,-4.577637,-18.432617,0,0
3151,2024 10 23,05:24:36.248,-0.362417,0.661602,0.418701,0.505595,-1.00882,0.023927,0.002441,-0.732422,-6.530762,-15.74707,0,0
3152,2024 10 23,05:24:36.257,-0.363135,0.661798,0.417485,0.505829,-1.006867,0.004395,-0.007813,-4.577637,-7.995605,-13.061523,0,0
3153,2024 10 23,05:24:36.265,-0.363867,0.661787,0.416366,0.506239,-0.954619,0.018067,-0.024415,-1.831055,-10.559082,-11.047363,0,0
3154,2024 10 23,05:24:36.273,-0.364511,0.661737,0.415397,0.506637,-0.943388,-0.009278,-0.063478,-1.953125,-8.117676,-9.521484,0,0
3155,2024 10 23,05:24:36.282,-0.364511,0.661737,0.415397,0.506637,-0.943388,-0.009278,-0.063478,-1.953125,-8.117676,-9.521484,0,0
3156,2024 10 23,05:24:36.290,-0.365405,0.661634,0.414738,0.506667,-0.969756,0.004883,-0.038087,5.371094,-6.469727,-10.375977,0,0
3157,2024 10 23,05:24:36.298,-0.366493,0.661482,0.414202,0.506519,-0.971709,0.033692,-0.00293,6.225586,-5.004883,-10.742188,0,0
3158,2024 10 23,05:24:36.307,-0.367459,0.661454,0.413588,0.506357,-0.993683,-0.007324,-0.023927,5.615234,-4.760742,-11.413574,0,0
3159,2024 10 23,05:24:36.315,-0.36884,0.661139,0.413094,0.506168,-0.963408,-0.016114,0.012207,9.82666,-8.605957,-10.925293,0,0
3160,2024 10 23,05:24:36.323,-0.370274,0.660662,0.412675,0.506085,-1.001495,0.016114,-0.038575,11.413574,-9.82666,-9.521484,0,0
3161,2024 10 23,05:24:36.332,-0.370274,0.660662,0.412675,0.506085,-1.001495,0.016114,-0.038575,11.413574,-9.82666,-9.521484,0,0
3162,2024 10 23,05:24:36.340,-0.372002,0.660133,0.41225,0.505855,-0.993683,0.070315,0.020997,13.183594,-10.375977,-13.061523,0,0
3163,2024 10 23,05:24:36.348,-0.373372,0.659978,0.411492,0.505665,-0.972198,0.000488,0.012207,6.103516,-6.835938,-15.075684,0,0
3164,2024 10 23,05:24:36.357,-0.374775,0.659905,0.410652,0.505405,-1.012238,0.030763,-0.021485,8.728027,-7.629395,-16.418457,0,0
3165,2024 10 23,05:24:36.365,-0.376327,0.659883,0.409537,0.505185,-1.094272,0.091311,-0.033204,5.67627,-9.82666,-19.348145,0,0
3166,2024 10 23,05:24:36.373,-0.378094,0.659971,0.40815,0.504873,-0.986358,-0.019532,0.101566,2.746582,-13.427734,-24.230957,0,0
3167,2024 10 23,05:24:36.382,-0.380167,0.659793,0.40668,0.504735,-0.981964,0.00293,-0.094729,8.361816,-15.319824,-23.254395,0,0
3168,2024 10 23,05:24:36.390,-0.380167,0.659793,0.40668,0.504735,-0.981964,0.00293,-0.094729,8.361816,-15.319824,-23.254395,0,0
3169,2024 10 23,05:24:36.398,-0.382457,0.65937,0.405094,0.504833,-0.925321,-0.077639,-0.013184,10.742188,-20.385742,-22.949219,0,0
3170,2024 10 23,05:24:36.407,-0.384812,0.658872,0.403731,0.504785,-1.006867,-0.009766,-0.084475,10.742188,-17.883301,-21.66748,0,0
3171,2024 10 23,05:24:36.415,-0.387262,0.65824,0.402185,0.504971,-0.952178,-0.032716,-0.014649,12.207031,-23.864746,-22.644043,0,0
3172,2024 10 23,05:24:36.423,-0.389801,0.657477,0.40063,0.505246,-0.988311,-0.036134,-0.040529,11.535645,-23.620605,-22.094727,0,0
3173,2024 10 23,05:24:36.432,-0.392426,0.656733,0.398981,0.505488,-1.027375,-0.031251,-0.08594,13.305664,-24.597168,-23.55957,0,0
3174,2024 10 23,05:24:36.440,-0.392426,0.656733,0.398981,0.505488,-1.027375,-0.031251,-0.08594,13.305664,-24.597168,-23.55957,0,0
3175,2024 10 23,05:24:36.448,-0.395477,0.655769,0.397183,0.505778,-0.957549,-0.030763,-0.036134,15.74707,-29.35791,-26.611328,0,0
3176,2024 10 23,05:24:36.457,-0.398658,0.654833,0.395449,0.505851,-0.997101,-0.013184,-0.117191,17.76123,-26.977539,-27.893066,0,0
3177,2024 10 23,05:24:36.465,-0.402089,0.653874,0.393598,0.50582,-0.986358,-0.026368,-0.100589,20.690918,-27.832031,-31.066895,0,0
3178,2024 10 23,05:24:36.473,-0.405659,0.653088,0.39166,0.505489,-1.000031,-0.012696,-0.134281,19.714355,-24.719238,-34.423828,0,0
3179,2024 10 23,05:24:36.482,-0.40929,0.652523,0.389607,0.504877,-1.033235,-0.025391,-0.13184,21.728516,-23.071289,-38.635254,0,0
3180,2024 10 23,05:24:36.490,-0.40929,0.652523,0.389607,0.504877,-1.033235,-0.025391,-0.13184,21.728516,-23.071289,-38.635254,0,0
3181,2024 10 23,05:24:36.498,-0.413275,0.652045,0.387338,0.503995,-1.009308,0.00293,-0.11182,22.338867,-21.66748,-44.067383,0,0
3182,2024 10 23,05:24:36.507,-0.417077,0.652198,0.384843,0.502574,-1.069857,-0.010254,-0.201666,19.104004,-14.831543,-50.476074,0,0
3183,2024 10 23,05:24:36.515,-0.421361,0.652441,0.381947,0.500892,-1.043977,-0.028321,-0.106449,21.728516,-16.662598,-57.922363,0,0
3184,2024 10 23,05:24:36.523,-0.425806,0.653188,0.378855,0.498501,-1.142125,-0.029298,-0.108402,21.789551,-9.82666,-66.589355,0,0
3185,2024 10 23,05:24:36.532,-0.430781,0.654192,0.375201,0.495666,-1.185583,-0.038087,-0.06006,25.268555,-11.291504,-77.819824,0,0
3186,2024 10 23,05:24:36.540,-0.430781,0.654192,0.375201,0.495666,-1.185583,-0.038087,-0.06006,25.268555,-11.291504,-77.819824,0,0
3187,2024 10 23,05:24:36.548,-0.436372,0.655501,0.370934,0.492245,-1.276406,-0.014161,-0.079592,25.57373,-10.253906,-90.393066,0,0
3188,2024 10 23,05:24:36.557,-0.442642,0.657071,0.365955,0.488265,-1.294961,-0.007813,-0.138188,28.320313,-13.427734,-104.980469,0,0
3189,2024 10 23,05:24:36.565,-0.449396,0.659136,0.359719,0.483927,-1.413617,-0.010743,-0.111332,22.827148,-12.390137,-120.849609,0,0
3190,2024 10 23,05:24:36.573,-0.456831,0.661606,0.352385,0.478966,-1.526414,0.007813,-0.108402,23.071289,-18.188477,-138.61084,0,0
3191,2024 10 23,05:24:36.582,-0.46532,0.664224,0.343559,0.473551,-1.555712,0.02295,0.017579,23.376465,-24.291992,-160.400391,0,0
3192,2024 10 23,05:24:36.590,-0.46532,0.664224,0.343559,0.473551,-1.555712,0.02295,0.017579,23.376465,-24.291992,-160.400391,0,0
3193,2024 10 23,05:24:36.598,-0.47449,0.667583,0.333301,0.467014,-1.637257,0.00586,-0.084475,23.254395,-21.118164,-184.692383,0,0
3194,2024 10 23,05:24:36.607,-0.48519,0.670952,0.321739,0.459237,-1.815973,0.199225,-0.187017,32.531738,-27.038574,-210.81543,0,0
3195,2024 10 23,05:24:36.615,-0.497088,0.674463,0.30793,0.450757,-1.869686,0.297372,-0.011719,27.526855,-34.973145,-242.06543,0,0
3196,2024 10 23,05:24:36.623,-0.50923,0.679441,0.29184,0.440311,-2.045961,0.254891,-0.118656,19.65332,-27.099609,-280.273438,0,0
3197,2024 10 23,05:24:36.632,-0.523143,0.684742,0.272817,0.427809,-2.249092,0.293954,0.075198,23.55957,-31.738281,-327.453613,0,0
3198,2024 10 23,05:24:36.640,-0.523143,0.684742,0.272817,0.427809,-2.249092,0.293954,0.075198,23.55957,-31.738281,-327.453613,0,0
3199,2024 10 23,05:24:36.648,-0.538415,0.690511,0.250777,0.412813,-2.635334,0.28077,0.054689,23.925781,-35.827637,-375.366211,0,0
3200,2024 10 23,05:24:36.657,-0.554503,0.696359,0.224927,0.396256,-2.609943,0.085452,0.262703,15.625,-50.170898,-419.616699,0,0
3201,2024 10 23,05:24:36.665,-0.570272,0.702899,0.195139,0.377681,-2.647542,-0.049318,0.472182,-9.58252,-49.987793,-460.754395,0,0
3202,2024 10 23,05:24:36.673,-0.584847,0.70969,0.16413,0.356869,-2.804773,-0.10596,0.485366,-16.296387,-38.635254,-476.135254,0,0
3203,2024 10 23,05:24:36.682,-0.597412,0.716399,0.132713,0.335051,-2.887295,-0.416028,-0.028321,-28.991699,-29.174805,-476.928711,0,0
3204,2024 10 23,05:24:36.690,-0.597412,0.716399,0.132713,0.335051,-2.887295,-0.416028,-0.028321,-28.991699,-29.174805,-476.928711,0,0
3205,2024 10 23,05:24:36.698,-0.611959,0.719095,0.10199,0.313061,-2.371655,0.053224,-0.001465,37.29248,-44.616699,-475.463867,0,0
3206,2024 10 23,05:24:36.707,-0.62902,0.718178,0.070684,0.289064,-1.751518,0.377941,0.723167,65.856934,-39.367676,-504.272461,0,0
3207,2024 10 23,05:24:36.715,-0.645977,0.716357,0.041886,0.260368,-1.534715,0.293954,0.78518,88.928223,24.230957,-505.432129,0,1
3208,2024 10 23,05:24:36.723,-0.662571,0.712514,0.017771,0.230233,-0.938505,0.28956,0.947295,123.535156,48.339844,-460.571289,0,0
3209,2024 10 23,05:24:36.732,-0.680793,0.703198,0.000883,0.205016,-0.072756,1.938536,0.645039,216.186523,50.537109,-348.876953,0,0
3210,2024 10 23,05:24:36.740,-0.680793,0.703198,0.000883,0.205016,-0.072756,1.938536,0.645039,216.186523,50.537109,-348.876953,0,0
3211,2024 10 23,05:24:36.748,-0.695321,0.693076,-0.003889,0.190155,-1.132359,1.871151,0.065432,135.803223,77.453613,-135.620117,0,0
3212,2024 10 23,05:24:36.757,-0.703499,0.685495,0.006152,0.187477,-0.745628,1.950743,-0.230476,166.687012,58.044434,78.125,0,0
3213,2024 10 23,05:24:36.765,-0.707491,0.678973,0.020427,0.195024,-0.588397,1.784722,0.8052,79.345703,58.898926,179.626465,0,0
3214,2024 10 23,05:24:36.773,-0.704308,0.679151,0.037828,0.203156,-0.016602,0.929228,0.013672,8.972168,73.425293,203.979492,0,0
3215,2024 10 23,05:24:36.782,-0.701114,0.679584,0.055509,0.208625,0.292001,1.027375,0.78518,0.976563,123.474121,182.800293,0,0
3216,2024 10 23,05:24:36.790,-0.694429,0.684504,0.076229,0.208357,-0.08887,0.747581,0.080081,-45.410156,197.021484,167.480469,0,0
3217,2024 10 23,05:24:36.798,-0.694429,0.684504,0.076229,0.208357,-0.08887,0.747581,0.080081,-45.410156,197.021484,167.480469,0,0
3218,2024 10 23,05:24:36.807,-0.686889,0.690094,0.09862,0.205497,-0.473159,0.903348,0.138676,-50.90332,227.905273,163.94043,0,0
3219,2024 10 23,05:24:36.815,-0.676918,0.697024,0.122316,0.202433,-0.8511,0.838404,-0.123539,-81.054688,238.28125,178.344727,0,0
3220,2024 10 23,05:24:36.823,-0.665385,0.703802,0.145925,0.201574,-1.062532,0.686544,-0.266121,-90.942383,216.308594,197.753906,0,0
3221,2024 10 23,05:24:36.832,-0.653328,0.709415,0.169336,0.203022,-1.160192,0.473159,-0.330088,-88.134766,196.350098,216.003418,0,0
3222,2024 10 23,05:24:36.840,-0.641896,0.712937,0.192667,0.206324,-1.084994,0.221686,-0.415052,-66.223145,174.316406,231.445313,0,0
3223,2024 10 23,05:24:36.848,-0.641896,0.712937,0.192667,0.206324,-1.084994,0.221686,-0.415052,-66.223145,174.316406,231.445313,0,0
3224,2024 10 23,05:24:36.857,-0.632278,0.713515,0.216648,0.210201,-0.985382,0.043947,-0.479019,-25.45166,169.616699,243.95752,0,0
3225,2024 10 23,05:24:36.865,-0.6249,0.710791,0.242518,0.213218,-1.054231,0.046876,-0.598163,24.658203,179.56543,257.019043,0,0
3226,2024 10 23,05:24:36.873,-0.619593,0.704726,0.270352,0.21535,-1.292032,0.190924,-0.787133,69.824219,184.997559,270.324707,0,0
3227,2024 10 23,05:24:36.882,-0.616045,0.695499,0.298764,0.217967,-1.420942,0.356945,-0.946318,103.027344,167.053223,282.226563,0,0
3228,2024 10 23,05:24:36.890,-0.613711,0.68363,0.326752,0.221904,-1.394574,0.457045,-1.000031,122.009277,144.40918,293.273926,0,0
3229,2024 10 23,05:24:36.898,-0.613711,0.68363,0.326752,0.221904,-1.394574,0.457045,-1.000031,122.009277,144.40918,293.273926,0,0
3230,2024 10 23,05:24:36.907,-0.611625,0.66999,0.354409,0.226763,-1.385296,0.503922,-1.030305,129.638672,131.958008,302.55127,0,0
3231,2024 10 23,05:24:36.915,-0.609193,0.65517,0.381651,0.232331,-1.408246,0.52736,-0.987335,129.577637,122.802734,309.509277,0,0
3232,2024 10 23,05:24:36.923,-0.605898,0.639756,0.408259,0.238588,-1.459029,0.534684,-0.970244,120.666504,115.844727,313.842773,0,0
3233,2024 10 23,05:24:36.932,-0.601557,0.624077,0.433901,0.245739,-1.450728,0.522965,-0.911161,107.727051,106.201172,316.955566,0,0
3234,2024 10 23,05:24:36.940,-0.595978,0.60831,0.458666,0.25376,-1.444868,0.467788,-0.832545,92.712402,101.379395,321.289063,0,0
3235,2024 10 23,05:24:36.948,-0.595978,0.60831,0.458666,0.25376,-1.444868,0.467788,-0.832545,92.712402,101.379395,321.289063,0,0
3236,2024 10 23,05:24:36.957,-0.58903,0.592485,0.482871,0.262377,-1.506394,0.411145,-0.752464,80.13916,101.074219,326.660156,0,0
3237,2024 10 23,05:24:36.965,-0.580744,0.5764,0.506701,0.271578,-1.634815,0.368175,-0.683126,68.725586,100.585938,334.594727,0,0
3238,2024 10 23,05:24:36.973,-0.571397,0.559841,0.529896,0.281592,-1.717826,0.268563,-0.602557,59.143066,94.055176,341.552734,0,0
3239,2024 10 23,05:24:36.982,-0.561191,0.542841,0.552325,0.292105,-1.77984,0.081545,-0.50441,52.124023,90.942383,345.703125,0,0
3240,2024 10 23,05:24:36.990,-0.5502,0.525458,0.574135,0.302561,-1.874569,-0.156255,-0.444349,49.01123,91.003418,347.290039,0,0
3241,2024 10 23,05:24:36.998,-0.5502,0.525458,0.574135,0.302561,-1.874569,-0.156255,-0.444349,49.01123,91.003418,347.290039,0,0
3242,2024 10 23,05:24:37.007,-0.538839,0.507597,0.595171,0.31268,-1.946348,-0.401868,-0.390637,50.415039,88.256836,345.88623,0,0
3243,2024 10 23,05:24:37.015,-0.527365,0.489317,0.615397,0.322088,-2.029847,-0.657247,-0.337413,54.504395,87.402344,340.881348,0,0
3244,2024 10 23,05:24:37.023,-0.515751,0.470966,0.634817,0.330452,-2.206122,-0.946318,-0.305673,57.861328,89.538574,331.848145,0,0
3245,2024 10 23,05:24:37.032,-0.504307,0.452998,0.652954,0.337813,-2.341868,-1.395062,-0.251473,57.678223,86.120605,315.795898,0,0
3246,2024 10 23,05:24:37.040,-0.493654,0.436045,0.669293,0.343829,-2.327219,-1.92584,-0.151372,59.143066,80.444336,288.024902,0,0
3247,2024 10 23,05:24:37.048,-0.493654,0.436045,0.669293,0.343829,-2.327219,-1.92584,-0.151372,59.143066,80.444336,288.024902,0,0
3248,2024 10 23,05:24:37.057,-0.484122,0.420872,0.683689,0.347939,-2.125553,-2.404859,-0.102542,60.852051,78.430176,250.549316,0,0
3249,2024 10 23,05:24:37.065,-0.475531,0.408058,0.696436,0.349765,-1.864803,-2.7369,-0.236335,62.194824,83.679199,209.655762,0,0
3250,2024 10 23,05:24:37.073,-0.467626,0.398271,0.7075,0.349499,-1.59917,-3.007416,-0.635273,56.57959,92.285156,163.513184,0,0
3251,2024 10 23,05:24:37.082,-0.460471,0.392171,0.716655,0.347239,-1.526902,-3.262795,-1.149449,47.607422,101.745605,111.206055,0,0
3252,2024 10 23,05:24:37.090,-0.454661,0.38989,0.723291,0.343686,-1.828181,-3.589465,-1.591846,33.081055,95.458984,57.678223,0,0
3253,2024 10 23,05:24:37.098,-0.454661,0.38989,0.723291,0.343686,-1.828181,-3.589465,-1.591846,33.081055,95.458984,57.678223,0,0
3254,2024 10 23,05:24:37.107,-0.452692,0.390049,0.726367,0.339591,-1.964904,-3.685659,-1.586474,30.517578,49.072266,6.04248,0,0
3255,2024 10 23,05:24:37.115,-0.455984,0.391178,0.725634,0.335432,-1.685598,-3.489364,-1.292032,36.376953,-11.71875,-37.353516,0,0
3256,2024 10 23,05:24:37.123,-0.46297,0.392855,0.722955,0.329636,-4.519669,-2.345286,-1.308634,62.438965,-31.25,-75.866699,0,0
3257,2024 10 23,05:24:37.132,-0.483994,0.3945,0.716032,0.312118,-1.501999,-0.370129,-2.273507,160.705566,-262.512207,-218.75,0,0
3258,2024 10 23,05:24:37.140,-0.528123,0.386113,0.686325,0.317744,0.146001,3.292092,2.749596,193.054199,-531.494141,-183.227539,0,0
3259,2024 10 23,05:24:37.148,-0.540657,0.395804,0.668349,0.323016,-1.009796,1.161656,1.474654,-250.12207,-121.826172,-204.711914,0,0
3260,2024 10 23,05:24:37.157,-0.540657,0.395804,0.668349,0.323016,-1.009796,1.161656,1.474654,-250.12207,-121.826172,-204.711914,0,0
3261,2024 10 23,05:24:37.165,-0.547057,0.415758,0.647761,0.329059,-1.130406,0.088382,-0.846217,-183.776855,-178.955078,-247.497559,1,0
3262,2024 10 23,05:24:37.173,-0.556164,0.432456,0.626648,0.333131,-1.262734,-0.983428,-1.224158,-174.316406,-108.398438,-220.275879,0,0
3263,2024 10 23,05:24:37.182,-0.562789,0.443637,0.612706,0.333237,-1.901914,-0.680685,-0.784692,-43.09082,-94.177246,-150.146484,0,0
3264,2024 10 23,05:24:37.190,-0.570751,0.445951,0.60383,0.332807,-1.283731,0.103519,-0.163091,-9.399414,-92.102051,-77.819824,0,0
3265,2024 10 23,05:24:37.198,-0.575967,0.448204,0.595613,0.335591,-1.014679,0.195318,-0.161626,-46.142578,-96.923828,-59.204102,0,0
3266,2024 10 23,05:24:37.207,-0.575967,0.448204,0.595613,0.335591,-1.014679,0.195318,-0.161626,-46.142578,-96.923828,-59.204102,0,0
3267,2024 10 23,05:24:37.215,-0.579378,0.452125,0.587298,0.339094,-0.808618,-0.026856,-0.394055,-70.373535,-72.32666,-61.462402,0,0
3268,2024 10 23,05:24:37.223,-0.58233,0.455803,0.580392,0.341,-0.747581,-0.159673,-0.411634,-36.254883,-53.588867,-57.495117,0,0
3269,2024 10 23,05:24:37.232,-0.58565,0.457326,0.576179,0.340418,-0.992218,-0.051271,0.162114,-6.164551,-34.851074,-43.701172,0,0
3270,2024 10 23,05:24:37.240,-0.588171,0.458427,0.572615,0.340604,-0.892605,-0.169439,-0.408704,-1.953125,-39.611816,-34.057617,0,0
3271,2024 10 23,05:24:37.248,-0.591992,0.457623,0.569854,0.339696,-0.951689,0.054201,-0.001953,26.550293,-36.682129,-29.11377,0,0
3272,2024 10 23,05:24:37.257,-0.591992,0.457623,0.569854,0.339696,-0.951689,0.054201,-0.001953,26.550293,-36.682129,-29.11377,0,0
3273,2024 10 23,05:24:37.265,-0.594989,0.457184,0.56754,0.338924,-0.85696,0.049806,-0.238289,8.483887,-31.921387,-27.526855,0,0
3274,2024 10 23,05:24:37.273,-0.597522,0.457133,0.565546,0.337868,-0.929716,0.040529,-0.199713,15.319824,-19.836426,-28.015137,0,0
3275,2024 10 23,05:24:37.282,-0.599495,0.457182,0.564287,0.33641,-0.969268,0.08887,-0.106449,12.268066,-10.742188,-24.841309,0,0
3276,2024 10 23,05:24:37.290,-0.600908,0.457681,0.563079,0.33523,-1.002472,0.06885,-0.08887,6.164551,-7.507324,-24.169922,0,0
3277,2024 10 23,05:24:37.298,-0.60215,0.458227,0.561999,0.334066,-1.004425,0.04883,-0.087405,5.67627,-6.835938,-23.010254,0,0
3278,2024 10 23,05:24:37.307,-0.60215,0.458227,0.561999,0.334066,-1.004425,0.04883,-0.087405,5.67627,-6.835938,-23.010254,0,0
3279,2024 10 23,05:24:37.315,-0.603306,0.458707,0.560995,0.333007,-0.944853,0.044435,-0.123051,5.92041,-5.493164,-20.996094,0,0
3280,2024 10 23,05:24:37.323,-0.604259,0.459178,0.560263,0.331861,-0.969268,0.031739,-0.097659,6.04248,-1.586914,-18.981934,0,0
3281,2024 10 23,05:24:37.332,-0.605033,0.459575,0.559708,0.330838,-0.98587,0.027345,-0.066897,5.493164,-1.159668,-15.74707,0,0
3282,2024 10 23,05:24:37.340,-0.605803,0.459764,0.559195,0.330031,-0.996124,0.032228,-0.039064,5.79834,-3.479004,-12.878418,0,0
3283,2024 10 23,05:24:37.348,-0.606543,0.459832,0.558646,0.329507,-0.974639,0.037599,-0.055666,4.455566,-5.493164,-10.253906,0,0
3284,2024 10 23,05:24:37.357,-0.606543,0.459832,0.558646,0.329507,-0.974639,0.037599,-0.055666,4.455566,-5.493164,-10.253906,0,0
3285,2024 10 23,05:24:37.365,-0.607316,0.459739,0.558079,0.329173,-0.966826,0.036134,-0.062502,4.882813,-7.263184,-8.361816,0,0
3286,2024 10 23,05:24:37.373,-0.608158,0.459482,0.557559,0.328859,-0.983917,0.031739,-0.038087,6.591797,-7.93457,-7.507324,0,0
3287,2024 10 23,05:24:37.382,-0.609157,0.4591,0.557059,0.32839,-0.996124,0.054689,-0.017579,9.70459,-8.728027,-8.850098,0,0
3288,2024 10 23,05:24:37.390,-0.610286,0.458736,0.556436,0.327859,-0.995636,0.075686,-0.028321,9.70459,-9.58252,-11.169434,0,0
3289,2024 10 23,05:24:37.398,-0.611433,0.458555,0.555623,0.327354,-0.977569,0.049318,-0.033692,6.286621,-10.864258,-12.390137,0,0
3290,2024 10 23,05:24:37.407,-0.611433,0.458555,0.555623,0.327354,-0.977569,0.049318,-0.033692,6.286621,-10.864258,-12.390137,0,0
3291,2024 10 23,05:24:37.415,-0.612552,0.458429,0.554722,0.326965,-0.986847,0.023438,-0.014161,5.92041,-11.962891,-11.71875,0,0
3292,2024 10 23,05:24:37.423,-0.613741,0.458168,0.553727,0.326788,-0.978545,0.032228,-0.019532,4.577637,-15.197754,-9.94873,0,0
3293,2024 10 23,05:24:37.432,-0.614959,0.457807,0.552627,0.326865,-0.969756,0.007324,-0.024415,4.943848,-17.333984,-8.483887,0,0
3294,2024 10 23,05:24:37.440,-0.616389,0.457209,0.551482,0.326945,-1.038118,0.059084,-0.041017,7.263184,-20.385742,-8.178711,0,0
3295,2024 10 23,05:24:37.448,-0.61817,0.456401,0.550155,0.326945,-0.961455,0.014649,-0.016602,9.155273,-25.268555,-10.070801,0,0
3296,2024 10 23,05:24:37.457,-0.61817,0.456401,0.550155,0.326945,-0.961455,0.014649,-0.016602,9.155273,-25.268555,-10.070801,0,0
3297,2024 10 23,05:24:37.465,-0.619979,0.455582,0.548741,0.327039,-0.953154,0.01709,-0.086428,9.521484,-24.291992,-9.521484,0,0
3298,2024 10 23,05:24:37.473,-0.621868,0.454737,0.547254,0.327121,-1.018586,0.037599,-0.082034,10.864258,-25.939941,-10.864258,0,0
3299,2024 10 23,05:24:37.482,-0.624132,0.453817,0.545403,0.327177,-0.949736,0.029786,-0.01709,10.620117,-30.944824,-13.427734,0,0
3300,2024 10 23,05:24:37.490,-0.626301,0.452994,0.543542,0.327271,-0.964385,0.00293,-0.142582,9.033203,-30.578613,-13.183594,0,0
3301,2024 10 23,05:24:37.498,-0.628793,0.451899,0.541647,0.327148,-0.938505,0.018555,-0.122074,15.319824,-32.348633,-14.526367,0,0
3302,2024 10 23,05:24:37.507,-0.628793,0.451899,0.541647,0.327148,-0.938505,0.018555,-0.122074,15.319824,-32.348633,-14.526367,0,0
3303,2024 10 23,05:24:37.515,-0.631265,0.450813,0.539777,0.326975,-0.944365,0.018067,-0.120121,14.160156,-30.883789,-14.831543,0,0
3304,2024 10 23,05:24:37.523,-0.633728,0.449743,0.537941,0.326708,-0.967803,0.013184,-0.131352,15.625,-30.517578,-15.441895,0,0
3305,2024 10 23,05:24:37.532,-0.636356,0.448624,0.536031,0.326279,-0.944365,0.00586,-0.13477,16.662598,-32.165527,-17.700195,0,0
3306,2024 10 23,05:24:37.540,-0.639086,0.447498,0.534047,0.325745,-0.954619,0.031251,-0.1377,18.432617,-30.883789,-19.104004,0,0
3307,2024 10 23,05:24:37.548,-0.641651,0.446616,0.532132,0.325043,-1.004913,0.027833,-0.086428,16.784668,-28.198242,-21.30127,0,0
3308,2024 10 23,05:24:37.557,-0.644184,0.445945,0.530092,0.324288,-1.010285,-0.008301,-0.06592,13.73291,-28.869629,-23.132324,0,0
3309,2024 10 23,05:24:37.565,-0.644184,0.445945,0.530092,0.324288,-1.010285,-0.008301,-0.06592,13.73291,-28.869629,-23.132324,0,0
3310,2024 10 23,05:24:37.573,-0.646733,0.445451,0.528038,0.323243,-1.101596,0.067385,-0.152837,16.967773,-26.489258,-26.916504,0,0
3311,2024 10 23,05:24:37.582,-0.649716,0.444913,0.525632,0.321922,-0.944365,0.019532,-0.10596,16.662598,-32.897949,-32.958984,0,0
3312,2024 10 23,05:24:37.590,-0.65235,0.444982,0.523338,0.320231,-0.96585,0.005371,-0.197272,13.73291,-19.958496,-36.193848,0,0
3313,2024 10 23,05:24:37.598,-0.654789,0.445394,0.521381,0.317863,-1.126987,0.088382,-0.291025,18.920898,-13.85498,-42.724609,0,0
3314,2024 10 23,05:24:37.607,-0.657617,0.446179,0.518718,0.315272,-1.005402,0.068361,-0.083987,10.253906,-19.958496,-51.757813,0,0
3315,2024 10 23,05:24:37.615,-0.657617,0.446179,0.518718,0.315272,-1.005402,0.068361,-0.083987,10.253906,-19.958496,-51.757813,0,0
3316,2024 10 23,05:24:37.623,-0.65976,0.448026,0.516289,0.312146,-1.147496,0.031251,-0.34669,5.371094,-7.141113,-59.753418,0,0
3317,2024 10 23,05:24:37.632,-0.662633,0.450328,0.512758,0.308547,-1.259804,0.125492,-0.181646,6.958008,-14.099121,-74.462891,0,0
3318,2024 10 23,05:24:37.640,-0.665327,0.453691,0.508867,0.304235,-1.255409,0.04004,-0.17774,-3.845215,-13.000488,-88.989258,0,0
3319,2024 10 23,05:24:37.648,-0.668361,0.45791,0.504146,0.29908,-1.406293,0.069338,-0.227058,-1.403809,-8.666992,-105.34668,0,0
3320,2024 10 23,05:24:37.657,-0.671967,0.462873,0.498435,0.292868,-1.524949,0.034669,-0.114261,-3.723145,-17.028809,-126.525879,0,0
3321,2024 10 23,05:24:37.665,-0.671967,0.462873,0.498435,0.292868,-1.524949,0.034669,-0.114261,-3.723145,-17.028809,-126.525879,0,0
3322,2024 10 23,05:24:37.673,-0.676485,0.468106,0.491793,0.285279,-1.521531,0.045412,-0.146001,4.577637,-22.705078,-147.888184,0,0
3323,2024 10 23,05:24:37.682,-0.681613,0.474084,0.483904,0.27656,-1.644581,0.097659,-0.170904,5.79834,-21.606445,-169.006348,0,0
3324,2024 10 23,05:24:37.690,-0.687475,0.480711,0.47467,0.266427,-1.599658,0.048341,-0.041993,6.225586,-32.287598,-195.922852,0,0
3325,2024 10 23,05:24:37.698,-0.693744,0.488467,0.464168,0.254297,-1.855525,0.203619,-0.223151,7.629395,-23.55957,-226.379395,0,0
3326,2024 10 23,05:24:37.707,-0.700734,0.496932,0.452061,0.24015,-2.041566,0.43849,-0.293954,12.207031,-33.325195,-259.94873,0,0
3327,2024 10 23,05:24:37.715,-0.700734,0.496932,0.452061,0.24015,-2.041566,0.43849,-0.293954,12.207031,-33.325195,-259.94873,0,0
3328,2024 10 23,05:24:37.723,-0.708479,0.506511,0.437191,0.224426,-2.027894,0.405774,0.007813,3.417969,-45.898438,-299.804688,0,0
3329,2024 10 23,05:24:37.732,-0.716238,0.517884,0.419799,0.206319,-2.077212,0.297861,-0.127445,0.12207,-46.813965,-343.811035,0,0
3330,2024 10 23,05:24:37.740,-0.724444,0.529696,0.400758,0.184379,-2.297922,0.373547,0.051271,13.85498,-34.545898,-388.48877,0,0
3331,2024 10 23,05:24:37.748,-0.731652,0.542803,0.38023,0.159609,-2.60799,0.281259,-0.00586,1.220703,-27.954102,-423.950195,0,0
3332,2024 10 23,05:24:37.757,-0.737632,0.557767,0.355981,0.134435,-2.551347,-0.002441,0.281259,-32.531738,-52.67334,-454.589844,0,0
3333,2024 10 23,05:24:37.765,-0.737632,0.557767,0.355981,0.134435,-2.551347,-0.002441,0.281259,-32.531738,-52.67334,-454.589844,0,0
3334,2024 10 23,05:24:37.773,-0.74145,0.573649,0.330691,0.108726,-2.622639,-0.106449,0.211432,-41.015625,-40.83252,-461.303711,0,0
3335,2024 10 23,05:24:37.782,-0.743846,0.589006,0.304582,0.083639,-2.91464,-0.020997,-0.460952,-57.556152,-51.940918,-456.298828,0,0
3336,2024 10 23,05:24:37.790,-0.746417,0.602888,0.275217,0.060369,-2.375072,-0.079104,-0.048341,-47.241211,-100.280762,-462.95166,0,0
3337,2024 10 23,05:24:37.798,-0.750205,0.613304,0.244684,0.03434,-1.801324,0.298349,0.39259,13.85498,-78.796387,-487.487793,0,0
3338,2024 10 23,05:24:37.807,-0.753788,0.621076,0.214598,0.003974,-1.370647,0.436048,0.857448,36.315918,-45.227051,-507.69043,0,1
3339,2024 10 23,05:24:37.815,-0.753788,0.621076,0.214598,0.003974,-1.370647,0.436048,0.857448,36.315918,-45.227051,-507.69043,0,0
3340,2024 10 23,05:24:37.823,-0.755846,0.626599,0.187685,-0.029065,-0.917997,0.48146,0.707053,61.401367,8.544922,-493.103027,0,0
3341,2024 10 23,05:24:37.832,-0.758536,0.627495,0.164373,-0.062079,-0.826197,0.558611,1.069857,103.271484,34.301758,-445.556641,0,0
3342,2024 10 23,05:24:37.840,-0.762227,0.623911,0.146199,-0.091494,-1.007843,1.016144,0.560564,142.76123,46.99707,-356.445313,0,0
3343,2024 10 23,05:24:37.848,-0.763746,0.622176,0.133242,-0.108796,-0.994171,1.419477,-0.796899,45.837402,-0.549316,-195.129395,0,0
3344,2024 10 23,05:24:37.857,-0.769399,0.61596,0.128714,-0.10978,-0.249519,2.224189,0.393567,96.557617,-51.879883,23.193359,0,0
3345,2024 10 23,05:24:37.865,-0.769399,0.61596,0.128714,-0.10978,-0.249519,2.224189,0.393567,96.557617,-51.879883,23.193359,0,0
3346,2024 10 23,05:24:37.873,-0.770917,0.615317,0.133773,-0.09579,-0.26075,1.265664,0.078127,-37.963867,-44.006348,202.636719,0,0
3347,2024 10 23,05:24:37.882,-0.771495,0.614388,0.147486,-0.074641,-0.391125,0.816919,0.276376,-30.456543,-29.907227,301.879883,0,0
3348,2024 10 23,05:24:37.890,-0.771219,0.61265,0.165077,-0.051294,-0.305185,0.617695,0.635273,-49.194336,4.516602,337.280273,0,0
3349,2024 10 23,05:24:37.898,-0.769113,0.61075,0.186008,-0.029156,-0.341807,0.408216,0.383801,-44.311523,39.855957,341.85791,0,0
3350,2024 10 23,05:24:37.907,-0.766675,0.60759,0.20726,-0.009316,-0.258309,0.347179,0.527848,-35.949707,60.424805,321.411133,0,0
3351,2024 10 23,05:24:37.915,-0.766675,0.60759,0.20726,-0.009316,-0.258309,0.347179,0.527848,-35.949707,60.424805,321.411133,0,0
3352,2024 10 23,05:24:37.923,-0.76272,0.604813,0.228936,0.006865,-0.333506,0.230476,0.326182,-42.724609,95.336914,288.879395,0,0
3353,2024 10 23,05:24:37.932,-0.757716,0.602172,0.250764,0.019332,-0.503433,0.28663,0.23487,-42.053223,122.009277,258.728027,0,0
3354,2024 10 23,05:24:37.940,-0.751622,0.600027,0.272241,0.030267,-0.796411,0.373547,0.1377,-51.940918,127.197266,244.934082,0,0
3355,2024 10 23,05:24:37.948,-0.744809,0.598238,0.292547,0.042268,-0.996124,0.39552,0.063478,-65.246582,105.041504,247.497559,0,0
3356,2024 10 23,05:24:37.957,-0.737759,0.59635,0.311161,0.057061,-0.992706,0.351085,0.070803,-74.707031,71.594238,262.268066,0,0
3357,2024 10 23,05:24:37.965,-0.730601,0.593677,0.329006,0.074323,-0.881375,0.230964,0.122562,-75.805664,52.490234,281.616211,0,0
3358,2024 10 23,05:24:37.973,-0.730601,0.593677,0.329006,0.074323,-0.881375,0.230964,0.122562,-75.805664,52.490234,281.616211,0,0
3359,2024 10 23,05:24:37.982,-0.723193,0.589735,0.347299,0.092669,-0.776879,0.093265,0.142582,-67.749023,53.833008,299.072266,0,0
3360,2024 10 23,05:24:37.990,-0.715464,0.584139,0.36699,0.110507,-0.781274,0.014649,0.149419,-51.147461,72.32666,310.546875,0,0
3361,2024 10 23,05:24:37.998,-0.707197,0.57703,0.388347,0.126863,-0.986847,0.011231,0.095706,-34.179688,96.618652,314.819336,0,0
3362,2024 10 23,05:24:38.007,-0.698579,0.568747,0.410309,0.141991,-1.236854,0.007324,-0.005371,-22.460938,104.492188,312.316895,0,0
3363,2024 10 23,05:24:38.015,-0.690152,0.559363,0.431558,0.156717,-1.385296,0.013672,-0.049318,-12.390137,95.825195,309.143066,0,0
3364,2024 10 23,05:24:38.023,-0.690152,0.559363,0.431558,0.156717,-1.385296,0.013672,-0.049318,-12.390137,95.825195,309.143066,0,0
3365,2024 10 23,05:24:38.032,-0.68202,0.548874,0.451751,0.171775,-1.462447,-0.006348,-0.075686,-6.286621,80.932617,310.974121,0,0
3366,2024 10 23,05:24:38.040,-0.674153,0.537186,0.470984,0.187409,-1.473678,-0.027345,-0.06885,0.0,67.382813,316.223145,0,0
3367,2024 10 23,05:24:38.048,-0.666105,0.524357,0.489919,0.203305,-1.51616,-0.020508,-0.041017,5.493164,64.63623,323.791504,0,0
3368,2024 10 23,05:24:38.057,-0.657506,0.510588,0.508812,0.219309,-1.639699,-0.015625,0.000977,7.751465,64.697266,330.749512,0,0
3369,2024 10 23,05:24:38.065,-0.648299,0.496204,0.527291,0.235486,-1.746147,-0.027833,0.052248,5.859375,61.584473,333.92334,0,0
3370,2024 10 23,05:24:38.073,-0.648299,0.496204,0.527291,0.235486,-1.746147,-0.027833,0.052248,5.859375,61.584473,333.92334,0,0
3371,2024 10 23,05:24:38.082,-0.638437,0.481497,0.545136,0.251764,-1.846248,-0.081057,0.130863,1.953125,59.997559,334.533691,0,0
3372,2024 10 23,05:24:38.090,-0.62771,0.466773,0.562401,0.267971,-1.916562,-0.163091,0.194342,-4.394531,62.133789,333.862305,0,0
3373,2024 10 23,05:24:38.098,-0.615861,0.452241,0.579275,0.283962,-2.002991,-0.256844,0.255379,-11.901855,69.458008,333.618164,0,0
3374,2024 10 23,05:24:38.107,-0.602759,0.438046,0.595747,0.299804,-2.089419,-0.384289,0.305673,-21.789551,75.927734,332.885742,0,0
3375,2024 10 23,05:24:38.115,-0.588564,0.424451,0.61148,0.315478,-2.096255,-0.576678,0.38966,-33.26416,81.237793,328.125,0,0
3376,2024 10 23,05:24:38.123,-0.588564,0.424451,0.61148,0.315478,-2.096255,-0.576678,0.38966,-33.26416,81.237793,328.125,0,0
3377,2024 10 23,05:24:38.132,-0.573164,0.411746,0.62663,0.330579,-2.164129,-0.822291,0.483413,-42.724609,93.383789,320.617676,0,0
3378,2024 10 23,05:24:38.140,-0.556694,0.40036,0.64095,0.344944,-2.230048,-1.112339,0.499527,-55.541992,102.111816,306.091309,0,0
3379,2024 10 23,05:24:38.148,-0.539841,0.390823,0.653801,0.358292,-2.150944,-1.367718,0.528336,-67.871094,107.788086,280.395508,0,0
3380,2024 10 23,05:24:38.157,-0.522569,0.383729,0.665113,0.370538,-1.969298,-1.581591,0.452651,-85.083008,116.943359,251.77002,0,0
3381,2024 10 23,05:24:38.165,-0.504611,0.379311,0.67499,0.381942,-1.790094,-1.813044,0.245125,-104.431152,130.981445,224.42627,0,0
3382,2024 10 23,05:24:38.173,-0.504611,0.379311,0.67499,0.381942,-1.790094,-1.813044,0.245125,-104.431152,130.981445,224.42627,0,0
3383,2024 10 23,05:24:38.182,-0.485797,0.378099,0.683254,0.392691,-1.647511,-2.061586,-0.285653,-130.67627,146.30127,192.626953,0,0
3384,2024 10 23,05:24:38.190,-0.467314,0.380421,0.688919,0.402851,-1.532273,-2.461013,-0.903348,-156.12793,145.568848,146.179199,0,0
3385,2024 10 23,05:24:38.198,-0.4495,0.386744,0.691014,0.413374,-2.01178,-3.467391,-1.619678,-195.800781,142.76123,103.759766,0,0
3386,2024 10 23,05:24:38.207,-0.435625,0.39442,0.689656,0.423129,-2.328684,-3.833613,-1.739799,-182.556152,87.70752,57.250977,0,0
3387,2024 10 23,05:24:38.215,-0.430467,0.401075,0.682555,0.433538,-1.790094,-3.829218,-1.241737,-174.438477,-25.20752,0.671387,0,0
3388,2024 10 23,05:24:38.223,-0.430467,0.401075,0.682555,0.433538,-1.790094,-3.829218,-1.241737,-174.438477,-25.20752,0.671387,0,0
3389,2024 10 23,05:24:38.232,-0.432361,0.410576,0.672988,0.437697,-3.268654,-3.700308,-1.393597,-93.200684,7.324219,-143.493652,0,0
3390,2024 10 23,05:24:38.240,-0.447583,0.424395,0.654036,0.437944,-1.876034,-4.063112,0.244636,-76.35498,-192.016602,-274.047852,0,0
3391,2024 10 23,05:24:38.248,-0.476211,0.432122,0.635202,0.4278,-1.177282,-0.186041,-0.238289,130.187988,-235.046387,-337.036133,1,0
3392,2024 10 23,05:24:38.257,-0.50408,0.436366,0.616198,0.419271,-0.935087,1.528855,1.211951,62.255859,-230.102539,-293.151855,0,0
3393,2024 10 23,05:24:38.265,-0.517967,0.449038,0.59676,0.417075,-1.306192,0.457533,-0.423841,-102.966309,-110.046387,-270.629883,0,0
3394,2024 10 23,05:24:38.273,-0.517967,0.449038,0.59676,0.417075,-1.306192,0.457533,-0.423841,-102.966309,-110.046387,-270.629883,0,0
3395,2024 10 23,05:24:38.282,-0.530631,0.463833,0.575217,0.415228,-1.324259,-0.130863,-1.064486,-100.463867,-143.615723,-284.423828,0,0
3396,2024 10 23,05:24:38.290,-0.541388,0.476679,0.556593,0.412165,-1.380413,-0.57326,-0.31251,-103.210449,-69.641113,-234.375,0,0
3397,2024 10 23,05:24:38.298,-0.542334,0.489485,0.547339,0.408287,-1.790094,-1.161168,-0.524918,-71.044922,37.841797,-131.835938,0,0
3398,2024 10 23,05:24:38.307,-0.546929,0.492936,0.544748,0.401413,-1.447798,0.134281,0.073244,59.509277,-3.112793,-90.209961,0,0
3399,2024 10 23,05:24:38.315,-0.550906,0.494931,0.54135,0.398104,-1.105502,0.326182,0.439467,-15.380859,-16.601563,-66.345215,0,0
3400,2024 10 23,05:24:38.323,-0.550906,0.494931,0.54135,0.398104,-1.105502,0.326182,0.439467,-15.380859,-16.601563,-66.345215,0,0
3401,2024 10 23,05:24:38.332,-0.549981,0.500622,0.536163,0.399284,-1.004913,-0.364269,-0.354991,-76.11084,-9.216309,-51.208496,0,0
3402,2024 10 23,05:24:38.340,-0.551558,0.503347,0.532008,0.399241,-0.79104,-0.291513,-0.314463,-8.239746,-23.132324,-45.532227,0,0
3403,2024 10 23,05:24:38.348,-0.554452,0.504008,0.529717,0.39744,-0.822779,-0.014649,-0.056154,14.160156,-12.084961,-39.672852,0,0
3404,2024 10 23,05:24:38.357,-0.555895,0.505305,0.528733,0.395081,-1.057649,0.02002,-0.140141,8.239746,8.361816,-34.606934,0,0
3405,2024 10 23,05:24:38.365,-0.557473,0.506351,0.52737,0.393337,-0.990753,0.035646,-0.127934,5.79834,-6.164551,-32.836914,0,0
3406,2024 10 23,05:24:38.373,-0.5585,0.507596,0.526082,0.391996,-0.931669,-0.021485,-0.122074,-2.01416,4.882813,-27.282715,0,0
3407,2024 10 23,05:24:38.382,-0.5585,0.507596,0.526082,0.391996,-0.931669,-0.021485,-0.122074,-2.01416,4.882813,-27.282715,0,0
3408,2024 10 23,05:24:38.390,-0.558903,0.508997,0.525664,0.390163,-1.023957,0.019532,-0.106449,3.845215,13.122559,-24.536133,0,0
3409,2024 10 23,05:24:38.398,-0.559567,0.510112,0.525026,0.38861,-1.027863,0.029786,-0.04297,2.258301,5.310059,-24.414063,0,0
3410,2024 10 23,05:24:38.407,-0.560243,0.511218,0.52432,0.387134,-1.056673,0.034181,-0.040529,3.173828,5.859375,-24.658203,0,0
3411,2024 10 23,05:24:38.415,-0.561052,0.512216,0.523608,0.385603,-1.117222,0.020997,0.013184,3.967285,3.662109,-24.719238,0,0
3412,2024 10 23,05:24:38.423,-0.562302,0.512852,0.522594,0.384312,-1.121128,0.036134,0.008789,8.483887,-6.04248,-25.20752,0,0
3413,2024 10 23,05:24:38.432,-0.562302,0.512852,0.522594,0.384312,-1.121128,0.036134,0.008789,8.483887,-6.04248,-25.20752,0,0
3414,2024 10 23,05:24:38.440,-0.564078,0.51308,0.52115,0.383363,-1.043001,0.027345,-0.033692,7.8125,-14.343262,-24.719238,0,0
3415,2024 10 23,05:24:38.448,-0.565883,0.513154,0.519527,0.382808,-0.952666,0.016114,-0.097659,5.92041,-17.456055,-21.850586,0,0
3416,2024 10 23,05:24:38.457,-0.567382,0.513187,0.518223,0.382313,-0.948271,0.034669,-0.091311,5.554199,-11.59668,-17.883301,0,0
3417,2024 10 23,05:24:38.465,-0.568417,0.513363,0.517182,0.381947,-0.92288,0.000488,-0.081545,0.671387,-8.850098,-14.160156,0,0
3418,2024 10 23,05:24:38.473,-0.569108,0.513512,0.516315,0.38189,-0.917508,-0.023438,-0.081545,-0.549316,-7.568359,-8.850098,0,0
3419,2024 10 23,05:24:38.482,-0.569108,0.513512,0.516315,0.38189,-0.917508,-0.023438,-0.081545,-0.549316,-7.568359,-8.850098,0,0
3420,2024 10 23,05:24:38.490,-0.569733,0.513427,0.515841,0.381715,-0.95706,0.018555,-0.077151,5.371094,-4.333496,-7.507324,0,0
3421,2024 10 23,05:24:38.498,-0.570467,0.513439,0.51515,0.381533,-0.976104,-0.002441,-0.02295,-0.427246,-7.446289,-9.94873,0,0
3422,2024 10 23,05:24:38.507,-0.571185,0.513472,0.514491,0.381305,-0.969268,0.000488,-0.073244,2.563477,-7.568359,-8.850098,0,0
3423,2024 10 23,05:24:38.515,-0.571983,0.513385,0.513654,0.381354,-0.951201,0.00586,-0.050783,1.220703,-9.94873,-8.850098,0,0
3424,2024 10 23,05:24:38.523,-0.572737,0.513388,0.512857,0.38129,-0.993194,0.04004,-0.112796,1.586914,-8.178711,-10.070801,0,0
3425,2024 10 23,05:24:38.532,-0.572737,0.513388,0.512857,0.38129,-0.993194,0.04004,-0.112796,1.586914,-8.178711,-10.070801,0,0
3426,2024 10 23,05:24:38.540,-0.573604,0.513458,0.511782,0.381338,-0.940458,0.009278,-0.063967,-2.13623,-12.207031,-11.169434,0,0
3427,2024 10 23,05:24:38.548,-0.574253,0.513703,0.510759,0.381401,-0.955596,-0.011231,-0.081057,-2.868652,-8.117676,-10.864258,0,0
3428,2024 10 23,05:24:38.557,-0.574982,0.513941,0.509853,0.381196,-1.006867,0.018067,-0.094241,0.854492,-7.568359,-12.939453,0,0
3429,2024 10 23,05:24:38.565,-0.57604,0.514109,0.508487,0.381196,-0.958037,0.001953,-0.075198,-1.708984,-15.258789,-15.319824,0,0
3430,2024 10 23,05:24:38.573,-0.577161,0.514327,0.506876,0.381352,-0.925321,-0.027833,-0.066897,-3.356934,-16.235352,-15.50293,0,0
3431,2024 10 23,05:24:38.582,-0.577161,0.514327,0.506876,0.381352,-0.925321,-0.027833,-0.066897,-3.356934,-16.235352,-15.50293,0,0
3432,2024 10 23,05:24:38.590,-0.578164,0.514566,0.505427,0.381433,-0.940458,-0.059084,-0.079104,-2.258301,-14.099121,-14.404297,0,0
3433,2024 10 23,05:24:38.598,-0.579392,0.514573,0.503983,0.381471,-0.952178,-0.025391,-0.10889,2.01416,-16.845703,-14.770508,0,0
3434,2024 10 23,05:24:38.607,-0.5809,0.514371,0.50244,0.381487,-0.972686,-0.014649,-0.117191,3.051758,-19.836426,-15.625,0,0
3435,2024 10 23,05:24:38.615,-0.582593,0.514098,0.500697,0.381564,-0.940947,-0.034181,-0.092776,3.90625,-22.827148,-16.540527,0,0
3436,2024 10 23,05:24:38.623,-0.584266,0.51383,0.499027,0.381555,-0.94583,-0.037599,-0.109378,4.02832,-20.812988,-16.662598,0,0
3437,2024 10 23,05:24:38.632,-0.584266,0.51383,0.499027,0.381555,-0.94583,-0.037599,-0.109378,4.02832,-20.812988,-16.662598,0,0
3438,2024 10 23,05:24:38.640,-0.586062,0.513527,0.497333,0.38142,-0.954131,-0.009766,-0.155766,6.469727,-21.362305,-18.554688,0,0
3439,2024 10 23,05:24:38.648,-0.587908,0.513337,0.495542,0.381167,-0.977081,0.004883,-0.186041,5.371094,-20.263672,-20.996094,0,0
3440,2024 10 23,05:24:38.657,-0.58976,0.513356,0.493694,0.380677,-0.949248,-0.004883,-0.155766,4.394531,-18.798828,-24.230957,0,0
3441,2024 10 23,05:24:38.665,-0.59138,0.513747,0.491842,0.380032,-0.998566,-0.000488,-0.169439,2.502441,-13.305664,-26.611328,0,0
3442,2024 10 23,05:24:38.673,-0.593031,0.514407,0.490049,0.378882,-1.037629,0.012207,-0.149419,3.417969,-10.742188,-31.799316,0,0
3443,2024 10 23,05:24:38.682,-0.593031,0.514407,0.490049,0.378882,-1.037629,0.012207,-0.149419,3.417969,-10.742188,-31.799316,0,0
3444,2024 10 23,05:24:38.690,-0.594739,0.515433,0.487959,0.377505,-1.058138,0.015137,-0.170415,1.403809,-10.192871,-37.902832,0,0
3445,2024 10 23,05:24:38.698,-0.596589,0.516811,0.485509,0.375857,-1.088412,0.031251,-0.124027,-0.488281,-9.643555,-44.73877,0,0
3446,2024 10 23,05:24:38.707,-0.598368,0.518823,0.482846,0.373681,-1.154332,0.043458,-0.177252,-4.272461,-5.187988,-53.405762,0,0
3447,2024 10 23,05:24:38.715,-0.600339,0.521402,0.479498,0.371233,-1.14359,0.065432,-0.186041,-7.202148,-7.873535,-64.27002,0,0
3448,2024 10 23,05:24:38.723,-0.602272,0.52484,0.475484,0.368409,-1.217811,0.069338,-0.222663,-16.784668,-3.845215,-75.317383,0,0
3449,2024 10 23,05:24:38.732,-0.604244,0.529124,0.471084,0.364688,-1.244179,0.050783,-0.22364,-16.784668,-3.845215,-75.317383,0,0
3450,2024 10 23,05:24:38.740,-0.604244,0.529124,0.471084,0.364688,-1.244179,0.050783,-0.22364,-15.808105,0.427246,-90.515137,0,0
3451,2024 10 23,05:24:38.748,-0.60668,0.534111,0.465752,0.360194,-1.342326,0.070803,-0.191412,-19.348145,0.061035,-107.055664,0,0
3452,2024 10 23,05:24:38.757,-0.609491,0.540048,0.459341,0.354789,-1.442427,0.043458,-0.260262,-22.399902,-2.502441,-128.417969,0,0
3453,2024 10 23,05:24:38.765,-0.61334,0.546512,0.451318,0.348498,-1.448286,0.014649,-0.212897,-21.850586,-11.779785,-152.404785,0,0
3454,2024 10 23,05:24:38.773,-0.618097,0.553571,0.442037,0.340761,-1.50444,0.090823,-0.166509,-14.221191,-11.230469,-177.490234,0,0
3455,2024 10 23,05:24:38.782,-0.623463,0.561432,0.431958,0.330908,-1.709037,0.121586,-0.08594,-10.192871,-1.403809,-205.627441,0,0
3456,2024 10 23,05:24:38.790,-0.623463,0.561432,0.431958,0.330908,-1.709037,0.121586,-0.08594,-10.192871,-1.403809,-205.627441,0,0
3457,2024 10 23,05:24:38.798,-0.62946,0.570098,0.420951,0.318698,-1.938536,0.169927,-0.129887,-1.89209,3.601074,-236.755371,0,0
3458,2024 10 23,05:24:38.807,-0.637117,0.579269,0.4073,0.304362,-2.163152,0.245125,0.062014,0.854492,-11.413574,-280.883789,0,0
3459,2024 10 23,05:24:38.815,-0.646025,0.589129,0.390634,0.288069,-2.402417,0.290536,0.123539,8.911133,-24.291992,-324.401855,0,0
3460,2024 10 23,05:24:38.823,-0.656406,0.599065,0.370563,0.270065,-2.660237,0.392102,0.322275,9.277344,-47.790527,-366.943359,0,0
3461,2024 10 23,05:24:38.832,-0.666305,0.610326,0.346499,0.251949,-2.98349,0.144047,0.216315,-21.54541,-71.960449,-396.484375,0,0
3462,2024 10 23,05:24:38.840,-0.666305,0.610326,0.346499,0.251949,-2.98349,0.144047,0.216315,-21.54541,-71.960449,-396.484375,0,0
3463,2024 10 23,05:24:38.848,-0.676269,0.621727,0.317991,0.234515,-2.975677,-0.125492,0.54738,-32.897949,-114.624023,-423.583984,0,0
3464,2024 10 23,05:24:38.857,-0.684687,0.633845,0.286337,0.217842,-3.433699,0.000977,-0.096194,-57.312012,-129.272461,-434.753418,0,0
3465,2024 10 23,05:24:38.865,-0.694231,0.642451,0.251384,0.205195,-2.938566,0.36671,-0.165044,-54.56543,-219.421387,-414.916992,0,0
3466,2024 10 23,05:24:38.873,-0.702196,0.651255,0.211707,0.194854,-1.989318,0.142582,0.534684,-81.420898,-233.825684,-436.279297,0,0
3467,2024 10 23,05:24:38.882,-0.709107,0.659336,0.175385,0.177997,-1.94879,0.531266,0.345714,-40.710449,-149.658203,-457.641602,0,0
3468,2024 10 23,05:24:38.890,-0.709107,0.659336,0.175385,0.177997,-1.94879,0.531266,0.345714,-40.710449,-149.658203,-457.641602,0,0
3469,2024 10 23,05:24:38.898,-0.716217,0.665582,0.139157,0.157064,-2.021546,0.688009,0.620136,-22.583008,-138.61084,-489.868164,0,0
3470,2024 10 23,05:24:38.907,-0.723197,0.669744,0.102489,0.133884,-1.465865,0.841823,0.694357,-1.098633,-125.854492,-501.098633,0,1
3471,2024 10 23,05:24:38.915,-0.729325,0.67167,0.068616,0.110616,-0.838404,0.946806,0.661641,13.305664,-100.708008,-458.312988,0,0
3472,2024 10 23,05:24:38.923,-0.735184,0.670328,0.041071,0.092076,0.339366,2.298898,-0.061037,47.790527,-96.984863,-344.909668,0,0
3473,2024 10 23,05:24:38.932,-0.738705,0.667885,0.022561,0.087955,0.12598,1.442915,0.595721,-18.310547,-117.553711,-114.624023,0,0
3474,2024 10 23,05:24:38.940,-0.738705,0.667885,0.022561,0.087955,0.12598,1.442915,0.595721,-18.310547,-117.553711,-114.624023,0,0
3475,2024 10 23,05:24:38.948,-0.738547,0.66714,0.02903,0.092896,-0.700705,2.064516,-0.271004,37.414551,38.818359,150.146484,0,0
3476,2024 10 23,05:24:38.957,-0.735573,0.666874,0.043469,0.111008,-1.531785,1.349651,0.721702,-32.897949,-33.26416,288.146973,0,0
3477,2024 10 23,05:24:38.965,-0.728835,0.668188,0.057823,0.137773,-1.299356,0.544939,0.157231,-55.236816,-97.717285,342.163086,0,0
3478,2024 10 23,05:24:38.973,-0.722804,0.666913,0.070039,0.16696,-0.59328,0.469741,0.724631,-30.517578,-120.178223,339.050293,0,0
3479,2024 10 23,05:24:38.982,-0.71616,0.665406,0.082733,0.19366,-0.106937,0.207038,0.698752,-30.334473,-88.623047,324.829102,0,0
3480,2024 10 23,05:24:38.990,-0.71616,0.665406,0.082733,0.19366,-0.106937,0.207038,0.698752,-30.334473,-88.623047,324.829102,0,0
3481,2024 10 23,05:24:38.998,-0.710091,0.663234,0.09738,0.215425,-0.15186,0.158696,0.731468,-7.629395,-30.395508,298.278809,0,0
3482,2024 10 23,05:24:39.007,-0.704242,0.661035,0.114723,0.232195,-0.503433,0.238289,0.623554,3.295898,24.536133,280.395508,0,0
3483,2024 10 23,05:24:39.015,-0.698096,0.658466,0.132933,0.247817,-0.79397,0.534684,0.422376,3.295898,25.32959,281.982422,0,0
3484,2024 10 23,05:24:39.023,-0.690477,0.655809,0.150493,0.265534,-1.066439,0.737327,0.301767,-18.920898,3.967285,299.316406,0,0
3485,2024 10 23,05:24:39.032,-0.680553,0.653391,0.166892,0.286487,-1.151891,0.678243,0.34962,-48.156738,-28.808594,322.20459,0,0
3486,2024 10 23,05:24:39.040,-0.680553,0.653391,0.166892,0.286487,-1.151891,0.678243,0.34962,-48.156738,-28.808594,322.20459,0,0
3487,2024 10 23,05:24:39.048,-0.668278,0.650855,0.181641,0.311124,-0.924345,0.474136,0.516129,-75.622559,-62.316895,347.229004,0,0
3488,2024 10 23,05:24:39.057,-0.653781,0.648366,0.196743,0.336873,-0.74807,0.28663,0.624043,-89.233398,-52.246094,365.661621,0,0
3489,2024 10 23,05:24:39.065,-0.637466,0.646283,0.213396,0.361133,-0.816431,0.16895,0.699728,-94.787598,-21.728516,369.628906,0,0
3490,2024 10 23,05:24:39.073,-0.619765,0.644749,0.231165,0.383083,-0.988311,0.0918,0.670431,-98.144531,8.117676,363.586426,0,0
3491,2024 10 23,05:24:39.082,-0.601103,0.64351,0.249384,0.402961,-1.198279,0.097171,0.659688,-100.830078,27.954102,355.59082,0,0
3492,2024 10 23,05:24:39.090,-0.601103,0.64351,0.249384,0.402961,-1.198279,0.097171,0.659688,-100.830078,27.954102,355.59082,0,0
3493,2024 10 23,05:24:39.098,-0.581203,0.642581,0.267526,0.421571,-1.435591,0.096194,0.545915,-110.229492,39.306641,351.5625,0,0
3494,2024 10 23,05:24:39.107,-0.560099,0.641546,0.285006,0.439862,-1.589892,0.077151,0.537126,-122.070313,37.963867,351.501465,0,0
3495,2024 10 23,05:24:39.115,-0.537617,0.640281,0.301642,0.45828,-1.66216,0.054689,0.564959,-135.681152,35.461426,354.797363,0,0
3496,2024 10 23,05:24:39.123,-0.513584,0.638921,0.317685,0.476537,-1.769097,0.033692,0.595233,-148.986816,39.855957,358.215332,0,0
3497,2024 10 23,05:24:39.132,-0.487921,0.637586,0.333281,0.494309,-1.932676,-0.00293,0.644551,-161.560059,46.508789,361.14502,0,0
3498,2024 10 23,05:24:39.140,-0.460821,0.636107,0.34835,0.511531,-2.104068,-0.061525,0.713401,-171.75293,52.001953,363.342285,0,0
3499,2024 10 23,05:24:39.148,-0.460821,0.636107,0.34835,0.511531,-2.104068,-0.061525,0.713401,-171.75293,52.001953,363.342285,0,0
3500,2024 10 23,05:24:39.157,-0.432525,0.63434,0.362777,0.528135,-2.241279,-0.233406,0.791528,-179.382324,55.419922,364.135742,0,0
3501,2024 10 23,05:24:39.165,-0.403423,0.632185,0.376664,0.543798,-2.339915,-0.487808,0.85696,-182.189941,61.096191,363.342285,0,0
3502,2024 10 23,05:24:39.173,-0.373974,0.629528,0.390065,0.55829,-2.341868,-0.790063,0.896512,-178.588867,65.490723,360.229492,0,0
3503,2024 10 23,05:24:39.182,-0.344787,0.626299,0.40301,0.571363,-2.322825,-1.038118,0.972686,-170.227051,68.481445,352.844238,0,0
3504,2024 10 23,05:24:39.190,-0.316224,0.622819,0.415252,0.582807,-2.340892,-1.196326,0.98587,-163.391113,72.570801,339.050293,0,0
3505,2024 10 23,05:24:39.198,-0.316224,0.622819,0.415252,0.582807,-2.340892,-1.196326,0.98587,-163.391113,72.570801,339.050293,0,0
3506,2024 10 23,05:24:39.207,-0.288676,0.619082,0.426583,0.592815,-2.343822,-1.319865,1.083529,-153.747559,71.594238,322.692871,0,0
3507,2024 10 23,05:24:39.215,-0.262457,0.615164,0.436777,0.601594,-2.234443,-1.605518,1.236854,-147.583008,67.749023,302.734375,0,0
3508,2024 10 23,05:24:39.223,-0.237916,0.611536,0.445785,0.608847,-1.963439,-1.969787,1.342814,-135.437012,70.495605,277.709961,0,0
3509,2024 10 23,05:24:39.232,-0.215045,0.609152,0.454081,0.613596,-1.668996,-2.190985,1.307657,-119.689941,90.698242,248.901367,0,0
3510,2024 10 23,05:24:39.240,-0.193186,0.609145,0.461882,0.615049,-1.469283,-2.296945,0.983428,-106.079102,127.319336,217.712402,0,0
3511,2024 10 23,05:24:39.248,-0.193186,0.609145,0.461882,0.615049,-1.469283,-2.296945,0.983428,-106.079102,127.319336,217.712402,0,0
3512,2024 10 23,05:24:39.257,-0.173822,0.611506,0.468244,0.613673,-0.647969,-2.4991,0.354991,-86.303711,141.723633,164.123535,0,0
3513,2024 10 23,05:24:39.265,-0.154975,0.619,0.47252,0.607903,-1.61919,-3.486434,-0.509293,-89.72168,236.633301,116.577148,0,0
3514,2024 10 23,05:24:39.273,-0.13648,0.63196,0.477179,0.595231,-3.06064,-3.550401,-1.079134,-45.166016,290.893555,81.237793,0,0
3515,2024 10 23,05:24:39.282,-0.126512,0.638771,0.477466,0.589909,-2.986419,-3.922971,-1.211951,-59.265137,86.120605,36.987305,0,0
3516,2024 10 23,05:24:39.290,-0.130753,0.634948,0.474002,0.595875,-1.329142,-3.672475,-0.090823,-3.845215,-128.112793,-12.207031,0,0
3517,2024 10 23,05:24:39.298,-0.130753,0.634948,0.474002,0.595875,-1.329142,-3.672475,-0.090823,-3.845215,-128.112793,-12.207031,0,0
3518,2024 10 23,05:24:39.307,-0.141254,0.631771,0.471509,0.598825,-5.729179,-2.627033,0.628437,62.561035,-67.199707,-69.091797,0,0
3519,2024 10 23,05:24:39.315,-0.158226,0.639556,0.456498,0.597948,-1.713431,-3.171972,-0.371593,-54.199219,-184.020996,-260.192871,0,0
3520,2024 10 23,05:24:39.323,-0.190674,0.639587,0.43391,0.605222,-0.68215,-0.168951,-0.462905,62.37793,-281.188965,-375.915527,1,0
3521,2024 10 23,05:24:39.332,-0.218477,0.639384,0.407635,0.614239,-0.866726,1.221229,0.351085,-55.480957,-230.285645,-345.947266,0,0
3522,2024 10 23,05:24:39.340,-0.231451,0.644969,0.382403,0.619849,-1.680227,-0.090823,-0.290536,-167.480469,-98.632813,-279.174805,0,0
3523,2024 10 23,05:24:39.348,-0.231451,0.644969,0.382403,0.619849,-1.680227,-0.090823,-0.290536,-167.480469,-98.632813,-279.174805,0,0
3524,2024 10 23,05:24:39.357,-0.239661,0.650791,0.357739,0.625345,-1.53032,-1.043489,-1.7481,-131.958008,-110.168457,-237.976074,0,0
3525,2024 10 23,05:24:39.365,-0.248778,0.653676,0.344055,0.626453,-1.214393,-0.823267,0.020997,-15.075684,-6.958008,-141.235352,0,0
3526,2024 10 23,05:24:39.373,-0.251112,0.661942,0.34296,0.617377,-1.745659,-0.335459,-0.19483,34.790039,135.742188,-63.720703,0,0
3527,2024 10 23,05:24:39.382,-0.253053,0.666784,0.344993,0.6102,-1.471236,0.256844,0.635762,31.25,68.29834,-27.832031,0,0
3528,2024 10 23,05:24:39.390,-0.251673,0.669317,0.34229,0.609519,-0.834498,0.012696,-0.689474,-46.569824,-2.258301,-28.076172,0,0
3529,2024 10 23,05:24:39.398,-0.251673,0.669317,0.34229,0.609519,-0.834498,0.012696,-0.689474,-46.569824,-2.258301,-28.076172,0,0
3530,2024 10 23,05:24:39.407,-0.254192,0.668206,0.337563,0.612322,-0.471694,-0.158208,-0.033692,-11.047363,-50.231934,-41.931152,0,0
3531,2024 10 23,05:24:39.415,-0.254854,0.670669,0.336082,0.610165,-0.778832,-0.207526,-0.15186,-1.586914,56.45752,-26.550293,0,0
3532,2024 10 23,05:24:39.423,-0.25619,0.67456,0.337636,0.604431,-1.230995,0.144536,-0.050783,43.518066,64.453125,-31.311035,0,0
3533,2024 10 23,05:24:39.432,-0.259191,0.67631,0.337818,0.601086,-1.17777,0.243171,-0.029786,20.690918,16.723633,-38.391113,0,0
3534,2024 10 23,05:24:39.440,-0.261522,0.677605,0.335693,0.599807,-0.904813,0.034181,-0.251961,5.371094,5.554199,-43.151855,0,0
3535,2024 10 23,05:24:39.448,-0.261522,0.677605,0.335693,0.599807,-0.904813,0.034181,-0.251961,5.371094,5.554199,-43.151855,0,0
3536,2024 10 23,05:24:39.457,-0.263834,0.679909,0.334418,0.596892,-0.946806,0.062502,-0.028809,14.343262,36.804199,-42.96875,0,0
3537,2024 10 23,05:24:39.465,-0.265003,0.683569,0.333707,0.592576,-1.152867,0.000977,0.006348,8.666992,54.504395,-40.283203,0,0
3538,2024 10 23,05:24:39.473,-0.266698,0.686314,0.332791,0.589148,-1.230995,0.027345,0.013672,13.366699,29.052734,-39.001465,0,0
3539,2024 10 23,05:24:39.482,-0.269221,0.687321,0.331281,0.587676,-1.147984,0.027833,0.117679,10.498047,-0.793457,-36.743164,0,0
3540,2024 10 23,05:24:39.490,-0.271604,0.687906,0.32966,0.586806,-1.168493,-0.002441,0.06006,10.620117,-2.319336,-32.653809,0,0
3541,2024 10 23,05:24:39.498,-0.271604,0.687906,0.32966,0.586806,-1.168493,-0.002441,0.06006,10.620117,-2.319336,-32.653809,0,0
3542,2024 10 23,05:24:39.507,-0.274151,0.687984,0.328413,0.586229,-1.194861,0.06006,0.069338,13.061523,-10.742188,-27.648926,0,0
3543,2024 10 23,05:24:39.515,-0.276357,0.687222,0.326707,0.587039,-1.12064,0.052248,0.008301,2.746582,-29.11377,-21.484375,0,0
3544,2024 10 23,05:24:39.523,-0.27805,0.68592,0.324784,0.588827,-0.938505,0.046876,-0.042482,-3.479004,-33.508301,-14.526367,0,0
3545,2024 10 23,05:24:39.532,-0.278906,0.685282,0.32322,0.590025,-0.878445,0.061525,-0.144047,-8.728027,-16.967773,-11.291504,0,0
3546,2024 10 23,05:24:39.540,-0.279037,0.685415,0.321945,0.590506,-0.885281,0.096194,-0.245125,-9.460449,-2.624512,-10.498047,0,0
3547,2024 10 23,05:24:39.548,-0.278883,0.686291,0.320641,0.59027,-0.886258,0.045412,-0.080081,-13.61084,8.972168,-12.634277,0,0
3548,2024 10 23,05:24:39.557,-0.278883,0.686291,0.320641,0.59027,-0.886258,0.045412,-0.080081,-13.61084,8.972168,-12.634277,0,0
3549,2024 10 23,05:24:39.565,-0.278241,0.687706,0.319574,0.589504,-0.949248,-0.003906,-0.069826,-14.709473,16.906738,-11.59668,0,0
3550,2024 10 23,05:24:39.573,-0.27805,0.6893,0.318617,0.588249,-1.047884,0.06299,-0.038575,-6.713867,20.446777,-18.249512,0,0
3551,2024 10 23,05:24:39.582,-0.278148,0.690945,0.317263,0.587003,-1.001007,0.037599,0.014161,-10.498047,15.441895,-23.254395,0,0
3552,2024 10 23,05:24:39.590,-0.27834,0.692506,0.315632,0.585951,-0.970733,0.004395,-0.04297,-9.70459,14.343262,-23.681641,0,0
3553,2024 10 23,05:24:39.598,-0.278846,0.694186,0.314029,0.584582,-1.046419,0.016114,-0.054201,-5.554199,17.333984,-28.503418,0,0
3554,2024 10 23,05:24:39.607,-0.278846,0.694186,0.314029,0.584582,-1.046419,0.016114,-0.054201,-5.554199,17.333984,-28.503418,0,0
3555,2024 10 23,05:24:39.615,-0.279972,0.695568,0.312148,0.583408,-0.959502,0.007324,0.000488,-6.958008,5.92041,-31.738281,0,0
3556,2024 10 23,05:24:39.623,-0.280903,0.696898,0.309834,0.582606,-0.933134,-0.027833,-0.087405,-9.033203,6.896973,-32.348633,0,0
3557,2024 10 23,05:24:39.632,-0.282012,0.69829,0.307635,0.581568,-0.934599,-0.034181,-0.095218,-5.859375,6.896973,-33.569336,0,0
3558,2024 10 23,05:24:39.640,-0.28331,0.699317,0.305279,0.580944,-0.926298,-0.057619,0.00586,-7.019043,0.549316,-32.531738,0,0
3559,2024 10 23,05:24:39.648,-0.284479,0.700381,0.303009,0.580279,-0.992706,-0.041505,-0.076174,-6.652832,1.525879,-31.616211,0,0
3560,2024 10 23,05:24:39.657,-0.284479,0.700381,0.303009,0.580279,-0.992706,-0.041505,-0.076174,-6.652832,1.525879,-31.616211,0,0
3561,2024 10 23,05:24:39.665,-0.286067,0.700949,0.300641,0.580044,-0.93704,-0.064455,-0.006348,-3.78418,-8.972168,-32.348633,0,0
3562,2024 10 23,05:24:39.673,-0.287663,0.701309,0.298313,0.580021,-0.954619,-0.068361,-0.023927,-3.723145,-8.789063,-30.029297,0,0
3563,2024 10 23,05:24:39.682,-0.289365,0.701501,0.296122,0.580065,-0.971221,-0.068361,-0.051759,-1.220703,-12.939453,-29.052734,0,0
3564,2024 10 23,05:24:39.690,-0.29133,0.701276,0.293892,0.580487,-0.935575,-0.06592,-0.059084,0.061035,-18.798828,-28.625488,0,0
3565,2024 10 23,05:24:39.698,-0.293276,0.701023,0.291744,0.580897,-0.966338,-0.057131,-0.063967,1.098633,-16.662598,-28.076172,0,0
3566,2024 10 23,05:24:39.707,-0.293276,0.701023,0.291744,0.580897,-0.966338,-0.057131,-0.063967,1.098633,-16.662598,-28.076172,0,0
3567,2024 10 23,05:24:39.715,-0.29523,0.700769,0.289619,0.581277,-1.01175,-0.053224,-0.054689,0.671387,-17.76123,-28.320313,0,0
3568,2024 10 23,05:24:39.723,-0.297343,0.700374,0.287396,0.581779,-1.010285,-0.04883,-0.073733,1.708984,-20.996094,-29.35791,0,0
3569,2024 10 23,05:24:39.732,-0.299657,0.699896,0.284976,0.582357,-1.020051,-0.055177,-0.06299,2.868652,-22.827148,-32.409668,0,0
3570,2024 10 23,05:24:39.740,-0.302216,0.699418,0.282361,0.582883,-1.023957,-0.041017,-0.072268,2.441406,-23.620605,-35.827637,0,0
3571,2024 10 23,05:24:39.748,-0.304861,0.699045,0.279489,0.583337,-1.029328,-0.046388,-0.106449,2.075195,-23.193359,-39.245605,0,0
3572,2024 10 23,05:24:39.757,-0.304861,0.699045,0.279489,0.583337,-1.029328,-0.046388,-0.106449,2.075195,-23.193359,-39.245605,0,0
3573,2024 10 23,05:24:39.765,-0.307802,0.698798,0.2764,0.583559,-1.067904,-0.005371,-0.135746,3.112793,-21.728516,-44.86084,0,0
3574,2024 10 23,05:24:39.773,-0.310874,0.698854,0.27278,0.583567,-1.082553,-0.015625,-0.118168,-1.342773,-20.141602,-52.185059,0,0
3575,2024 10 23,05:24:39.782,-0.314095,0.699337,0.2686,0.583204,-1.152867,-0.019532,-0.132817,-3.051758,-16.601563,-60.60791,0,0
3576,2024 10 23,05:24:39.790,-0.317757,0.700061,0.26381,0.582538,-1.193396,0.003906,-0.127445,-4.02832,-17.150879,-70.983887,0,0
3577,2024 10 23,05:24:39.798,-0.321821,0.701066,0.257998,0.5817,-1.224158,0.018067,-0.166997,-9.094238,-18.981934,-84.04541,0,0
3578,2024 10 23,05:24:39.807,-0.321821,0.701066,0.257998,0.5817,-1.224158,0.018067,-0.166997,-9.094238,-18.981934,-84.04541,0,0
3579,2024 10 23,05:24:39.815,-0.326134,0.702438,0.250867,0.580761,-1.221229,-0.031739,-0.203131,-17.150879,-21.240234,-98.144531,0,0
3580,2024 10 23,05:24:39.823,-0.331154,0.704072,0.242839,0.579351,-1.279824,-0.010254,-0.182134,-13.85498,-19.165039,-112.609863,0,0
3581,2024 10 23,05:24:39.832,-0.336977,0.70611,0.23408,0.577115,-1.366741,0.004395,-0.08301,-12.878418,-15.258789,-129.02832,0,0
3582,2024 10 23,05:24:39.840,-0.343666,0.708422,0.224154,0.574271,-1.427778,-0.029298,-0.034669,-12.390137,-18.371582,-148.620605,0,0
3583,2024 10 23,05:24:39.848,-0.351701,0.710567,0.212941,0.571015,-1.488815,-0.039064,-0.031251,-6.469727,-24.169922,-169.128418,0,0
3584,2024 10 23,05:24:39.857,-0.351701,0.710567,0.212941,0.571015,-1.488815,-0.039064,-0.031251,-6.469727,-24.169922,-169.128418,0,0
3585,2024 10 23,05:24:39.865,-0.361577,0.712455,0.200323,0.567045,-1.605518,0.008789,0.001953,0.061035,-31.37207,-196.472168,0,0
3586,2024 10 23,05:24:39.873,-0.373126,0.714103,0.185882,0.56239,-1.738334,0.043947,0.000977,6.835938,-37.963867,-226.44043,0,0
3587,2024 10 23,05:24:39.882,-0.386735,0.715437,0.169714,0.556582,-1.884335,0.091311,0.046876,15.991211,-42.724609,-259.94873,0,0
3588,2024 10 23,05:24:39.890,-0.402311,0.716417,0.151486,0.549495,-2.085513,0.192877,0.076174,22.827148,-47.668457,-296.081543,0,0
3589,2024 10 23,05:24:39.898,-0.419323,0.717023,0.130543,0.541299,-2.369213,0.181646,0.029786,17.211914,-57.373047,-333.190918,0,0
3590,2024 10 23,05:24:39.907,-0.419323,0.717023,0.130543,0.541299,-2.369213,0.181646,0.029786,17.211914,-57.373047,-333.190918,0,0
3591,2024 10 23,05:24:39.915,-0.437359,0.716701,0.106294,0.53269,-2.552812,0.144536,0.158696,9.033203,-80.01709,-367.126465,0,0
3592,2024 10 23,05:24:39.923,-0.455343,0.71585,0.078818,0.523459,-2.749107,-0.061037,0.27784,-8.056641,-92.407227,-395.446777,0,0
3593,2024 10 23,05:24:39.932,-0.472469,0.714343,0.048204,0.513969,-3.147557,-0.272469,0.122562,-29.907227,-111.450195,-414.794922,0,0
3594,2024 10 23,05:24:39.940,-0.489196,0.710291,0.016002,0.505884,-3.293069,-0.029298,-0.296884,-27.832031,-158.02002,-409.851074,0,0
3595,2024 10 23,05:24:39.948,-0.504452,0.702427,-0.019602,0.501737,-2.312571,-0.031739,0.477065,-41.259766,-224.731445,-414.367676,0,0
3596,2024 10 23,05:24:39.957,-0.518187,0.696246,-0.054782,0.493683,-2.086978,0.078616,0.315439,-46.081543,-147.888184,-421.936035,0,0
3597,2024 10 23,05:24:39.965,-0.518187,0.696246,-0.054782,0.493683,-2.086978,0.078616,0.315439,-46.081543,-147.888184,-421.936035,0,0
3598,2024 10 23,05:24:39.973,-0.534346,0.689454,-0.087497,0.481115,-2.119205,0.370128,0.558611,-18.737793,-124.572754,-448.669434,0,0
3599,2024 10 23,05:24:39.982,-0.55167,0.680573,-0.120638,0.466826,-1.690481,0.485855,0.963897,2.868652,-119.934082,-467.956543,0,1
3600,2024 10 23,05:24:39.990,-0.569313,0.670731,-0.150937,0.450799,-0.895535,0.594256,0.888211,25.512695,-91.430664,-444.519043,0,0
3601,2024 10 23,05:24:39.998,-0.585992,0.66016,-0.174878,0.436142,-0.696799,0.864772,0.952666,57.556152,-63.903809,-363.891602,0,0
3602,2024 10 23,05:24:40.007,-0.597819,0.650082,-0.190692,0.428535,0.146977,1.414106,0.701682,68.481445,-96.008301,-209.655762,0,0
3603,2024 10 23,05:24:40.015,-0.597819,0.650082,-0.190692,0.428535,0.146977,1.414106,0.701682,68.481445,-96.008301,-209.655762,0,0
3604,2024 10 23,05:24:40.023,-0.597681,0.647793,-0.194023,0.430693,-0.511734,1.774956,-0.439467,21.484375,-16.235352,52.734375,0,0
3605,2024 10 23,05:24:40.032,-0.591316,0.648975,-0.182574,0.442542,-1.146519,1.601611,0.810572,-2.624512,-32.470703,226.013184,0,0
3606,2024 10 23,05:24:40.040,-0.575822,0.654413,-0.171301,0.459162,-0.92581,0.680685,0.090335,-63.903809,-60.668945,289.367676,0,0
3607,2024 10 23,05:24:40.048,-0.560109,0.658514,-0.159549,0.476635,-0.150883,0.615741,0.787622,-45.227051,-56.884766,285.949707,0,0
3608,2024 10 23,05:24:40.057,-0.544624,0.664999,-0.146797,0.489502,0.036134,0.383801,0.688986,-63.842773,7.202148,269.348145,0,0
3609,2024 10 23,05:24:40.065,-0.544624,0.664999,-0.146797,0.489502,0.036134,0.383801,0.688986,-63.842773,7.202148,269.348145,0,0
3610,2024 10 23,05:24:40.073,-0.5309,0.672884,-0.131785,0.498001,-0.178716,0.344737,0.738792,-49.560547,59.936523,253.479004,0,0
3611,2024 10 23,05:24:40.082,-0.517673,0.681861,-0.115007,0.503839,-0.431654,0.431654,0.544939,-48.828125,92.773438,252.441406,0,0
3612,2024 10 23,05:24:40.090,-0.503812,0.690818,-0.097499,0.50935,-0.626484,0.574236,0.370617,-52.246094,91.064453,259.94873,0,0
3613,2024 10 23,05:24:40.098,-0.488535,0.69942,-0.079918,0.515517,-0.82815,0.554216,0.32667,-62.744141,82.214355,272.216797,0,0
3614,2024 10 23,05:24:40.107,-0.471691,0.707143,-0.062545,0.523015,-0.769066,0.403821,0.342296,-68.54248,60.424805,286.254883,0,0
3615,2024 10 23,05:24:40.115,-0.471691,0.707143,-0.062545,0.523015,-0.769066,0.403821,0.342296,-68.54248,60.424805,286.254883,0,0
3616,2024 10 23,05:24:40.123,-0.453985,0.713805,-0.044622,0.531402,-0.555193,0.264657,0.374523,-62.62207,56.640625,301.025391,0,0
3617,2024 10 23,05:24:40.132,-0.436218,0.72037,-0.024623,0.538678,-0.514664,0.179205,0.335948,-48.217773,80.871582,312.866211,0,0
3618,2024 10 23,05:24:40.140,-0.418868,0.727011,-0.002103,0.54406,-0.645039,0.165532,0.268075,-30.334473,110.778809,321.289063,0,0
3619,2024 10 23,05:24:40.148,-0.401929,0.733633,0.022699,0.547467,-0.887234,0.184088,0.125004,-13.73291,136.474609,327.331543,0,0
3620,2024 10 23,05:24:40.157,-0.385101,0.739693,0.049084,0.549675,-1.126499,0.222663,-0.022462,-1.037598,147.521973,334.472656,0,0
3621,2024 10 23,05:24:40.165,-0.385101,0.739693,0.049084,0.549675,-1.126499,0.222663,-0.022462,-1.037598,147.521973,334.472656,0,0
3622,2024 10 23,05:24:40.173,-0.36805,0.744702,0.076659,0.551435,-1.324259,0.246101,-0.175298,7.873535,148.620605,344.604492,0,0
3623,2024 10 23,05:24:40.182,-0.350484,0.748327,0.10485,0.55333,-1.475631,0.233894,-0.299814,11.779785,140.991211,354.125977,0,0
3624,2024 10 23,05:24:40.190,-0.332502,0.750532,0.133179,0.555345,-1.554247,0.204596,-0.393078,13.793945,132.93457,359.069824,0,0
3625,2024 10 23,05:24:40.198,-0.314339,0.751514,0.161259,0.557147,-1.61626,0.153813,-0.457045,16.052246,128.112793,358.337402,0,0
3626,2024 10 23,05:24:40.207,-0.296309,0.75142,0.189085,0.558405,-1.68804,0.11475,-0.499527,21.240234,125.854492,355.895996,0,0
3627,2024 10 23,05:24:40.215,-0.296309,0.75142,0.189085,0.558405,-1.68804,0.11475,-0.499527,21.240234,125.854492,355.895996,0,0
3628,2024 10 23,05:24:40.223,-0.278564,0.750279,0.216963,0.558937,-1.839412,0.053713,-0.542985,30.273438,125.610352,355.407715,0,0
3629,2024 10 23,05:24:40.232,-0.261495,0.74781,0.245137,0.558846,-1.983459,-0.067385,-0.554216,45.471191,121.21582,356.140137,0,0
3630,2024 10 23,05:24:40.240,-0.245591,0.743695,0.273964,0.558164,-2.124577,-0.252449,-0.530778,68.29834,114.135742,358.825684,0,0
3631,2024 10 23,05:24:40.248,-0.231424,0.737621,0.303736,0.556869,-2.208564,-0.439955,-0.489273,97.900391,103.33252,361.694336,0,0
3632,2024 10 23,05:24:40.257,-0.219324,0.72957,0.334499,0.554738,-2.237861,-0.606952,-0.45851,130.981445,94.055176,362.365723,0,0
3633,2024 10 23,05:24:40.265,-0.219324,0.72957,0.334499,0.554738,-2.237861,-0.606952,-0.45851,130.981445,94.055176,362.365723,0,0
3634,2024 10 23,05:24:40.273,-0.209544,0.719747,0.366054,0.551416,-2.237861,-0.773949,-0.414075,162.902832,86.120605,358.276367,0,0
3635,2024 10 23,05:24:40.282,-0.201882,0.708695,0.397907,0.546502,-2.249092,-0.920927,-0.396008,190.612793,85.510254,348.571777,0,0
3636,2024 10 23,05:24:40.290,-0.195798,0.697232,0.429138,0.539789,-2.273507,-1.134312,-0.449721,204.284668,89.96582,330.200195,0,0
3637,2024 10 23,05:24:40.298,-0.190888,0.686203,0.458317,0.531631,-2.211493,-1.431684,-0.555681,203.552246,94.482422,299.682617,0,0
3638,2024 10 23,05:24:40.307,-0.18672,0.676444,0.484406,0.522408,-2.104556,-1.735404,-0.767113,189.208984,100.830078,262.084961,0,0
3639,2024 10 23,05:24:40.315,-0.18672,0.676444,0.484406,0.522408,-2.104556,-1.735404,-0.767113,189.208984,100.830078,262.084961,0,0
3640,2024 10 23,05:24:40.323,-0.183006,0.668551,0.50646,0.512881,-2.051332,-2.109928,-1.124546,163.085938,102.722168,216.247559,0,0
3641,2024 10 23,05:24:40.332,-0.180512,0.662537,0.523725,0.504154,-1.769097,-2.472243,-1.584033,137.268066,87.402344,163.696289,0,0
3642,2024 10 23,05:24:40.340,-0.180211,0.658351,0.536602,0.496141,-2.159734,-3.053316,-1.913144,121.032715,75.439453,108.764648,0,0
3643,2024 10 23,05:24:40.348,-0.183906,0.657273,0.543741,0.488381,-3.400983,-3.867794,-3.17539,108.337402,39.18457,19.470215,0,0
3644,2024 10 23,05:24:40.357,-0.200605,0.652656,0.542236,0.489672,-3.172948,-4.524552,-2.170476,126.77002,-168.029785,-73.303223,0,0
3645,2024 10 23,05:24:40.365,-0.228522,0.64608,0.533245,0.495992,-2.540117,-4.766259,-1.274453,118.713379,-291.992188,-163.513184,0,0
3646,2024 10 23,05:24:40.373,-0.228522,0.64608,0.533245,0.495992,-2.540117,-4.766259,-1.274453,118.713379,-291.992188,-163.513184,0,0
3647,2024 10 23,05:24:40.382,-0.266015,0.638106,0.520963,0.500654,-0.944853,-2.250069,-1.416547,236.083984,-348.876953,-230.59082,1,0
3648,2024 10 23,05:24:40.390,-0.312528,0.622083,0.514323,0.50081,-0.999542,2.291574,1.143101,352.661133,-368.408203,-204.162598,0,0
3649,2024 10 23,05:24:40.398,-0.334572,0.616189,0.504475,0.503863,-1.539109,2.143132,2.193915,19.53125,-171.386719,-149.108887,0,0
3650,2024 10 23,05:24:40.407,-0.337578,0.621904,0.488304,0.510721,-1.646535,0.948759,0.325205,-180.297852,-104.370117,-149.353027,0,0
3651,2024 10 23,05:24:40.415,-0.333815,0.630692,0.464473,0.524461,-0.845241,-1.142125,-1.61626,-287.780762,-110.656738,-140.441895,0,0
3652,2024 10 23,05:24:40.423,-0.333815,0.630692,0.464473,0.524461,-0.845241,-1.142125,-1.61626,-287.780762,-110.656738,-140.441895,0,0
3653,2024 10 23,05:24:40.432,-0.335797,0.635136,0.448071,0.532048,-0.876003,-0.972686,-1.587939,-94.055176,-91.369629,-108.459473,0,0
3654,2024 10 23,05:24:40.440,-0.342548,0.634202,0.440822,0.534906,-1.004913,0.341319,0.237312,4.699707,-73.181152,-64.51416,0,0
3655,2024 10 23,05:24:40.448,-0.343479,0.634791,0.434853,0.538484,-1.4644,0.225105,0.647481,-72.32666,-50.354004,-33.691406,0,0
3656,2024 10 23,05:24:40.457,-0.341541,0.635502,0.425734,0.546111,-0.930692,-0.427747,-0.008789,-114.746094,-87.768555,-28.442383,0,0
3657,2024 10 23,05:24:40.465,-0.342821,0.634151,0.419645,0.551565,-0.712912,-0.153813,-0.817408,-15.991211,-70.739746,-19.958496,0,0
3658,2024 10 23,05:24:40.473,-0.342821,0.634151,0.419645,0.551565,-0.712912,-0.153813,-0.817408,-15.991211,-70.739746,-19.958496,0,0
3659,2024 10 23,05:24:40.482,-0.345533,0.631469,0.416416,0.555384,-0.866237,0.161626,0.302744,-22.521973,-59.265137,-9.70459,0,0
3660,2024 10 23,05:24:40.490,-0.345134,0.631022,0.412893,0.558761,-0.987823,-0.090823,-0.527848,-31.677246,-39.489746,-8.728027,0,0
3661,2024 10 23,05:24:40.498,-0.34731,0.629154,0.410786,0.561067,-0.909696,0.15186,-0.029786,1.464844,-41.809082,-10.864258,0,0
3662,2024 10 23,05:24:40.507,-0.348682,0.628296,0.408859,0.562583,-0.905301,0.104984,-0.269051,-5.493164,-26.794434,-15.014648,0,0
3663,2024 10 23,05:24:40.515,-0.350536,0.627746,0.407144,0.563288,-0.887234,0.116214,-0.181646,1.525879,-20.507813,-20.202637,0,0
3664,2024 10 23,05:24:40.523,-0.350536,0.627746,0.407144,0.563288,-0.887234,0.116214,-0.181646,1.525879,-20.507813,-20.202637,0,0
3665,2024 10 23,05:24:40.532,-0.352033,0.627795,0.405686,0.563352,-0.973662,0.109378,-0.170904,2.258301,-8.850098,-21.057129,0,0
3666,2024 10 23,05:24:40.540,-0.353648,0.628034,0.404368,0.563022,-1.05179,0.111332,0.018067,3.479004,-7.141113,-23.4375,0,0
3667,2024 10 23,05:24:40.548,-0.3551,0.628405,0.402831,0.562795,-1.03177,0.041505,-0.072756,-0.793457,-9.338379,-23.254395,0,0
3668,2024 10 23,05:24:40.557,-0.356765,0.628375,0.401366,0.562823,-1.006378,0.056154,-0.041505,3.78418,-13.85498,-20.446777,0,0
3669,2024 10 23,05:24:40.565,-0.358345,0.62813,0.400014,0.563055,-0.989776,0.068361,-0.046388,1.220703,-15.625,-17.211914,0,0
3670,2024 10 23,05:24:40.573,-0.358345,0.62813,0.400014,0.563055,-0.989776,0.068361,-0.046388,1.220703,-15.625,-17.211914,0,0
3671,2024 10 23,05:24:40.582,-0.359624,0.627804,0.398637,0.563579,-0.983428,0.050783,-0.076174,-0.671387,-17.028809,-14.099121,0,0
3672,2024 10 23,05:24:40.590,-0.360709,0.627354,0.397284,0.564342,-0.967803,0.032716,-0.078616,-3.662109,-17.333984,-10.925293,0,0
3673,2024 10 23,05:24:40.598,-0.361884,0.626942,0.396213,0.5648,-0.984405,0.083987,-0.072268,2.319336,-14.831543,-12.084961,0,0
3674,2024 10 23,05:24:40.607,-0.363069,0.626498,0.395208,0.565235,-0.956084,0.083499,-0.046388,0.732422,-14.282227,-11.169434,0,0
3675,2024 10 23,05:24:40.615,-0.364007,0.626176,0.394192,0.565699,-0.926298,0.045412,-0.097171,-0.488281,-13.244629,-9.94873,0,0
3676,2024 10 23,05:24:40.623,-0.364007,0.626176,0.394192,0.565699,-0.926298,0.045412,-0.097171,-0.488281,-13.244629,-9.94873,0,0
3677,2024 10 23,05:24:40.632,-0.365029,0.625677,0.393391,0.56615,-0.900906,0.040529,-0.118168,2.441406,-13.427734,-7.93457,0,0
3678,2024 10 23,05:24:40.640,-0.366022,0.625153,0.392744,0.566537,-0.905301,0.038575,-0.091311,3.356934,-11.84082,-7.019043,0,0
3679,2024 10 23,05:24:40.648,-0.367073,0.624603,0.392296,0.566773,-0.938505,0.058596,-0.085452,6.896973,-10.375977,-6.835938,0,0
3680,2024 10 23,05:24:40.657,-0.368383,0.62408,0.391997,0.566707,-0.969268,0.052736,-0.037599,11.169434,-8.728027,-10.070801,0,0
3681,2024 10 23,05:24:40.665,-0.369958,0.623556,0.391652,0.566496,-0.98294,0.050295,-0.003906,13.671875,-9.94873,-12.268066,0,0
3682,2024 10 23,05:24:40.673,-0.369958,0.623556,0.391652,0.566496,-0.98294,0.050295,-0.003906,13.671875,-9.94873,-12.268066,0,0
3683,2024 10 23,05:24:40.682,-0.371823,0.622989,0.391218,0.566198,-0.979522,0.040529,-0.047853,15.74707,-11.59668,-15.014648,0,0
3684,2024 10 23,05:24:40.690,-0.37387,0.622274,0.390626,0.566045,-0.936064,0.08887,-0.077151,14.099121,-13.61084,-15.625,0,0
3685,2024 10 23,05:24:40.698,-0.375541,0.621803,0.389849,0.565993,-0.970733,0.01709,0.009278,5.371094,-13.183594,-15.197754,0,0
3686,2024 10 23,05:24:40.707,-0.377425,0.621081,0.389125,0.56603,-0.989776,0.008789,-0.170904,15.014648,-15.869141,-14.099121,0,0
3687,2024 10 23,05:24:40.715,-0.37919,0.620328,0.387896,0.56652,-0.918485,0.033692,-0.111332,6.835938,-19.592285,-14.526367,0,0
3688,2024 10 23,05:24:40.723,-0.38086,0.619683,0.386829,0.566835,-0.92581,0.040529,-0.137211,4.821777,-18.249512,-14.343262,0,0
3689,2024 10 23,05:24:40.732,-0.38086,0.619683,0.386829,0.566835,-0.92581,0.040529,-0.137211,4.821777,-18.249512,-14.343262,0,0
3690,2024 10 23,05:24:40.740,-0.382642,0.619018,0.385764,0.567087,-0.987335,0.035646,-0.098148,8.728027,-17.089844,-16.174316,0,0
3691,2024 10 23,05:24:40.748,-0.384943,0.618177,0.384749,0.567137,-1.023469,0.081545,-0.058596,14.343262,-19.592285,-20.019531,0,0
3692,2024 10 23,05:24:40.757,-0.387587,0.617398,0.383548,0.566998,-1.044465,0.0459,-0.07178,15.014648,-21.728516,-24.902344,0,0
3693,2024 10 23,05:24:40.765,-0.39076,0.616565,0.382169,0.566658,-0.995636,0.035157,-0.059084,19.40918,-21.911621,-29.846191,0,0
3694,2024 10 23,05:24:40.773,-0.394068,0.615967,0.380699,0.566006,-1.071322,0.042482,-0.173833,20.263672,-19.836426,-33.38623,0,0
3695,2024 10 23,05:24:40.782,-0.394068,0.615967,0.380699,0.566006,-1.071322,0.042482,-0.173833,20.263672,-19.836426,-33.38623,0,0
3696,2024 10 23,05:24:40.790,-0.398087,0.615048,0.379054,0.565297,-0.913602,-0.014161,-0.0459,26.733398,-25.20752,-38.208008,0,0
3697,2024 10 23,05:24:40.798,-0.402101,0.614392,0.377658,0.564103,-1.029817,-0.024903,-0.109378,26.855469,-18.188477,-38.757324,0,0
3698,2024 10 23,05:24:40.807,-0.4066,0.613432,0.376315,0.562818,-0.981475,-0.00586,-0.124027,36.376953,-22.766113,-41.320801,0,0
3699,2024 10 23,05:24:40.815,-0.411423,0.612251,0.3751,0.561408,-0.96878,-0.023438,-0.0918,36.865234,-22.827148,-41.625977,0,0
3700,2024 10 23,05:24:40.823,-0.416175,0.611252,0.374009,0.55972,-1.031281,0.016114,-0.204596,38.574219,-19.348145,-41.992188,0,0
3701,2024 10 23,05:24:40.832,-0.416175,0.611252,0.374009,0.55972,-1.031281,0.016114,-0.204596,38.574219,-19.348145,-41.992188,0,0
3702,2024 10 23,05:24:40.840,-0.421132,0.610093,0.372778,0.558095,-0.920927,0.007324,-0.155766,38.94043,-21.972656,-44.616699,0,0
3703,2024 10 23,05:24:40.848,-0.425892,0.609413,0.37157,0.556029,-0.981475,0.035646,-0.204596,36.132813,-12.634277,-47.241211,0,0
3704,2024 10 23,05:24:40.857,-0.430403,0.609188,0.370012,0.553836,-1.038606,0.031251,-0.262215,32.226563,-11.535645,-50.964355,0,0
3705,2024 10 23,05:24:40.865,-0.435182,0.609017,0.368211,0.551484,-1.006867,0.026368,-0.176275,31.555176,-12.390137,-56.274414,0,0
3706,2024 10 23,05:24:40.873,-0.439803,0.609515,0.366071,0.548687,-1.125034,0.040529,-0.166021,26.733398,-4.333496,-62.866211,0,0
3707,2024 10 23,05:24:40.882,-0.439803,0.609515,0.366071,0.548687,-1.125034,0.040529,-0.166021,26.733398,-4.333496,-62.866211,0,0
3708,2024 10 23,05:24:40.890,-0.444454,0.610469,0.363365,0.545668,-1.22953,0.032716,-0.185553,23.31543,-6.225586,-70.800781,0,0
3709,2024 10 23,05:24:40.898,-0.449728,0.611603,0.35984,0.542404,-1.398968,0.077151,-0.125492,21.789551,-8.850098,-83.251953,0,0
3710,2024 10 23,05:24:40.907,-0.455553,0.613155,0.355224,0.538821,-1.499557,-0.006348,-0.007813,17.028809,-14.648438,-99.487305,0,0
3711,2024 10 23,05:24:40.915,-0.462598,0.614813,0.349487,0.534665,-1.523484,0.023927,0.004395,25.024414,-21.30127,-118.713379,0,0
3712,2024 10 23,05:24:40.923,-0.47087,0.616556,0.342542,0.52991,-1.511277,0.008789,0.01709,25.390625,-26.184082,-138.916016,0,0
3713,2024 10 23,05:24:40.932,-0.47087,0.616556,0.342542,0.52991,-1.511277,0.008789,0.01709,25.390625,-26.184082,-138.916016,0,0
3714,2024 10 23,05:24:40.940,-0.480314,0.6187,0.334456,0.524069,-1.531297,0.051759,-0.080569,30.700684,-27.46582,-162.475586,0,0
3715,2024 10 23,05:24:40.948,-0.491003,0.621219,0.325053,0.517052,-1.615284,0.095218,-0.087893,32.348633,-26.245117,-187.866211,0,0
3716,2024 10 23,05:24:40.957,-0.502895,0.624344,0.314459,0.508337,-1.871151,0.265633,-0.19483,37.841797,-22.399902,-217.346191,0,0
3717,2024 10 23,05:24:40.965,-0.516039,0.627983,0.301781,0.498266,-2.0318,0.466811,-0.229987,33.081055,-28.442383,-252.685547,0,0
3718,2024 10 23,05:24:40.973,-0.530215,0.632512,0.286037,0.48681,-2.168035,0.446303,-0.035646,21.972656,-33.325195,-294.86084,0,0
3719,2024 10 23,05:24:40.982,-0.530215,0.632512,0.286037,0.48681,-2.168035,0.446303,-0.035646,21.972656,-33.325195,-294.86084,0,0
3720,2024 10 23,05:24:40.990,-0.545704,0.637894,0.267066,0.473259,-2.199774,0.335459,0.156255,17.76123,-41.07666,-343.200684,0,0
3721,2024 10 23,05:24:40.998,-0.562606,0.643779,0.24538,0.456959,-2.574786,0.275399,0.164556,18.249512,-34.790039,-388.244629,0,0
3722,2024 10 23,05:24:41.007,-0.580353,0.649802,0.220396,0.438604,-2.141179,-0.191412,0.604511,17.63916,-51.635742,-432.861328,0,0
3723,2024 10 23,05:24:41.015,-0.598094,0.656709,0.193776,0.416495,-2.270577,-0.252449,0.269539,6.958008,-13.549805,-462.70752,0,0
3724,2024 10 23,05:24:41.023,-0.616463,0.662194,0.16725,0.39179,-2.285714,-0.082034,0.657735,34.729004,-12.268066,-477.600098,0,0
3725,2024 10 23,05:24:41.032,-0.616463,0.662194,0.16725,0.39179,-2.285714,-0.082034,0.657735,34.729004,-12.268066,-477.600098,0,0
3726,2024 10 23,05:24:41.040,-0.632373,0.668557,0.141571,0.364819,-2.941984,-0.315928,-0.232429,9.216309,31.433105,-475.708008,0,0
3727,2024 10 23,05:24:41.048,-0.653178,0.667784,0.117452,0.337087,-2.334056,0.214362,0.174322,137.329102,-19.165039,-489.501953,0,0
3728,2024 10 23,05:24:41.057,-0.674522,0.664597,0.092027,0.307997,-1.521042,0.314463,0.868679,125.549316,5.004883,-502.563477,0,1
3729,2024 10 23,05:24:41.065,-0.694293,0.661265,0.071076,0.275017,-1.161168,0.250496,0.604999,145.019531,64.819336,-480.34668,0,0
3730,2024 10 23,05:24:41.073,-0.714192,0.654058,0.055407,0.24304,-0.883328,0.6592,0.886258,209.716797,81.054688,-416.564941,0,0
3731,2024 10 23,05:24:41.082,-0.714192,0.654058,0.055407,0.24304,-0.883328,0.6592,0.886258,209.716797,81.054688,-416.564941,0,0
3732,2024 10 23,05:24:41.090,-0.73447,0.64071,0.048991,0.218277,-0.293954,1.953185,1.504929,279.602051,75.317383,-253.601074,0,0
3733,2024 10 23,05:24:41.098,-0.743817,0.633439,0.05702,0.205524,-1.362346,2.328196,-0.889675,129.638672,158.691406,-15.441895,0,0
3734,2024 10 23,05:24:41.107,-0.748762,0.625771,0.071485,0.206531,-0.936552,2.243232,0.767113,116.638184,72.387695,118.591309,0,0
3735,2024 10 23,05:24:41.115,-0.746323,0.625302,0.086611,0.210945,-0.202643,1.397504,0.329112,-7.324219,108.337402,147.521973,0,0
3736,2024 10 23,05:24:41.123,-0.741355,0.628396,0.10213,0.212322,0.255867,1.087924,0.599139,-25.20752,148.803711,120.849609,0,0
3737,2024 10 23,05:24:41.132,-0.734776,0.634173,0.120825,0.208158,-0.008789,1.061556,0.446791,-52.368164,228.57666,104.797363,0,0
3738,2024 10 23,05:24:41.140,-0.734776,0.634173,0.120825,0.208158,-0.008789,1.061556,0.446791,-52.368164,228.57666,104.797363,0,0
3739,2024 10 23,05:24:41.148,-0.726308,0.641518,0.142968,0.201224,-0.40968,1.068392,0.119144,-60.913086,273.132324,112.854004,0,0
3740,2024 10 23,05:24:41.157,-0.716438,0.648659,0.167098,0.195026,-0.735862,1.107944,-0.013184,-69.519043,279.296875,139.282227,0,0
3741,2024 10 23,05:24:41.165,-0.704872,0.655415,0.192568,0.191061,-1.073275,0.955596,-0.231941,-80.01709,272.644043,170.410156,0,0
3742,2024 10 23,05:24:41.173,-0.69284,0.660673,0.217779,0.189883,-1.20365,0.7051,-0.344249,-74.768066,242.736816,191.650391,0,0
3743,2024 10 23,05:24:41.182,-0.681541,0.66366,0.241944,0.191102,-1.081576,0.425306,-0.407727,-55.419922,211.608887,206.115723,0,0
3744,2024 10 23,05:24:41.190,-0.681541,0.66366,0.241944,0.191102,-1.081576,0.425306,-0.407727,-55.419922,211.608887,206.115723,0,0
3745,2024 10 23,05:24:41.198,-0.671812,0.663632,0.26648,0.193,-1.019562,0.247566,-0.511734,-16.357422,205.627441,221.069336,0,0
3746,2024 10 23,05:24:41.207,-0.663905,0.660104,0.292746,0.194406,-1.18363,0.270028,-0.664083,29.846191,210.998535,238.220215,0,0
3747,2024 10 23,05:24:41.215,-0.657683,0.65301,0.320339,0.195995,-1.423383,0.381359,-0.851588,69.152832,202.148438,257.446289,0,0
3748,2024 10 23,05:24:41.223,-0.653082,0.642523,0.34779,0.199223,-1.517136,0.466811,-0.960967,97.351074,171.081543,276.062012,0,0
3749,2024 10 23,05:24:41.232,-0.649841,0.629145,0.374232,0.204532,-1.417035,0.501968,-0.951201,116.333008,138.061523,291.503906,0,0
3750,2024 10 23,05:24:41.240,-0.649841,0.629145,0.374232,0.204532,-1.417035,0.501968,-0.951201,116.333008,138.061523,291.503906,0,0
3751,2024 10 23,05:24:41.248,-0.647094,0.613753,0.400008,0.211116,-1.336955,0.499527,-0.936064,125.305176,121.398926,303.039551,0,0
3752,2024 10 23,05:24:41.257,-0.644106,0.597115,0.425351,0.218305,-1.306192,0.519059,-0.874538,128.051758,113.830566,310.36377,0,0
3753,2024 10 23,05:24:41.265,-0.640399,0.579711,0.45032,0.225911,-1.301309,0.519547,-0.807154,124.938965,110.717773,316.28418,0,0
3754,2024 10 23,05:24:41.273,-0.63557,0.561882,0.475037,0.233835,-1.359905,0.510269,-0.753929,117.919922,112.243652,322.32666,0,0
3755,2024 10 23,05:24:41.282,-0.629488,0.54376,0.499438,0.242139,-1.46147,0.503922,-0.693869,108.825684,113.28125,328.00293,0,0
3756,2024 10 23,05:24:41.290,-0.629488,0.54376,0.499438,0.242139,-1.46147,0.503922,-0.693869,108.825684,113.28125,328.00293,0,0
3757,2024 10 23,05:24:41.298,-0.621896,0.525596,0.523428,0.251032,-1.590869,0.532731,-0.718284,93.62793,115.905762,334.594727,0,0
3758,2024 10 23,05:24:41.307,-0.612494,0.507736,0.546794,0.260906,-1.757866,0.499039,-0.739769,71.411133,116.149902,340.820313,0,0
3759,2024 10 23,05:24:41.315,-0.60149,0.490505,0.568802,0.272175,-1.853572,0.317881,-0.68508,44.311523,110.107422,342.956543,0,0
3760,2024 10 23,05:24:41.323,-0.589021,0.474087,0.589411,0.284414,-1.943907,0.014649,-0.642109,21.484375,107.849121,341.796875,0,0
3761,2024 10 23,05:24:41.332,-0.575651,0.458133,0.60871,0.297006,-2.055238,-0.350108,-0.574725,10.131836,104.003906,338.623047,0,0
3762,2024 10 23,05:24:41.340,-0.575651,0.458133,0.60871,0.297006,-2.055238,-0.350108,-0.574725,10.131836,104.003906,338.623047,0,0
3763,2024 10 23,05:24:41.348,-0.562039,0.442088,0.626864,0.309373,-2.184149,-0.740745,-0.577166,8.789063,99.060059,334.899902,0,0
3764,2024 10 23,05:24:41.357,-0.548602,0.425896,0.643856,0.321088,-2.390698,-1.215857,-0.604022,12.451172,92.468262,326.23291,0,0
3765,2024 10 23,05:24:41.365,-0.536323,0.409773,0.659135,0.331639,-2.438063,-1.712455,-0.536637,20.080566,77.453613,305.847168,0,0
3766,2024 10 23,05:24:41.373,-0.525741,0.394418,0.672387,0.34048,-2.476638,-2.42732,-0.23487,28.442383,64.147949,274.169922,0,0
3767,2024 10 23,05:24:41.382,-0.517409,0.38409,0.683249,0.343413,-3.150975,-2.851161,-1.992737,47.546387,74.890137,158.996582,0,0
3768,2024 10 23,05:24:41.390,-0.517409,0.38409,0.683249,0.343413,-3.150975,-2.851161,-1.992737,47.546387,74.890137,158.996582,0,0
3769,2024 10 23,05:24:41.398,-0.522785,0.373727,0.680433,0.352185,-1.289102,-4.018677,0.248055,10.742188,-159.362793,109.680176,0,0
3770,2024 10 23,05:24:41.407,-0.525089,0.367559,0.681241,0.353684,-1.73394,-4.284799,-1.866756,15.869141,-9.70459,57.556152,0,0
3771,2024 10 23,05:24:41.415,-0.530469,0.365643,0.679807,0.350385,-2.425855,-4.145634,-1.757866,62.316895,-54.138184,-31.799316,0,0
3772,2024 10 23,05:24:41.423,-0.542225,0.369396,0.668928,0.349389,-2.580645,-4.786279,-2.745689,-44.494629,-153.686523,-130.065918,0,0
3773,2024 10 23,05:24:41.432,-0.562785,0.377185,0.647296,0.349303,-0.866726,-3.603137,-3.648061,-39.428711,-267.822266,-226.501465,1,0
3774,2024 10 23,05:24:41.440,-0.562785,0.377185,0.647296,0.349303,-0.866726,-3.603137,-3.648061,-39.428711,-267.822266,-226.501465,0,0
3775,2024 10 23,05:24:41.448,-0.591616,0.370988,0.628818,0.341974,-1.132847,2.308176,0.421888,220.825195,-278.442383,-167.419434,0,0
3776,2024 10 23,05:24:41.457,-0.600326,0.371542,0.621563,0.339447,-1.311563,0.803247,1.667043,-102.966309,-66.589355,-81.665039,0,0
3777,2024 10 23,05:24:41.465,-0.602175,0.382323,0.610575,0.344111,-1.197302,-0.329112,-1.618702,-132.141113,-97.412109,-111.206055,0,0
3778,2024 10 23,05:24:41.473,-0.611184,0.387385,0.597692,0.345184,-1.027863,0.063967,0.260262,-28.259277,-115.844727,-115.539551,0,0
3779,2024 10 23,05:24:41.482,-0.614163,0.393238,0.589345,0.347622,-0.913602,-0.573748,-0.606464,-94.177246,-61.645508,-57.067871,0,0
3780,2024 10 23,05:24:41.490,-0.614163,0.393238,0.589345,0.347622,-0.913602,-0.573748,-0.606464,-94.177246,-61.645508,-57.067871,0,0
3781,2024 10 23,05:24:41.498,-0.61772,0.394643,0.583215,0.350057,-0.72805,-0.186529,-0.627949,-7.751465,-68.359375,-25.878906,0,0
3782,2024 10 23,05:24:41.507,-0.622705,0.392276,0.580222,0.348856,-1.106479,0.371105,0.390149,37.04834,-53.466797,-28.259277,0,0
3783,2024 10 23,05:24:41.515,-0.625406,0.392999,0.576118,0.35001,-0.988311,-0.056154,0.032716,-34.729004,-52.185059,-27.22168,0,0
3784,2024 10 23,05:24:41.523,-0.628126,0.393765,0.571755,0.351431,-0.793481,-0.063967,-0.490738,-6.530762,-50.720215,-24.963379,0,0
3785,2024 10 23,05:24:41.532,-0.631251,0.393074,0.568986,0.351097,-0.78811,0.113773,-0.274422,9.94873,-34.240723,-22.766113,0,0
3786,2024 10 23,05:24:41.540,-0.633201,0.393265,0.567061,0.350486,-0.92288,0.045412,-0.24366,2.563477,-17.883301,-23.742676,0,0
3787,2024 10 23,05:24:41.548,-0.633201,0.393265,0.567061,0.350486,-0.92288,0.045412,-0.24366,2.563477,-17.883301,-23.742676,0,0
3788,2024 10 23,05:24:41.557,-0.634801,0.393572,0.565941,0.349055,-0.933622,0.113773,-0.236824,12.756348,-8.178711,-25.390625,0,0
3789,2024 10 23,05:24:41.565,-0.636171,0.394149,0.565136,0.347211,-0.907254,0.086428,-0.216803,8.178711,-0.244141,-27.709961,0,0
3790,2024 10 23,05:24:41.573,-0.637069,0.395073,0.564802,0.345051,-1.023469,0.023438,-0.158696,12.145996,6.835938,-27.587891,0,0
3791,2024 10 23,05:24:41.582,-0.638242,0.395486,0.564632,0.342678,-1.07181,0.084964,-0.004395,16.601563,2.563477,-25.512695,0,0
3792,2024 10 23,05:24:41.590,-0.639353,0.395909,0.564133,0.340936,-1.076693,0.040529,-0.032716,9.70459,-2.990723,-22.094727,0,0
3793,2024 10 23,05:24:41.598,-0.639353,0.395909,0.564133,0.340936,-1.076693,0.040529,-0.032716,9.70459,-2.990723,-22.094727,0,0
3794,2024 10 23,05:24:41.607,-0.640686,0.395976,0.563259,0.3398,-1.039094,0.058107,-0.01709,9.399414,-11.84082,-17.883301,0,0
3795,2024 10 23,05:24:41.615,-0.642063,0.395902,0.562149,0.339123,-1.053743,0.055177,-0.008301,6.164551,-15.197754,-15.74707,0,0
3796,2024 10 23,05:24:41.623,-0.643588,0.395698,0.560763,0.338765,-1.005402,0.053713,-0.066408,4.699707,-20.874023,-14.221191,0,0
3797,2024 10 23,05:24:41.632,-0.645132,0.395445,0.559205,0.3387,-0.969268,0.066408,-0.104007,2.685547,-21.972656,-12.390137,0,0
3798,2024 10 23,05:24:41.640,-0.646474,0.395306,0.557739,0.33872,-0.949736,0.053224,-0.087405,0.305176,-19.104004,-11.535645,0,0
3799,2024 10 23,05:24:41.648,-0.646474,0.395306,0.557739,0.33872,-0.949736,0.053224,-0.087405,0.305176,-19.104004,-11.535645,0,0
3800,2024 10 23,05:24:41.657,-0.647574,0.395274,0.55644,0.338793,-0.948271,0.035646,-0.08301,-0.549316,-16.601563,-9.70459,0,0
3801,2024 10 23,05:24:41.665,-0.648552,0.395218,0.555212,0.339004,-0.936552,0.028809,-0.077151,-1.77002,-16.174316,-7.629395,0,0
3802,2024 10 23,05:24:41.673,-0.649478,0.395075,0.554204,0.339045,-0.996124,0.087893,-0.132817,2.746582,-13.183594,-8.239746,0,0
3803,2024 10 23,05:24:41.682,-0.650561,0.394961,0.553103,0.338899,-1.063509,0.044435,-0.0459,1.098633,-15.197754,-10.864258,0,0
3804,2024 10 23,05:24:41.690,-0.651906,0.39474,0.551884,0.338562,-0.93704,0.005371,0.035157,4.577637,-19.775391,-12.878418,0,0
3805,2024 10 23,05:24:41.698,-0.651906,0.39474,0.551884,0.338562,-0.93704,0.005371,0.035157,4.577637,-19.775391,-12.878418,0,0
3806,2024 10 23,05:24:41.707,-0.653185,0.394488,0.550634,0.338425,-0.957549,0.019532,-0.069826,5.065918,-16.662598,-10.498047,0,0
3807,2024 10 23,05:24:41.715,-0.65474,0.393916,0.549481,0.337957,-0.977081,0.079104,-0.131352,11.59668,-19.042969,-13.73291,0,0
3808,2024 10 23,05:24:41.723,-0.656403,0.393572,0.548034,0.337483,-0.935087,0.009278,-0.097171,7.8125,-19.897461,-15.197754,0,0
3809,2024 10 23,05:24:41.732,-0.658094,0.393098,0.546739,0.336842,-0.96292,0.038575,-0.08594,9.399414,-19.714355,-14.831543,0,0
3810,2024 10 23,05:24:41.740,-0.659788,0.392675,0.545402,0.336188,-0.95706,0.007324,-0.141118,9.399414,-19.836426,-16.174316,0,0
3811,2024 10 23,05:24:41.748,-0.659788,0.392675,0.545402,0.336188,-0.95706,0.007324,-0.141118,9.399414,-19.836426,-16.174316,0,0
3812,2024 10 23,05:24:41.757,-0.661752,0.392035,0.544066,0.33524,-0.936552,0.040529,-0.144047,16.418457,-20.690918,-18.188477,0,0
3813,2024 10 23,05:24:41.765,-0.663747,0.39144,0.542558,0.334433,-0.95706,0.016602,-0.13477,12.512207,-21.42334,-17.578125,0,0
3814,2024 10 23,05:24:41.773,-0.665842,0.39071,0.541166,0.333377,-0.964873,0.035646,-0.214362,16.418457,-23.193359,-19.165039,0,0
3815,2024 10 23,05:24:41.782,-0.668222,0.389824,0.539535,0.332292,-0.910672,0.034669,-0.142582,17.39502,-24.963379,-20.263672,0,0
3816,2024 10 23,05:24:41.790,-0.670308,0.389202,0.538029,0.331262,-0.967803,0.025391,-0.167486,13.977051,-21.179199,-19.65332,0,0
3817,2024 10 23,05:24:41.798,-0.670308,0.389202,0.538029,0.331262,-0.967803,0.025391,-0.167486,13.977051,-21.179199,-19.65332,0,0
3818,2024 10 23,05:24:41.807,-0.672503,0.388525,0.536476,0.330124,-0.973174,0.02002,-0.143559,17.089844,-23.620605,-21.362305,0,0
3819,2024 10 23,05:24:41.815,-0.674857,0.387821,0.534769,0.328916,-0.970244,0.012207,-0.143071,16.784668,-24.658203,-22.949219,0,0
3820,2024 10 23,05:24:41.823,-0.677279,0.387162,0.533057,0.327489,-0.992218,0.033204,-0.185064,17.883301,-24.230957,-25.146484,0,0
3821,2024 10 23,05:24:41.832,-0.679812,0.386597,0.531172,0.325967,-0.961455,0.033204,-0.177252,17.63916,-25.512695,-28.076172,0,0
3822,2024 10 23,05:24:41.840,-0.682338,0.386214,0.529218,0.324317,-0.98001,0.026856,-0.195318,15.869141,-23.803711,-30.334473,0,0
3823,2024 10 23,05:24:41.848,-0.682338,0.386214,0.529218,0.324317,-0.98001,0.026856,-0.195318,15.869141,-23.803711,-30.334473,0,0
3824,2024 10 23,05:24:41.857,-0.684811,0.386111,0.52725,0.322427,-1.032258,0.050295,-0.241707,15.991211,-21.850586,-34.179688,0,0
3825,2024 10 23,05:24:41.865,-0.687478,0.386202,0.524969,0.320359,-1.008332,0.030763,-0.169439,13.73291,-24.719238,-39.306641,0,0
3826,2024 10 23,05:24:41.873,-0.690002,0.386851,0.522639,0.317949,-1.052278,0.031739,-0.187994,10.742188,-19.40918,-45.043945,0,0
3827,2024 10 23,05:24:41.882,-0.692582,0.387902,0.520129,0.315164,-1.102084,0.058596,-0.229987,10.925293,-19.165039,-52.246094,0,0
3828,2024 10 23,05:24:41.890,-0.695399,0.389367,0.517189,0.311977,-1.07181,0.057619,-0.183111,7.568359,-20.507813,-61.096191,0,0
3829,2024 10 23,05:24:41.898,-0.695399,0.389367,0.517189,0.311977,-1.07181,0.057619,-0.183111,7.568359,-20.507813,-61.096191,0,0
3830,2024 10 23,05:24:41.907,-0.69803,0.39171,0.514017,0.30839,-1.139683,0.093265,-0.323252,1.159668,-14.831543,-70.068359,0,0
3831,2024 10 23,05:24:41.915,-0.700771,0.394726,0.510311,0.304456,-1.157262,0.085452,-0.295907,-4.394531,-17.822266,-80.078125,0,0
3832,2024 10 23,05:24:41.923,-0.70345,0.39864,0.506152,0.30009,-1.270058,0.093753,-0.306162,-9.643555,-13.244629,-90.698242,0,0
3833,2024 10 23,05:24:41.932,-0.706305,0.403209,0.501457,0.295121,-1.301309,0.059084,-0.213385,-12.084961,-17.63916,-103.515625,0,0
3834,2024 10 23,05:24:41.940,-0.709484,0.408413,0.496047,0.289428,-1.35258,0.051271,-0.175787,-13.73291,-17.822266,-117.858887,0,0
3835,2024 10 23,05:24:41.948,-0.712917,0.414399,0.489912,0.282859,-1.392621,0.033204,-0.228523,-15.869141,-20.324707,-134.521484,0,0
3836,2024 10 23,05:24:41.957,-0.712917,0.414399,0.489912,0.282859,-1.392621,0.033204,-0.228523,-15.869141,-20.324707,-134.521484,0,0
3837,2024 10 23,05:24:41.965,-0.71693,0.4209,0.482869,0.275122,-1.430708,0.053224,-0.203131,-13.671875,-22.338867,-153.930664,0,0
3838,2024 10 23,05:24:41.973,-0.721275,0.428266,0.475002,0.265941,-1.578173,0.143559,-0.316904,-14.038086,-21.728516,-176.879883,0,0
3839,2024 10 23,05:24:41.982,-0.726324,0.436326,0.465735,0.255272,-1.721732,0.239265,-0.304697,-12.634277,-29.11377,-203.918457,0,0
3840,2024 10 23,05:24:41.990,-0.732056,0.445195,0.454964,0.2427,-1.943419,0.308603,-0.154302,-9.887695,-32.226563,-236.633301,0,0
3841,2024 10 23,05:24:41.998,-0.738287,0.455421,0.442192,0.228014,-2.084048,0.268563,-0.032716,-14.099121,-40.710449,-275.32959,0,0
3842,2024 10 23,05:24:42.007,-0.738287,0.455421,0.442192,0.228014,-2.084048,0.268563,-0.032716,-14.099121,-40.710449,-275.32959,0,0
3843,2024 10 23,05:24:42.015,-0.745286,0.466637,0.427043,0.21079,-2.277413,0.297372,0.073733,-9.155273,-47.058105,-317.443848,0,0
3844,2024 10 23,05:24:42.023,-0.752531,0.478879,0.409931,0.190602,-2.480056,0.282723,0.229987,-10.009766,-47.790527,-359.619141,0,0
3845,2024 10 23,05:24:42.032,-0.759265,0.49265,0.390386,0.168556,-2.824793,0.229011,0.136723,-24.414063,-54.992676,-393.554688,0,0
3846,2024 10 23,05:24:42.040,-0.765511,0.507896,0.366931,0.146273,-2.869228,-0.051759,0.403333,-51.025391,-90.759277,-422.485352,0,0
3847,2024 10 23,05:24:42.048,-0.770459,0.52405,0.341119,0.124106,-2.817469,-0.225593,0.313974,-55.419922,-98.999023,-436.462402,0,0
3848,2024 10 23,05:24:42.057,-0.770459,0.52405,0.341119,0.124106,-2.817469,-0.225593,0.313974,-55.419922,-98.999023,-436.462402,0,0
3849,2024 10 23,05:24:42.065,-0.774627,0.539541,0.313632,0.102387,-3.088961,0.143559,-0.511246,-61.584473,-116.088867,-432.250977,0,0
3850,2024 10 23,05:24:42.073,-0.780171,0.552211,0.281969,0.083003,-2.254952,-0.084475,0.200201,-54.504395,-182.373047,-432.922363,0,0
3851,2024 10 23,05:24:42.082,-0.78548,0.562487,0.250872,0.060768,-1.909238,0.403821,0.492691,10.742188,-132.93457,-451.965332,0,0
3852,2024 10 23,05:24:42.090,-0.790532,0.570471,0.220054,0.034608,-1.497604,0.393567,1.003937,8.728027,-118.530273,-473.266602,0,1
3853,2024 10 23,05:24:42.098,-0.794237,0.576604,0.191525,0.005849,-0.828639,0.558123,0.665548,49.133301,-67.565918,-469.665527,0,0
3854,2024 10 23,05:24:42.107,-0.794237,0.576604,0.191525,0.005849,-0.828639,0.558123,0.665548,49.133301,-67.565918,-469.665527,0,0
3855,2024 10 23,05:24:42.115,-0.798906,0.577595,0.165989,-0.024084,-0.671896,0.781274,1.305704,97.106934,-39.245605,-436.950684,0,0
3856,2024 10 23,05:24:42.123,-0.802432,0.576059,0.147068,-0.051279,-1.103061,1.303262,0.495621,101.135254,4.333496,-352.233887,0,0
3857,2024 10 23,05:24:42.132,-0.803043,0.577275,0.131957,-0.066806,-0.628925,1.303262,-0.543474,0.488281,-57.556152,-203.857422,0,0
3858,2024 10 23,05:24:42.140,-0.806585,0.57401,0.125637,-0.064403,0.221686,2.363842,0.633808,59.570313,-80.26123,46.691895,0,0
3859,2024 10 23,05:24:42.148,-0.805471,0.575675,0.132579,-0.047297,-0.502945,1.220252,0.306162,-85.81543,-28.808594,245.239258,0,0
3860,2024 10 23,05:24:42.157,-0.805471,0.575675,0.132579,-0.047297,-0.502945,1.220252,0.306162,-85.81543,-28.808594,245.239258,0,0
3861,2024 10 23,05:24:42.165,-0.803172,0.576769,0.147548,-0.021963,-0.786645,0.731956,0.333506,-61.889648,-39.245605,342.407227,0,0
3862,2024 10 23,05:24:42.173,-0.800607,0.576305,0.163906,0.005895,-0.591327,0.531754,0.888211,-70.007324,-17.578125,363.525391,0,0
3863,2024 10 23,05:24:42.182,-0.796163,0.576004,0.182601,0.031636,-0.422864,0.265145,0.543962,-62.072754,10.437012,351.989746,0,0
3864,2024 10 23,05:24:42.190,-0.792186,0.573769,0.200843,0.053773,-0.252449,0.272958,0.849635,-42.236328,36.315918,317.199707,0,0
3865,2024 10 23,05:24:42.198,-0.786697,0.572153,0.220711,0.070957,-0.391125,0.142094,0.523453,-42.419434,89.111328,284.301758,0,0
3866,2024 10 23,05:24:42.207,-0.786697,0.572153,0.220711,0.070957,-0.391125,0.142094,0.523453,-42.419434,89.111328,284.301758,0,0
3867,2024 10 23,05:24:42.215,-0.781062,0.569529,0.241573,0.084981,-0.625507,0.365734,0.556658,-28.381348,109.680176,270.324707,0,0
3868,2024 10 23,05:24:42.223,-0.774519,0.566706,0.262811,0.099476,-0.889187,0.535661,0.336436,-37.902832,106.689453,282.836914,0,0
3869,2024 10 23,05:24:42.232,-0.767067,0.563493,0.283643,0.116754,-1.119175,0.648946,0.299326,-51.269531,82.702637,307.495117,0,0
3870,2024 10 23,05:24:42.240,-0.758612,0.559994,0.303233,0.137709,-1.106479,0.518082,0.326182,-69.458008,49.01123,332.580566,0,0
