frame,date,time,quaternion_x,quaternion_y,quaternion_z,quaternion_w,accel_x,accel_y,accel_z,gyro_x,gyro_y,gyro_z,HS,TO
2949,2024 10 23,05:24:34.565,0.726837,0.629108,-0.226655,0.156709,-0.567888,0.740745,0.117191,-54.138184,-59.936523,280.761719,0,0
2950,2024 10 23,05:24:34.574,0.72377,0.620945,-0.247844,0.170755,-0.537126,0.585955,-0.016114,-44.555664,-72.937012,295.043945,0,0
2951,2024 10 23,05:24:34.582,0.719273,0.612807,-0.270695,0.183951,-0.619648,0.481948,-0.040529,-42.602539,-99.060059,300.842285,0,0
2952,2024 10 23,05:24:34.590,0.719273,0.612807,-0.270695,0.183951,-0.619648,0.481948,-0.040529,-42.602539,-99.060059,300.842285,0,0
2953,2024 10 23,05:24:34.599,0.713597,0.604548,-0.294946,0.195725,-0.747093,0.404797,-0.021973,-43.212891,-122.558594,300.292969,0,0
2954,2024 10 23,05:24:34.607,0.706997,0.595942,-0.320147,0.206191,-0.946806,0.363781,0.056154,-46.813965,-139.831543,299.194336,0,0
2955,2024 10 23,05:24:34.615,0.699703,0.586763,-0.345731,0.215859,-1.148961,0.314951,0.122562,-50.048828,-148.010254,298.950195,0,0
2956,2024 10 23,05:24:34.624,0.692006,0.576695,-0.371226,0.22526,-1.273965,0.289071,0.192389,-55.541992,-145.874023,301.086426,0,0
2957,2024 10 23,05:24:34.632,0.684084,0.565517,-0.396313,0.234853,-1.35258,0.252937,0.16895,-61.035156,-140.075684,305.541992,0,0
2958,2024 10 23,05:24:34.640,0.675659,0.553392,-0.421396,0.244269,-1.458052,0.2378,0.230964,-65.673828,-142.51709,309.692383,0,0
2959,2024 10 23,05:24:34.649,0.675659,0.553392,-0.421396,0.244269,-1.458052,0.2378,0.230964,-65.673828,-142.51709,309.692383,0,0
2960,2024 10 23,05:24:34.657,0.666721,0.540389,-0.446306,0.253523,-1.548387,0.239265,0.258797,-68.786621,-141.784668,313.110352,0,0
2961,2024 10 23,05:24:34.665,0.657026,0.526749,-0.471047,0.262616,-1.692434,0.261238,0.297861,-68.603516,-145.019531,316.040039,0,0
2962,2024 10 23,05:24:34.674,0.64641,0.512741,-0.495456,0.271613,-1.875057,0.261727,0.333506,-64.941406,-146.179199,317.626953,0,0
2963,2024 10 23,05:24:34.682,0.634972,0.498519,-0.519117,0.280726,-2.077212,0.208991,0.325205,-57.312012,-144.104004,317.443848,0,0
2964,2024 10 23,05:24:34.690,0.622768,0.484372,-0.541704,0.290002,-2.250557,0.008789,0.304697,-47.790527,-139.160156,314.39209,0,0
2965,2024 10 23,05:24:34.699,0.622768,0.484372,-0.541704,0.290002,-2.250557,0.008789,0.304697,-47.790527,-139.160156,314.39209,0,0
2966,2024 10 23,05:24:34.707,0.61018,0.470424,-0.562847,0.299307,-2.347728,-0.290048,0.282723,-39.489746,-131.652832,307.067871,0,0
2967,2024 10 23,05:24:34.715,0.597297,0.457073,-0.582483,0.308275,-2.366283,-0.659688,0.206061,-31.311035,-128.662109,294.677734,0,0
2968,2024 10 23,05:24:34.724,0.584091,0.444728,-0.600796,0.316383,-2.350169,-0.973174,0.230964,-22.827148,-130.737305,277.648926,0,0
2969,2024 10 23,05:24:34.732,0.570545,0.433941,-0.617603,0.323634,-2.338938,-1.362346,0.28077,-10.131836,-133.666992,255.737305,0,0
2970,2024 10 23,05:24:34.740,0.55668,0.425364,-0.632723,0.3299,-2.266182,-1.769585,0.344249,6.530762,-139.221191,227.783203,0,0
2971,2024 10 23,05:24:34.749,0.55668,0.425364,-0.632723,0.3299,-2.266182,-1.769585,0.344249,6.530762,-139.221191,227.783203,0,0
2972,2024 10 23,05:24:34.757,0.542735,0.419584,-0.645867,0.335028,-2.060122,-2.157781,0.464858,24.719238,-143.615723,191.28418,0,0
2973,2024 10 23,05:24:34.765,0.529007,0.41704,-0.656881,0.338729,-1.607959,-2.509354,0.596698,41.503906,-149.353027,148.620605,0,0
2974,2024 10 23,05:24:34.774,0.514775,0.417848,-0.66671,0.340452,-1.250038,-2.710044,0.821314,53.222656,-174.743652,111.51123,0,0
2975,2024 10 23,05:24:34.782,0.499354,0.421711,-0.676009,0.340319,-1.199255,-2.896085,1.271035,66.711426,-201.23291,81.665039,0,0
2976,2024 10 23,05:24:34.790,0.483547,0.428203,-0.683988,0.339095,-1.499557,-3.166112,1.689993,79.833984,-207.214355,50.964355,0,0
2977,2024 10 23,05:24:34.799,0.483547,0.428203,-0.683988,0.339095,-1.499557,-3.166112,1.689993,79.833984,-207.214355,50.964355,0,0
2978,2024 10 23,05:24:34.807,0.469916,0.436596,-0.689241,0.336912,-4.676412,-4.226691,1.346233,77.819824,-190.551758,-0.305176,0,0
2979,2024 10 23,05:24:34.815,0.466751,0.448942,-0.684808,0.334114,-2.816981,-4.28431,4.512833,98.632813,-1.037598,-123.962402,0,0
2980,2024 10 23,05:24:34.824,0.486822,0.454928,-0.662785,0.341704,-2.147527,-4.55971,0.920927,64.697266,327.697754,-191.650391,1,0
2981,2024 10 23,05:24:34.832,0.513523,0.456871,-0.638234,0.346728,-0.824244,-0.754417,-0.476577,-25.024414,352.050781,-189.941406,0,0
2982,2024 10 23,05:24:34.840,0.533179,0.455995,-0.620577,0.350248,-1.728568,1.52739,0.142582,16.662598,245.788574,-121.520996,0,0
2983,2024 10 23,05:24:34.849,0.533179,0.455995,-0.620577,0.350248,-1.728568,1.52739,0.142582,16.662598,245.788574,-121.520996,0,0
2984,2024 10 23,05:24:34.857,0.548513,0.455603,-0.602483,0.358573,-1.963927,0.540056,-0.714866,34.545898,280.029297,-115.29541,0,0
2985,2024 10 23,05:24:34.865,0.563397,0.457875,-0.584332,0.362616,-0.92288,0.403333,0.320322,48.278809,196.716309,-159.790039,0,0
2986,2024 10 23,05:24:34.874,0.573735,0.463633,-0.56833,0.364517,-0.855007,-0.493667,0.492203,56.396484,155.151367,-149.353027,0,0
2987,2024 10 23,05:24:34.882,0.582903,0.467002,-0.556179,0.364414,-0.940947,-0.340831,0.049318,26.000977,105.407715,-111.206055,0,0
2988,2024 10 23,05:24:34.890,0.588497,0.468519,-0.549116,0.364189,-1.143101,-0.170904,0.250008,-4.272461,70.43457,-61.218262,0,0
2989,2024 10 23,05:24:34.899,0.588497,0.468519,-0.549116,0.364189,-1.143101,-0.170904,0.250008,-4.272461,70.43457,-61.218262,0,0
2990,2024 10 23,05:24:34.907,0.593333,0.46813,-0.543441,0.365353,-1.155797,0.070803,-0.24366,13.85498,75.805664,-33.996582,0,0
2991,2024 10 23,05:24:34.915,0.595427,0.468629,-0.538417,0.368727,-0.963897,-0.204108,0.233406,34.057617,62.133789,-12.878418,0,0
2992,2024 10 23,05:24:34.924,0.598287,0.467784,-0.533879,0.371757,-0.797876,-0.08301,0.244636,11.962891,68.359375,-10.620117,0,0
2993,2024 10 23,05:24:34.932,0.600658,0.467034,-0.530146,0.374212,-0.784204,-0.087405,0.158696,14.648438,47.729492,-8.056641,0,0
2994,2024 10 23,05:24:34.940,0.601844,0.466954,-0.528017,0.375415,-0.952178,-0.045412,0.215339,6.164551,23.681641,-8.972168,0,0
2995,2024 10 23,05:24:34.949,0.601844,0.466954,-0.528017,0.375415,-0.952178,-0.045412,0.215339,6.164551,23.681641,-8.972168,0,0
2996,2024 10 23,05:24:34.957,0.60321,0.466937,-0.526136,0.375883,-0.966826,-0.037111,0.125004,4.943848,22.644043,-14.221191,0,0
2997,2024 10 23,05:24:34.965,0.604272,0.467385,-0.524518,0.375881,-0.884793,0.01709,0.269051,4.150391,11.962891,-17.51709,0,0
2998,2024 10 23,05:24:34.974,0.604972,0.468411,-0.523225,0.37528,-0.857448,-0.002441,0.203131,5.92041,0.793457,-22.583008,0,0
2999,2024 10 23,05:24:34.982,0.60496,0.470213,-0.522676,0.373809,-0.938017,-0.015137,0.155278,6.408691,-17.39502,-25.085449,0,0
3000,2024 10 23,05:24:34.990,0.604452,0.472407,-0.522695,0.371833,-1.006867,-0.041017,0.140141,5.004883,-25.024414,-25.939941,0,0
3001,2024 10 23,05:24:34.999,0.604452,0.472407,-0.522695,0.371833,-1.006867,-0.041017,0.140141,5.004883,-25.024414,-25.939941,0,0
3002,2024 10 23,05:24:35.007,0.604063,0.474496,-0.522795,0.369657,-1.060579,-0.063967,0.022462,2.929688,-23.986816,-26.000977,0,0
3003,2024 10 23,05:24:35.015,0.603763,0.476358,-0.522939,0.367544,-1.059603,-0.056642,0.077151,0.732422,-21.362305,-23.864746,0,0
3004,2024 10 23,05:24:35.023,0.603795,0.477759,-0.522877,0.365757,-1.029328,-0.054201,0.06885,-1.708984,-13.61084,-21.54541,0,0
3005,2024 10 23,05:24:35.032,0.60391,0.478892,-0.522783,0.364215,-1.053743,-0.0459,0.055666,-1.220703,-12.329102,-18.493652,0,0
3006,2024 10 23,05:24:35.040,0.604042,0.479802,-0.522674,0.362954,-1.07474,-0.039552,0.076662,-1.586914,-8.178711,-15.625,0,0
3007,2024 10 23,05:24:35.048,0.604042,0.479802,-0.522674,0.362954,-1.07474,-0.039552,0.076662,-1.586914,-8.178711,-15.625,0,0
3008,2024 10 23,05:24:35.057,0.604399,0.480425,-0.522297,0.362077,-1.038606,-0.04004,0.072268,-1.159668,-2.01416,-14.038086,0,0
3009,2024 10 23,05:24:35.065,0.604847,0.480953,-0.521813,0.361324,-0.982452,-0.033204,0.112796,-1.403809,-0.793457,-13.73291,0,0
3010,2024 10 23,05:24:35.073,0.605327,0.481426,-0.521269,0.360677,-0.972686,-0.053713,0.098148,-0.854492,0.793457,-13.183594,0,0
3011,2024 10 23,05:24:35.082,0.605931,0.481777,-0.520657,0.360077,-0.990265,-0.061037,0.099612,-1.708984,3.173828,-12.939453,0,0
3012,2024 10 23,05:24:35.090,0.606777,0.48197,-0.519877,0.359519,-0.964385,-0.041017,0.100101,-3.540039,7.446289,-13.916016,0,0
3013,2024 10 23,05:24:35.098,0.607735,0.482062,-0.518939,0.359133,-0.916532,-0.063478,0.0918,-3.051758,9.094238,-13.061523,0,0
3014,2024 10 23,05:24:35.107,0.607735,0.482062,-0.518939,0.359133,-0.916532,-0.063478,0.0918,-3.051758,9.094238,-13.061523,0,0
3015,2024 10 23,05:24:35.115,0.608676,0.482071,-0.518111,0.358722,-0.921903,-0.047853,0.135746,-3.967285,8.300781,-11.84082,0,0
3016,2024 10 23,05:24:35.123,0.609542,0.482168,-0.517318,0.358264,-0.950713,-0.054689,0.102054,-3.90625,5.981445,-13.61084,0,0
3017,2024 10 23,05:24:35.132,0.610381,0.48239,-0.516557,0.357635,-0.979034,-0.079104,0.087405,-3.356934,5.187988,-14.038086,0,0
3018,2024 10 23,05:24:35.140,0.611292,0.482643,-0.51587,0.356729,-0.95706,-0.031251,0.173833,-5.79834,3.540039,-17.028809,0,0
3019,2024 10 23,05:24:35.148,0.612217,0.482954,-0.514979,0.35601,-0.959502,-0.060549,0.109867,-3.967285,5.737305,-16.479492,0,0
3020,2024 10 23,05:24:35.157,0.612217,0.482954,-0.514979,0.35601,-0.959502,-0.060549,0.109867,-3.967285,5.737305,-16.479492,0,0
3021,2024 10 23,05:24:35.165,0.613049,0.483326,-0.514188,0.355215,-0.985382,-0.068361,0.097659,-1.953125,3.479004,-15.991211,0,0
3022,2024 10 23,05:24:35.173,0.613819,0.483713,-0.513369,0.354542,-1.049837,-0.071291,0.104007,-2.685547,5.187988,-15.625,0,0
3023,2024 10 23,05:24:35.182,0.614799,0.483923,-0.512276,0.354138,-0.980987,-0.106449,0.100101,0.0,12.268066,-14.099121,0,0
3024,2024 10 23,05:24:35.190,0.615931,0.483937,-0.511083,0.353875,-0.959502,-0.063478,0.077639,-3.845215,12.329102,-14.221191,0,0
3025,2024 10 23,05:24:35.198,0.61693,0.483988,-0.509976,0.353663,-0.977569,-0.124516,0.104984,-2.197266,11.901855,-12.756348,0,0
3026,2024 10 23,05:24:35.207,0.61693,0.483988,-0.509976,0.353663,-0.977569,-0.124516,0.104984,-2.197266,11.901855,-12.756348,0,0
3027,2024 10 23,05:24:35.215,0.618161,0.483812,-0.508853,0.353371,-0.996612,-0.079592,0.124027,-4.272461,14.343262,-12.817383,0,0
3028,2024 10 23,05:24:35.223,0.619418,0.48366,-0.507627,0.353142,-1.007843,-0.073244,0.12598,-5.065918,15.441895,-14.221191,0,0
3029,2024 10 23,05:24:35.232,0.620876,0.483472,-0.506181,0.352915,-0.973662,-0.080569,0.125492,-5.126953,17.578125,-15.808105,0,0
3030,2024 10 23,05:24:35.240,0.62235,0.483362,-0.504766,0.352495,-0.996612,-0.066408,0.132328,-5.371094,15.563965,-17.822266,0,0
3031,2024 10 23,05:24:35.248,0.62382,0.483432,-0.503265,0.351946,-1.043001,-0.076174,0.119633,-4.272461,14.709473,-20.263672,0,0
3032,2024 10 23,05:24:35.257,0.62382,0.483432,-0.503265,0.351946,-1.043001,-0.076174,0.119633,-4.272461,14.709473,-20.263672,0,0
3033,2024 10 23,05:24:35.265,0.625259,0.483798,-0.501794,0.35099,-1.040559,-0.0459,0.170904,-3.90625,10.864258,-24.780273,0,0
3034,2024 10 23,05:24:35.273,0.626595,0.484574,-0.500231,0.349765,-1.14066,-0.042482,0.165532,-3.356934,6.958008,-30.273438,0,0
3035,2024 10 23,05:24:35.282,0.627998,0.485723,-0.4983,0.348409,-1.104526,-0.10303,0.117679,3.051758,10.742188,-35.217285,0,0
3036,2024 10 23,05:24:35.290,0.62962,0.487113,-0.496104,0.34667,-1.173376,-0.067873,0.094241,-1.403809,7.446289,-42.358398,0,0
3037,2024 10 23,05:24:35.298,0.631249,0.489023,-0.493852,0.344225,-1.16361,-0.061525,0.234382,0.488281,5.249023,-51.208496,0,0
3038,2024 10 23,05:24:35.307,0.631249,0.489023,-0.493852,0.344225,-1.16361,-0.061525,0.234382,0.488281,5.249023,-51.208496,0,0
3039,2024 10 23,05:24:35.315,0.633403,0.491135,-0.490644,0.34184,-1.170446,-0.072756,0.098148,1.586914,13.061523,-59.204102,0,0
3040,2024 10 23,05:24:35.323,0.635516,0.493731,-0.487429,0.338765,-1.231483,-0.081545,0.168462,5.92041,6.591797,-67.260742,0,0
3041,2024 10 23,05:24:35.332,0.637781,0.496973,-0.483837,0.334896,-1.298868,-0.009278,0.302255,1.525879,2.807617,-80.810547,0,0
3042,2024 10 23,05:24:35.340,0.640284,0.500934,-0.47923,0.330817,-1.31547,-0.049806,0.209479,11.84082,8.850098,-92.529297,0,0
3043,2024 10 23,05:24:35.348,0.642943,0.505561,-0.474088,0.325994,-1.360393,-0.065432,0.247078,14.404297,5.371094,-106.323242,0,0
3044,2024 10 23,05:24:35.357,0.642943,0.505561,-0.474088,0.325994,-1.360393,-0.065432,0.247078,14.404297,5.371094,-106.323242,0,0
3045,2024 10 23,05:24:35.365,0.645862,0.510978,-0.468121,0.320354,-1.385296,-0.037111,0.2837,13.61084,6.835938,-123.352051,0,0
3046,2024 10 23,05:24:35.373,0.649162,0.517133,-0.461017,0.314045,-1.452681,-0.104007,0.169927,19.65332,9.82666,-140.319824,0,0
3047,2024 10 23,05:24:35.382,0.652748,0.524167,-0.453157,0.306298,-1.590869,-0.115726,0.095706,18.920898,4.272461,-162.597656,0,0
3048,2024 10 23,05:24:35.390,0.656992,0.531878,-0.444067,0.297106,-1.720267,-0.100589,0.046388,15.625,9.82666,-187.927246,0,0
3049,2024 10 23,05:24:35.398,0.662124,0.540121,-0.433496,0.286256,-1.917539,0.045412,0.15186,10.864258,10.925293,-217.285156,0,0
3050,2024 10 23,05:24:35.407,0.662124,0.540121,-0.433496,0.286256,-1.917539,0.045412,0.15186,10.864258,10.925293,-217.285156,0,0
3051,2024 10 23,05:24:35.415,0.667867,0.549173,-0.421111,0.273913,-2.188055,0.035157,0.087405,12.634277,20.568848,-247.253418,0,0
3052,2024 10 23,05:24:35.423,0.674915,0.558785,-0.405247,0.260815,-2.297433,0.041505,-0.084964,16.662598,49.682617,-284.179688,0,0
3053,2024 10 23,05:24:35.432,0.683029,0.569064,-0.386378,0.245662,-2.58211,0.077639,-0.143071,12.084961,58.654785,-328.918457,0,0
3054,2024 10 23,05:24:35.440,0.692059,0.579824,-0.364381,0.228221,-2.852626,0.064943,-0.121097,7.629395,74.21875,-373.10791,0,0
3055,2024 10 23,05:24:35.448,0.701876,0.590386,-0.339285,0.209047,-3.123142,0.099612,-0.056642,4.760742,89.599609,-406.25,0,0
3056,2024 10 23,05:24:35.457,0.701876,0.590386,-0.339285,0.209047,-3.123142,0.099612,-0.056642,4.760742,89.599609,-406.25,0,0
3057,2024 10 23,05:24:35.465,0.711825,0.60073,-0.310593,0.189633,-3.199317,-0.010743,0.313974,14.526367,125.793457,-432.006836,0,0
3058,2024 10 23,05:24:35.473,0.721442,0.610764,-0.277387,0.171888,-2.791101,-0.162603,0.104495,17.883301,176.269531,-448.059082,0,0
3059,2024 10 23,05:24:35.482,0.730568,0.618927,-0.242564,0.156085,-2.809168,-0.095218,-0.370128,31.311035,183.837891,-419.73877,0,0
3060,2024 10 23,05:24:35.490,0.737769,0.626164,-0.210504,0.138935,-2.92587,0.333506,0.153813,3.234863,159.851074,-422.607422,0,0
3061,2024 10 23,05:24:35.498,0.745786,0.631206,-0.173135,0.124126,-2.339915,0.529313,-0.30958,16.235352,242.126465,-435.791016,0,0
3062,2024 10 23,05:24:35.507,0.745786,0.631206,-0.173135,0.124126,-2.339915,0.529313,-0.30958,16.235352,242.126465,-435.791016,0,0
3063,2024 10 23,05:24:35.515,0.753529,0.634708,-0.132546,0.108495,-1.789117,0.866726,-1.085482,-8.300781,240.112305,-463.806152,0,1
3064,2024 10 23,05:24:35.523,0.758531,0.638493,-0.094978,0.089087,-1.53032,0.938017,-1.119175,11.59668,171.936035,-463.500977,0,0
3065,2024 10 23,05:24:35.532,0.761851,0.641294,-0.060039,0.068704,-0.792016,1.002472,-0.805689,12.878418,158.813477,-438.659668,0,0
3066,2024 10 23,05:24:35.540,0.764743,0.64153,-0.027893,0.053192,0.895535,1.912168,-1.219764,-25.085449,173.400879,-354.980469,0,0
3067,2024 10 23,05:24:35.548,0.767571,0.639027,-0.004444,0.049591,1.504929,1.11478,-1.260292,-20.996094,161.010742,-137.817383,0,0
3068,2024 10 23,05:24:35.557,0.771916,0.633348,-0.004486,0.054735,0.559587,2.382885,-0.269051,-75.927734,14.160156,115.844727,0,0
3069,2024 10 23,05:24:35.565,0.771916,0.633348,-0.004486,0.054735,0.559587,2.382885,-0.269051,-75.927734,14.160156,115.844727,0,0
3070,2024 10 23,05:24:35.573,0.772453,0.63063,-0.017766,0.072841,-0.794458,1.294473,-0.296396,-44.555664,19.348145,291.748047,0,0
3071,2024 10 23,05:24:35.582,0.771719,0.627055,-0.034774,0.100215,-1.457076,0.784204,0.124027,-19.836426,65.551758,376.586914,0,0
3072,2024 10 23,05:24:35.590,0.769211,0.623246,-0.049043,0.132185,-1.177282,0.462416,-0.275399,-21.972656,119.750977,379.638672,0,0
3073,2024 10 23,05:24:35.598,0.765457,0.619428,-0.061375,0.163147,-0.815943,0.207526,-0.546403,-5.981445,112.121582,355.163574,0,0
3074,2024 10 23,05:24:35.607,0.7612,0.615721,-0.07304,0.190074,-0.700217,0.073244,-0.649434,-6.530762,89.477539,316.040039,0,0
3075,2024 10 23,05:24:35.615,0.7612,0.615721,-0.07304,0.190074,-0.700217,0.073244,-0.649434,-6.530762,89.477539,316.040039,0,0
3076,2024 10 23,05:24:35.623,0.7567,0.612164,-0.084642,0.213301,-0.572283,0.079104,-0.798853,-10.620117,60.791016,288.024902,0,0
3077,2024 10 23,05:24:35.632,0.751815,0.608658,-0.097902,0.233936,-0.503433,0.253914,-0.680197,-11.657715,28.198242,285.766602,0,0
3078,2024 10 23,05:24:35.640,0.745849,0.605207,-0.11355,0.254048,-0.677267,0.404797,-0.496597,-9.399414,5.187988,304.626465,0,0
3079,2024 10 23,05:24:35.648,0.738194,0.60179,-0.131179,0.275156,-0.905301,0.437513,-0.384777,1.098633,-2.990723,331.787109,0,0
3080,2024 10 23,05:24:35.657,0.728663,0.598137,-0.149669,0.298132,-1.003449,0.354503,-0.418958,12.939453,3.601074,358.581543,0,0
3081,2024 10 23,05:24:35.665,0.728663,0.598137,-0.149669,0.298132,-1.003449,0.354503,-0.418958,12.939453,3.601074,358.581543,0,0
3082,2024 10 23,05:24:35.673,0.717308,0.594132,-0.168638,0.322549,-0.990265,0.212897,-0.538102,22.033691,5.371094,378.78418,0,0
3083,2024 10 23,05:24:35.682,0.704394,0.589899,-0.188465,0.346884,-1.025422,0.064943,-0.61623,25.57373,-7.324219,388.183594,0,0
3084,2024 10 23,05:24:35.690,0.690187,0.585618,-0.209281,0.369993,-1.092807,-0.038575,-0.660665,25.939941,-27.099609,388.793945,0,0
3085,2024 10 23,05:24:35.698,0.674923,0.581401,-0.230981,0.391279,-1.233436,-0.092776,-0.636738,25.756836,-49.072266,383.605957,0,0
3086,2024 10 23,05:24:35.707,0.658748,0.577293,-0.253049,0.410791,-1.334513,-0.082522,-0.599628,27.099609,-64.453125,375.915527,0,0
3087,2024 10 23,05:24:35.715,0.658748,0.577293,-0.253049,0.410791,-1.334513,-0.082522,-0.599628,27.099609,-64.453125,375.915527,0,0
3088,2024 10 23,05:24:35.723,0.641595,0.573372,-0.275013,0.428915,-1.471236,-0.085452,-0.511246,33.203125,-75.012207,369.07959,0,0
3089,2024 10 23,05:24:35.732,0.623318,0.569737,-0.296538,0.446026,-1.587939,-0.024415,-0.450697,42.602539,-84.838867,363.769531,0,0
3090,2024 10 23,05:24:35.740,0.603458,0.566774,-0.317459,0.462412,-1.712455,-0.015625,-0.37843,60.72998,-92.773438,360.839844,0,0
3091,2024 10 23,05:24:35.748,0.582074,0.564286,-0.337145,0.478648,-1.835505,-0.033692,-0.41554,81.237793,-91.73584,358.520508,0,0
3092,2024 10 23,05:24:35.757,0.559214,0.562404,-0.355474,0.49459,-1.933164,-0.110355,-0.536637,99.67041,-95.52002,353.027344,0,0
3093,2024 10 23,05:24:35.765,0.559214,0.562404,-0.355474,0.49459,-1.933164,-0.110355,-0.536637,99.67041,-95.52002,353.027344,0,0
3094,2024 10 23,05:24:35.773,0.534983,0.561383,-0.372743,0.509613,-2.034242,-0.288583,-0.663106,115.234375,-105.285645,344.848633,0,0
3095,2024 10 23,05:24:35.782,0.509934,0.560953,-0.389244,0.523248,-2.082095,-0.501968,-0.83694,120.239258,-116.760254,334.960938,0,0
3096,2024 10 23,05:24:35.790,0.484382,0.561173,-0.405592,0.534747,-2.119694,-0.74221,-0.936552,115.905762,-137.145996,322.570801,0,0
3097,2024 10 23,05:24:35.798,0.458711,0.56205,-0.42215,0.543575,-2.182195,-0.976104,-0.955107,106.323242,-160.217285,308.59375,0,0
3098,2024 10 23,05:24:35.807,0.433076,0.563471,-0.439068,0.549696,-2.27253,-1.173864,-0.850124,93.078613,-182.617188,296.203613,0,0
3099,2024 10 23,05:24:35.815,0.433076,0.563471,-0.439068,0.549696,-2.27253,-1.173864,-0.850124,93.078613,-182.617188,296.203613,0,0
3100,2024 10 23,05:24:35.823,0.407671,0.564957,-0.455953,0.553836,-2.407788,-1.371624,-0.689962,83.984375,-191.52832,286.437988,0,0
3101,2024 10 23,05:24:35.832,0.383114,0.565976,-0.472047,0.556836,-2.508866,-1.546922,-0.511246,76.416016,-185.119629,273.742676,0,0
3102,2024 10 23,05:24:35.840,0.359899,0.566301,-0.486557,0.559499,-2.425855,-1.881893,-0.529313,74.035645,-168.762207,258.178711,0,0
3103,2024 10 23,05:24:35.848,0.33813,0.566517,-0.499616,0.561347,-2.085025,-2.197821,-0.50734,69.763184,-163.146973,237.792969,0,0
3104,2024 10 23,05:24:35.857,0.317163,0.567901,-0.511724,0.56128,-1.875057,-2.425367,-0.468276,63.476563,-181.82373,212.768555,0,0
3105,2024 10 23,05:24:35.865,0.317163,0.567901,-0.511724,0.56128,-1.875057,-2.425367,-0.468276,63.476563,-181.82373,212.768555,0,0
3106,2024 10 23,05:24:35.873,0.296386,0.571751,-0.522792,0.55852,-1.462935,-2.47615,0.178228,65.490723,-211.303711,178.344727,0,0
3107,2024 10 23,05:24:35.882,0.276726,0.579164,-0.531084,0.553119,-0.855495,-2.046449,1.082064,74.09668,-244.934082,112.976074,0,0
3108,2024 10 23,05:24:35.890,0.25356,0.594203,-0.535926,0.54352,-2.202216,-2.314524,1.805719,128.78418,-348.937988,57.861328,0,0
3109,2024 10 23,05:24:35.898,0.229646,0.610177,-0.535632,0.536698,-2.990326,-3.045015,2.817469,181.640625,-265.014648,42.84668,0,0
3110,2024 10 23,05:24:35.907,0.217644,0.614165,-0.528171,0.544489,-2.001526,-3.970824,1.489303,188.903809,34.057617,34.179688,0,0
3111,2024 10 23,05:24:35.915,0.217644,0.614165,-0.528171,0.544489,-2.001526,-3.970824,1.489303,188.903809,34.057617,34.179688,0,0
3112,2024 10 23,05:24:35.923,0.215003,0.611775,-0.518052,0.557788,-1.627003,-4.652974,-0.868191,144.897461,105.773926,7.629395,0,0
3113,2024 10 23,05:24:35.932,0.216253,0.62707,-0.504272,0.552926,-1.231483,-4.638813,4.859523,127.075195,-136.474609,-262.939453,0,0
3114,2024 10 23,05:24:35.940,0.245088,0.630652,-0.480776,0.557732,-2.104556,-1.322794,1.059114,-103.515625,320.922852,-364.868164,1,0
3115,2024 10 23,05:24:35.948,0.279649,0.619302,-0.456204,0.574577,-0.169927,1.281777,-0.545427,46.936035,429.321289,-247.741699,0,0
3116,2024 10 23,05:24:35.957,0.296126,0.618008,-0.438011,0.581827,-1.105014,0.704611,0.136723,-15.991211,131.896973,-220.153809,0,0
3117,2024 10 23,05:24:35.965,0.308709,0.625068,-0.423377,0.578567,-1.629444,0.031251,0.926786,19.836426,40.83252,-238.220215,0,0
3118,2024 10 23,05:24:35.973,0.308709,0.625068,-0.423377,0.578567,-1.629444,0.031251,0.926786,19.836426,40.83252,-238.220215,0,0
3119,2024 10 23,05:24:35.982,0.321842,0.630571,-0.408032,0.576461,-1.251015,-0.058596,-0.30079,19.53125,57.312012,-220.703125,0,0
3120,2024 10 23,05:24:35.990,0.327456,0.639036,-0.398375,0.570704,-1.330119,-0.433119,-0.248543,31.005859,-68.17627,-146.850586,0,0
3121,2024 10 23,05:24:35.998,0.328967,0.647041,-0.393795,0.563954,-1.422407,-0.195807,0.446303,10.681152,-64.453125,-94.055176,0,0
3122,2024 10 23,05:24:36.007,0.332252,0.650443,-0.389014,0.561428,-1.014679,0.018555,-0.25782,13.793945,-1.403809,-76.965332,0,0
3123,2024 10 23,05:24:36.015,0.333061,0.654547,-0.385087,0.55888,-1.081576,-0.258309,-0.175787,24.108887,-36.682129,-56.884766,0,0
3124,2024 10 23,05:24:36.023,0.333061,0.654547,-0.385087,0.55888,-1.081576,-0.258309,-0.175787,24.108887,-36.682129,-56.884766,0,0
3125,2024 10 23,05:24:36.032,0.333324,0.657858,-0.382705,0.556467,-1.211951,-0.35255,0.122074,10.559082,-20.385742,-37.17041,0,0
3126,2024 10 23,05:24:36.040,0.335627,0.657981,-0.380534,0.556426,-1.175329,-0.041993,-0.082034,-4.577637,26.062012,-27.709961,0,0
3127,2024 10 23,05:24:36.048,0.337411,0.657365,-0.378599,0.557394,-1.110874,-0.041993,-0.035157,1.831055,21.66748,-17.822266,0,0
3128,2024 10 23,05:24:36.057,0.338701,0.657098,-0.376855,0.558108,-1.059114,0.016114,0.076662,3.479004,19.348145,-17.456055,0,0
3129,2024 10 23,05:24:36.065,0.339758,0.65683,-0.375041,0.559002,-1.002472,-0.013672,0.04297,7.385254,17.883301,-15.319824,0,0
3130,2024 10 23,05:24:36.073,0.339758,0.65683,-0.375041,0.559002,-1.002472,-0.013672,0.04297,7.385254,17.883301,-15.319824,0,0
3131,2024 10 23,05:24:36.082,0.340379,0.656939,-0.373446,0.559563,-1.0347,-0.001465,0.002441,8.605957,9.033203,-14.404297,0,0
3132,2024 10 23,05:24:36.090,0.340698,0.657334,-0.371993,0.559873,-1.104038,-0.055666,-0.017579,9.70459,5.92041,-13.48877,0,0
3133,2024 10 23,05:24:36.098,0.341353,0.657492,-0.37054,0.560252,-1.093783,-0.037111,0.027345,6.04248,10.925293,-14.648438,0,0
3134,2024 10 23,05:24:36.107,0.342239,0.657529,-0.369077,0.560634,-1.099155,-0.041993,-0.057131,4.760742,10.192871,-15.258789,0,0
3135,2024 10 23,05:24:36.115,0.342982,0.657635,-0.367905,0.560825,-1.105502,-0.046876,-0.020997,2.258301,8.056641,-12.634277,0,0
3136,2024 10 23,05:24:36.123,0.342982,0.657635,-0.367905,0.560825,-1.105502,-0.046876,-0.020997,2.258301,8.056641,-12.634277,0,0
3137,2024 10 23,05:24:36.132,0.343876,0.657222,-0.366853,0.561451,-1.042512,-0.046876,-0.008301,0.427246,17.211914,-8.361816,0,0
3138,2024 10 23,05:24:36.140,0.344792,0.656426,-0.365891,0.562447,-0.955596,-0.018067,0.029298,1.220703,19.042969,-5.371094,0,0
3139,2024 10 23,05:24:36.148,0.345343,0.65591,-0.36521,0.563153,-0.940947,-0.004883,0.051759,0.732422,10.375977,-3.601074,0,0
3140,2024 10 23,05:24:36.157,0.345634,0.655617,-0.364722,0.563633,-0.950224,-0.034181,0.067385,2.13623,7.507324,-2.380371,0,0
3141,2024 10 23,05:24:36.165,0.346105,0.655174,-0.364224,0.56418,-0.92581,0.003906,0.099612,-0.427246,10.681152,-2.990723,0,0
3142,2024 10 23,05:24:36.173,0.346105,0.655174,-0.364224,0.56418,-0.92581,0.003906,0.099612,-0.427246,10.681152,-2.990723,0,0
3143,2024 10 23,05:24:36.182,0.346567,0.654437,-0.363698,0.56509,-0.920927,-0.004883,0.095706,1.037598,15.74707,0.366211,0,0
3144,2024 10 23,05:24:36.190,0.347146,0.653458,-0.363023,0.566301,-0.950224,-0.004395,0.0459,0.244141,20.629883,-0.976563,0,0
3145,2024 10 23,05:24:36.198,0.347764,0.652356,-0.362307,0.567649,-0.935575,-0.003418,0.082034,2.441406,21.972656,0.793457,0,0
3146,2024 10 23,05:24:36.207,0.348497,0.65137,-0.361335,0.56895,-0.92581,0.001465,0.14893,0.915527,22.399902,-5.432129,0,0
3147,2024 10 23,05:24:36.215,0.349465,0.6503,-0.360122,0.570348,-0.934111,-0.032716,0.073244,1.89209,24.169922,-6.164551,0,0
3148,2024 10 23,05:24:36.223,0.349465,0.6503,-0.360122,0.570348,-0.934111,-0.032716,0.073244,1.89209,24.169922,-6.164551,0,0
3149,2024 10 23,05:24:36.232,0.350445,0.649674,-0.358902,0.571228,-0.909696,-0.012207,0.154302,2.13623,17.700195,-9.70459,0,0
3150,2024 10 23,05:24:36.240,0.351443,0.649364,-0.357531,0.571826,-0.983428,-0.029786,0.078616,1.586914,13.427734,-14.770508,0,0
3151,2024 10 23,05:24:36.248,0.352668,0.649198,-0.356053,0.572183,-0.947783,-0.057131,0.089358,3.051758,15.014648,-16.662598,0,0
3152,2024 10 23,05:24:36.257,0.354099,0.648903,-0.354517,0.572588,-0.934111,-0.064943,0.049318,-1.525879,15.563965,-18.798828,0,0
3153,2024 10 23,05:24:36.265,0.355617,0.648706,-0.353149,0.572716,-0.991729,-0.054201,0.089358,-2.319336,12.817383,-19.287109,0,0
3154,2024 10 23,05:24:36.273,0.355617,0.648706,-0.353149,0.572716,-0.991729,-0.054201,0.089358,-2.319336,12.817383,-19.287109,0,0
3155,2024 10 23,05:24:36.282,0.357323,0.648452,-0.351614,0.572886,-0.979522,-0.030274,0.11475,-2.746582,15.625,-21.484375,0,0
3156,2024 10 23,05:24:36.290,0.358925,0.648193,-0.349969,0.573184,-0.971709,-0.049806,0.135746,-0.732422,15.930176,-20.202637,0,0
3157,2024 10 23,05:24:36.298,0.360612,0.647947,-0.348292,0.573425,-0.965361,-0.033204,0.118656,-1.525879,15.136719,-22.033691,0,0
3158,2024 10 23,05:24:36.307,0.362067,0.647963,-0.346526,0.573561,-1.060091,-0.071291,0.094729,1.89209,12.268066,-22.888184,0,0
3159,2024 10 23,05:24:36.315,0.363841,0.647934,-0.344605,0.573628,-1.028352,-0.061037,0.086428,-0.183105,16.357422,-26.000977,0,0
3160,2024 10 23,05:24:36.323,0.363841,0.647934,-0.344605,0.573628,-1.028352,-0.061037,0.086428,-0.183105,16.357422,-26.000977,0,0
3161,2024 10 23,05:24:36.332,0.365808,0.647872,-0.34256,0.573672,-1.073275,-0.046876,0.083499,-2.258301,15.258789,-28.930664,0,0
3162,2024 10 23,05:24:36.340,0.367854,0.648029,-0.340344,0.573505,-1.108921,-0.070315,0.119633,0.427246,14.404297,-32.470703,0,0
3163,2024 10 23,05:24:36.348,0.370435,0.648022,-0.337776,0.573369,-1.148473,-0.032228,0.081545,-4.455566,19.775391,-38.391113,0,0
3164,2024 10 23,05:24:36.357,0.373281,0.648196,-0.334823,0.573059,-1.192419,-0.08594,0.101077,-1.708984,19.287109,-44.921875,0,0
3165,2024 10 23,05:24:36.365,0.376853,0.648351,-0.331451,0.572506,-1.262246,0.010254,0.15772,-6.469727,22.277832,-54.077148,0,0
3166,2024 10 23,05:24:36.373,0.376853,0.648351,-0.331451,0.572506,-1.262246,0.010254,0.15772,-6.469727,22.277832,-54.077148,0,0
3167,2024 10 23,05:24:36.382,0.38059,0.648825,-0.327241,0.571918,-1.271523,-0.04297,0.156743,1.586914,24.414063,-63.598633,0,0
3168,2024 10 23,05:24:36.390,0.384966,0.649522,-0.322325,0.570989,-1.299356,0.024415,0.168462,0.732422,24.658203,-76.049805,0,0
3169,2024 10 23,05:24:36.398,0.389465,0.651016,-0.316484,0.569503,-1.386273,0.00586,0.208502,6.347656,18.676758,-89.172363,0,0
3170,2024 10 23,05:24:36.407,0.394499,0.652846,-0.309697,0.567672,-1.504929,0.072756,0.322275,9.277344,23.986816,-103.393555,0,0
3171,2024 10 23,05:24:36.415,0.400014,0.65494,-0.301194,0.565972,-1.533738,0.010743,0.275399,20.446777,30.700684,-120.361328,0,0
3172,2024 10 23,05:24:36.423,0.406293,0.657257,-0.291245,0.564017,-1.500046,0.070803,0.251961,22.949219,37.963867,-139.038086,0,0
3173,2024 10 23,05:24:36.432,0.406293,0.657257,-0.291245,0.564017,-1.500046,0.070803,0.251961,22.949219,37.963867,-139.038086,0,0
3174,2024 10 23,05:24:36.440,0.412993,0.660311,-0.279807,0.561369,-1.560595,0.004395,0.118656,31.37207,31.311035,-159.057617,0,0
3175,2024 10 23,05:24:36.448,0.420424,0.664183,-0.267088,0.557467,-1.673879,0.014649,0.026368,31.799316,29.35791,-183.349609,0,0
3176,2024 10 23,05:24:36.457,0.429092,0.668324,-0.252899,0.552508,-1.829646,0.001953,-0.080569,28.442383,31.433105,-209.655762,0,0
3177,2024 10 23,05:24:36.465,0.439486,0.672275,-0.236783,0.546655,-1.982971,0.047365,-0.061525,23.986816,44.494629,-241.210938,0,0
3178,2024 10 23,05:24:36.473,0.451601,0.675857,-0.218268,0.54003,-2.141179,0.028321,-0.115238,20.019531,54.870605,-273.803711,0,0
3179,2024 10 23,05:24:36.482,0.451601,0.675857,-0.218268,0.54003,-2.141179,0.028321,-0.115238,20.019531,54.870605,-273.803711,0,0
3180,2024 10 23,05:24:36.490,0.465904,0.678523,-0.19727,0.532565,-2.351634,0.049318,-0.18067,13.061523,77.026367,-310.48584,0,0
3181,2024 10 23,05:24:36.498,0.482493,0.679678,-0.173216,0.524628,-2.51912,0.095218,-0.363292,2.258301,104.370117,-349.243164,0,0
3182,2024 10 23,05:24:36.507,0.501,0.679682,-0.14672,0.51527,-2.712485,0.113773,-0.281259,-6.591797,114.990234,-386.291504,0,0
3183,2024 10 23,05:24:36.515,0.520871,0.677915,-0.11757,0.505274,-2.855556,0.067873,-0.108402,-12.939453,143.615723,-413.757324,0,0
3184,2024 10 23,05:24:36.523,0.541048,0.67416,-0.085747,0.495401,-3.208594,-0.235359,0.035646,-5.737305,168.212891,-431.335449,0,0
3185,2024 10 23,05:24:36.532,0.541048,0.67416,-0.085747,0.495401,-3.208594,-0.235359,0.035646,-5.737305,168.212891,-431.335449,0,0
3186,2024 10 23,05:24:36.540,0.561589,0.667415,-0.052544,0.486224,-3.262795,0.733421,1.271035,-32.104492,213.562012,-433.59375,0,0
3187,2024 10 23,05:24:36.548,0.578114,0.657403,-0.014371,0.483114,-2.51912,-0.02002,-0.225105,27.770996,295.288086,-411.92627,0,0
3188,2024 10 23,05:24:36.557,0.593581,0.648232,0.02351,0.476345,-2.387768,0.053224,-0.534196,39.18457,238.40332,-424.804688,0,0
3189,2024 10 23,05:24:36.565,0.609579,0.63878,0.059646,0.465635,-2.417554,0.652852,-0.117191,5.92041,217.041016,-448.547363,0,0
3190,2024 10 23,05:24:36.573,0.624456,0.627663,0.097265,0.454568,-2.090884,0.611835,-0.65627,27.46582,239.196777,-452.697754,0,0
3191,2024 10 23,05:24:36.582,0.624456,0.627663,0.097265,0.454568,-2.090884,0.611835,-0.65627,27.46582,239.196777,-452.697754,0,0
3192,2024 10 23,05:24:36.590,0.63855,0.615454,0.135024,0.441857,-1.393597,0.860866,-1.213416,12.634277,223.144531,-461.791992,0,1
3193,2024 10 23,05:24:36.598,0.65176,0.603467,0.168842,0.427234,-0.499527,1.012726,-1.170934,3.356934,177.856445,-427.612305,0,0
3194,2024 10 23,05:24:36.607,0.662107,0.591634,0.196075,0.416098,0.715842,1.614795,-0.840358,-22.094727,166.19873,-317.260742,0,0
3195,2024 10 23,05:24:36.615,0.665705,0.582225,0.214644,0.414462,1.381878,1.404828,-0.621113,-5.67627,149.963379,-118.95752,0,0
3196,2024 10 23,05:24:36.623,0.663658,0.578143,0.214893,0.423238,0.392102,2.110416,-0.667013,-17.51709,69.091797,131.530762,0,0
3197,2024 10 23,05:24:36.632,0.663658,0.578143,0.214893,0.423238,0.392102,2.110416,-0.667013,-17.51709,69.091797,131.530762,0,0
3198,2024 10 23,05:24:36.640,0.652219,0.581255,0.205146,0.441211,-0.252937,1.278848,-0.420423,-0.976563,57.373047,300.476074,0,0
3199,2024 10 23,05:24:36.648,0.635601,0.586184,0.189158,0.465423,-0.991729,0.648946,-0.358409,14.953613,58.59375,396.66748,0,0
3200,2024 10 23,05:24:36.657,0.616496,0.591203,0.171648,0.490865,-0.884793,0.396008,-0.57326,15.075684,57.434082,411.132813,0,0
3201,2024 10 23,05:24:36.665,0.597276,0.596453,0.15317,0.513852,-0.780786,0.311045,-0.578631,15.319824,27.526855,395.507813,0,0
3202,2024 10 23,05:24:36.673,0.578935,0.601912,0.134741,0.533274,-0.896023,0.097659,-0.648457,17.211914,4.760742,363.708496,0,0
3203,2024 10 23,05:24:36.682,0.578935,0.601912,0.134741,0.533274,-0.896023,0.097659,-0.648457,17.211914,4.760742,363.708496,0,0
3204,2024 10 23,05:24:36.690,0.561848,0.60679,0.116997,0.549949,-0.904324,-0.005371,-0.740257,11.779785,-4.638672,333.984375,0,0
3205,2024 10 23,05:24:36.698,0.545548,0.61086,0.099489,0.565092,-0.659688,0.044923,-0.74807,2.990723,-9.58252,322.387695,0,0
3206,2024 10 23,05:24:36.707,0.529208,0.614709,0.08049,0.579304,-0.554216,0.166997,-0.734397,-5.79834,-28.137207,333.190918,0,0
3207,2024 10 23,05:24:36.715,0.511863,0.619049,0.058823,0.592718,-0.635762,0.211432,-0.636738,-11.84082,-52.062988,356.628418,0,0
3208,2024 10 23,05:24:36.723,0.493001,0.623396,0.034664,0.605909,-0.789087,0.164068,-0.645527,-17.150879,-64.758301,382.751465,0,0
3209,2024 10 23,05:24:36.732,0.493001,0.623396,0.034664,0.605909,-0.789087,0.164068,-0.645527,-17.150879,-64.758301,382.751465,0,0
3210,2024 10 23,05:24:36.740,0.472907,0.627553,0.008578,0.618435,-0.924345,0.050295,-0.610859,-22.644043,-79.345703,397.705078,0,0
3211,2024 10 23,05:24:36.748,0.452476,0.631575,-0.018515,0.629314,-1.043977,-0.057619,-0.577166,-27.648926,-95.703125,393.798828,0,0
3212,2024 10 23,05:24:36.757,0.43244,0.635657,-0.045682,0.637847,-1.172399,-0.134281,-0.499527,-30.334473,-113.891602,377.258301,0,0
3213,2024 10 23,05:24:36.765,0.41296,0.639972,-0.072333,0.643947,-1.28666,-0.107425,-0.325694,-28.869629,-129.577637,357.177734,0,0
3214,2024 10 23,05:24:36.773,0.393572,0.644353,-0.097869,0.64833,-1.366741,-0.007324,-0.143559,-19.836426,-135.986328,341.430664,0,0
3215,2024 10 23,05:24:36.782,0.393572,0.644353,-0.097869,0.64833,-1.366741,-0.007324,-0.143559,-19.836426,-135.986328,341.430664,0,0
3216,2024 10 23,05:24:36.790,0.37339,0.64897,-0.122049,0.651553,-1.446333,0.099612,0.015625,-1.464844,-142.333984,333.618164,0,0
3217,2024 10 23,05:24:36.798,0.351588,0.653829,-0.144721,0.654178,-1.546922,0.177252,0.077151,24.658203,-143.493652,332.763672,0,0
3218,2024 10 23,05:24:36.807,0.3278,0.658815,-0.165587,0.656575,-1.614307,0.181158,0.031251,52.856445,-142.700195,333.129883,0,0
3219,2024 10 23,05:24:36.815,0.302155,0.664074,-0.184812,0.658447,-1.663625,0.136235,-0.080081,78.552246,-147.766113,332.275391,0,0
3220,2024 10 23,05:24:36.823,0.274934,0.669901,-0.202754,0.659193,-1.795953,0.078127,-0.183599,97.351074,-161.437988,329.467773,0,0
3221,2024 10 23,05:24:36.832,0.274934,0.669901,-0.202754,0.659193,-1.795953,0.078127,-0.183599,97.351074,-161.437988,329.467773,0,0
3222,2024 10 23,05:24:36.840,0.246425,0.6763,-0.219612,0.658531,-2.019104,0.008301,-0.147465,113.830566,-174.255371,325.622559,0,0
3223,2024 10 23,05:24:36.848,0.217095,0.682601,-0.235286,0.656937,-2.243721,-0.059084,-0.097171,125.976563,-178.283691,321.289063,0,0
3224,2024 10 23,05:24:36.857,0.187164,0.688257,-0.249682,0.654928,-2.400952,-0.211921,-0.012207,136.84082,-172.973633,317.565918,0,0
3225,2024 10 23,05:24:36.865,0.157172,0.69264,-0.262869,0.653029,-2.445387,-0.469741,-0.052248,142.578125,-159.790039,314.208984,0,0
3226,2024 10 23,05:24:36.873,0.127661,0.695941,-0.275128,0.650902,-2.469802,-0.750999,-0.090335,142.028809,-152.282715,307.128906,0,0
3227,2024 10 23,05:24:36.882,0.099282,0.698307,-0.28648,0.648414,-2.52205,-1.015656,-0.088382,136.047363,-141.418457,294.73877,0,0
3228,2024 10 23,05:24:36.890,0.099282,0.698307,-0.28648,0.648414,-2.52205,-1.015656,-0.088382,136.047363,-141.418457,294.73877,0,0
3229,2024 10 23,05:24:36.898,0.072732,0.69961,-0.296962,0.645809,-2.483474,-1.222694,-0.145024,125.793457,-127.868652,278.625488,0,0
3230,2024 10 23,05:24:36.907,0.048261,0.700067,-0.306681,0.643059,-2.339915,-1.583544,-0.228523,113.15918,-114.807129,261.413574,0,0
3231,2024 10 23,05:24:36.915,0.026376,0.700058,-0.316053,0.639792,-2.086001,-2.133854,-0.371593,90.637207,-108.825684,242.736816,0,0
3232,2024 10 23,05:24:36.923,0.007499,0.700865,-0.325458,0.634673,-1.853572,-2.592364,-0.207526,58.47168,-122.497559,217.712402,0,0
3233,2024 10 23,05:24:36.932,-0.007544,0.703411,-0.334439,0.627142,-1.574755,-2.660726,0.261727,21.728516,-143.249512,177.062988,0,0
3234,2024 10 23,05:24:36.940,-0.007544,0.703411,-0.334439,0.627142,-1.574755,-2.660726,0.261727,21.728516,-143.249512,177.062988,0,0
3235,2024 10 23,05:24:36.948,-0.019438,0.708396,-0.341968,0.617134,-1.721244,-2.677816,0.900418,0.610352,-172.363281,134.216309,0,0
3236,2024 10 23,05:24:36.957,-0.028959,0.714168,-0.347897,0.606707,-2.218818,-2.915128,1.721732,-7.080078,-160.461426,106.628418,0,0
3237,2024 10 23,05:24:36.965,-0.034376,0.716142,-0.352941,0.601159,-2.240791,-3.379986,1.803278,-17.211914,-62.438965,88.012695,0,0
3238,2024 10 23,05:24:36.973,-0.033842,0.713274,-0.357782,0.601737,-1.722709,-3.695914,1.167516,-38.818359,41.442871,61.889648,0,0
3239,2024 10 23,05:24:36.982,-0.028356,0.709418,-0.362549,0.603722,-1.399945,-3.460555,0.677267,-74.768066,58.59375,28.198242,0,0
3240,2024 10 23,05:24:36.990,-0.028356,0.709418,-0.362549,0.603722,-1.399945,-3.460555,0.677267,-74.768066,58.59375,28.198242,0,0
3241,2024 10 23,05:24:36.998,-0.01988,0.706996,-0.366732,0.604375,-1.425336,-2.834071,0.903836,-94.787598,55.297852,-3.845215,0,0
3242,2024 10 23,05:24:37.007,-0.009158,0.704037,-0.369619,0.606325,-1.281289,-2.162175,0.892117,-94.787598,82.763672,-28.930664,0,0
3243,2024 10 23,05:24:37.015,0.003263,0.70235,-0.370515,0.607793,-7.228736,-3.257424,-1.512742,-112.243652,48.828125,-82.885742,0,0
3244,2024 10 23,05:24:37.023,0.031688,0.70302,-0.364027,0.610117,-2.40144,1.608448,0.071779,-138.427734,259.155273,-220.947266,0,0
3245,2024 10 23,05:24:37.032,0.060718,0.690605,-0.353706,0.627909,-0.552263,2.098697,-2.581133,-62.5,337.402344,-236.755371,0,0
3246,2024 10 23,05:24:37.040,0.060718,0.690605,-0.353706,0.627909,-0.552263,2.098697,-2.581133,-62.5,337.402344,-236.755371,0,0
3247,2024 10 23,05:24:37.048,0.074614,0.692429,-0.335784,0.634211,-1.358928,0.271981,-0.74514,56.70166,62.805176,-258.728027,1,0
3248,2024 10 23,05:24:37.057,0.088529,0.695056,-0.316094,0.639644,-1.401898,0.65627,1.078646,80.566406,129.089355,-257.568359,0,0
3249,2024 10 23,05:24:37.065,0.097564,0.692139,-0.293999,0.651912,-0.949248,-0.183599,0.057619,121.643066,164.550781,-210.144043,0,0
3250,2024 10 23,05:24:37.073,0.10392,0.692724,-0.276064,0.658121,-1.314493,-0.488784,0.429212,99.609375,61.401367,-171.508789,0,0
3251,2024 10 23,05:24:37.082,0.112033,0.693369,-0.26279,0.661535,-1.145543,-0.382824,0.504898,29.602051,65.185547,-158.691406,0,0
3252,2024 10 23,05:24:37.090,0.112033,0.693369,-0.26279,0.661535,-1.145543,-0.382824,0.504898,29.602051,65.185547,-158.691406,0,0
3253,2024 10 23,05:24:37.098,0.121894,0.693947,-0.253251,0.662905,-0.998566,-0.04883,0.011719,-8.056641,32.104492,-143.066406,0,0
3254,2024 10 23,05:24:37.107,0.128537,0.697576,-0.246045,0.660551,-1.05179,0.04297,0.006348,9.094238,-34.118652,-111.51123,0,0
3255,2024 10 23,05:24:37.115,0.131748,0.702365,-0.239964,0.657072,-1.132847,-0.049318,0.224128,19.714355,-44.006348,-85.693359,0,0
3256,2024 10 23,05:24:37.123,0.134547,0.705714,-0.234578,0.654857,-0.930204,-0.198248,-0.032716,11.779785,-26.916504,-73.852539,0,0
3257,2024 10 23,05:24:37.132,0.137713,0.709168,-0.230745,0.651822,-1.0347,-0.073244,-0.052248,-0.488281,-40.039063,-64.208984,0,0
3258,2024 10 23,05:24:37.140,0.137713,0.709168,-0.230745,0.651822,-1.0347,-0.073244,-0.052248,-0.488281,-40.039063,-64.208984,0,0
3259,2024 10 23,05:24:37.148,0.13925,0.712277,-0.227939,0.649088,-1.250526,-0.19776,-0.033692,8.666992,-33.508301,-38.879395,0,0
3260,2024 10 23,05:24:37.157,0.140385,0.713415,-0.226084,0.648241,-1.064974,-0.067385,0.009278,2.319336,-2.502441,-23.681641,0,0
3261,2024 10 23,05:24:37.165,0.141413,0.713811,-0.224877,0.648002,-0.961455,-0.023927,0.018555,-0.12207,-3.78418,-16.967773,0,0
3262,2024 10 23,05:24:37.173,0.142118,0.714629,-0.223988,0.647254,-1.073763,0.019044,0.027345,0.610352,-10.253906,-15.258789,0,0
3263,2024 10 23,05:24:37.182,0.142753,0.715376,-0.222943,0.646649,-1.104526,0.036134,0.023927,1.953125,-7.080078,-16.174316,0,0
3264,2024 10 23,05:24:37.190,0.142753,0.715376,-0.222943,0.646649,-1.104526,0.036134,0.023927,1.953125,-7.080078,-16.174316,0,0
3265,2024 10 23,05:24:37.198,0.143398,0.71602,-0.221623,0.646248,-1.057161,0.06299,0.013672,5.981445,-5.126953,-18.310547,0,0
3266,2024 10 23,05:24:37.207,0.14382,0.716951,-0.219896,0.645711,-1.006378,0.044923,0.051759,10.131836,-9.58252,-21.179199,0,0
3267,2024 10 23,05:24:37.215,0.14405,0.718292,-0.217989,0.644816,-1.002472,-0.000977,0.047853,12.451172,-16.296387,-22.216797,0,0
3268,2024 10 23,05:24:37.223,0.144212,0.719922,-0.216165,0.643574,-1.027863,-0.015625,-0.008301,11.657715,-20.568848,-21.850586,0,0
3269,2024 10 23,05:24:37.232,0.144447,0.7216,-0.214443,0.642217,-1.016144,-0.038575,0.002441,8.972168,-20.751953,-22.094727,0,0
3270,2024 10 23,05:24:37.240,0.144447,0.7216,-0.214443,0.642217,-1.016144,-0.038575,0.002441,8.972168,-20.751953,-22.094727,0,0
3271,2024 10 23,05:24:37.248,0.144916,0.723121,-0.212919,0.640907,-0.993194,-0.029298,-0.009278,6.530762,-18.737793,-21.118164,0,0
3272,2024 10 23,05:24:37.257,0.145403,0.724593,-0.211544,0.639588,-0.959502,-0.00586,0.030763,4.516602,-19.226074,-20.202637,0,0
3273,2024 10 23,05:24:37.265,0.145963,0.726098,-0.210188,0.638199,-0.935087,-0.013672,0.041505,4.272461,-20.324707,-21.606445,0,0
3274,2024 10 23,05:24:37.273,0.146719,0.727785,-0.208787,0.636562,-0.968291,-0.001465,0.018067,2.319336,-23.620605,-24.414063,0,0
3275,2024 10 23,05:24:37.282,0.147616,0.729563,-0.207252,0.634818,-0.980499,-0.008301,0.007813,2.075195,-23.376465,-27.099609,0,0
3276,2024 10 23,05:24:37.290,0.147616,0.729563,-0.207252,0.634818,-0.980499,-0.008301,0.007813,2.075195,-23.376465,-27.099609,0,0
3277,2024 10 23,05:24:37.298,0.148725,0.731231,-0.205484,0.633212,-0.974151,-0.028321,-0.002441,3.173828,-20.141602,-29.907227,0,0
3278,2024 10 23,05:24:37.307,0.149953,0.732928,-0.203566,0.631579,-0.970733,-0.021485,0.014161,2.13623,-21.057129,-32.043457,0,0
3279,2024 10 23,05:24:37.315,0.151231,0.73457,-0.201483,0.630032,-0.981964,-0.029298,0.02295,3.845215,-18.249512,-33.508301,0,0
3280,2024 10 23,05:24:37.323,0.152576,0.735973,-0.199247,0.62878,-0.995636,-0.068361,-0.061037,4.02832,-13.61084,-33.691406,0,0
3281,2024 10 23,05:24:37.332,0.154062,0.737188,-0.197019,0.627696,-1.003449,-0.063478,-0.033204,2.929688,-10.070801,-33.752441,0,0
3282,2024 10 23,05:24:37.340,0.155724,0.738069,-0.194774,0.626951,-0.979034,-0.08301,-0.044435,1.647949,-4.394531,-33.691406,0,0
3283,2024 10 23,05:24:37.348,0.155724,0.738069,-0.194774,0.626951,-0.979034,-0.08301,-0.044435,1.647949,-4.394531,-33.691406,0,0
3284,2024 10 23,05:24:37.357,0.157431,0.738783,-0.192614,0.626351,-0.970733,-0.10303,-0.055666,0.915527,-2.868652,-32.531738,0,0
3285,2024 10 23,05:24:37.365,0.159356,0.739447,-0.19056,0.625708,-0.987823,-0.06885,-0.010743,-3.601074,-2.807617,-33.691406,0,0
3286,2024 10 23,05:24:37.373,0.161353,0.73993,-0.18849,0.625252,-0.991729,-0.103519,-0.055666,-1.098633,0.488281,-33.081055,0,0
3287,2024 10 23,05:24:37.382,0.163252,0.74028,-0.186496,0.624943,-0.997589,-0.105472,-0.032228,-1.953125,2.624512,-30.639648,0,0
3288,2024 10 23,05:24:37.390,0.165059,0.74047,-0.184602,0.624806,-0.988311,-0.109378,-0.029786,-1.159668,4.150391,-28.625488,0,0
3289,2024 10 23,05:24:37.398,0.165059,0.74047,-0.184602,0.624806,-0.988311,-0.109378,-0.029786,-1.159668,4.150391,-28.625488,0,0
3290,2024 10 23,05:24:37.407,0.166811,0.740505,-0.182853,0.624813,-1.022004,-0.108402,-0.038087,-2.563477,7.080078,-26.672363,0,0
3291,2024 10 23,05:24:37.415,0.168583,0.740336,-0.181171,0.625028,-1.025422,-0.120121,-0.054201,-2.441406,9.765625,-25.146484,0,0
3292,2024 10 23,05:24:37.423,0.170349,0.739934,-0.179632,0.625468,-1.059114,-0.08301,-0.013184,-4.455566,13.549805,-23.55957,0,0
3293,2024 10 23,05:24:37.432,0.172007,0.739267,-0.17806,0.626253,-1.093783,-0.120609,-0.059084,-2.380371,18.005371,-21.54541,0,0
3294,2024 10 23,05:24:37.440,0.173675,0.738455,-0.176456,0.627204,-1.053743,-0.112308,-0.051271,-1.220703,20.507813,-20.996094,0,0
3295,2024 10 23,05:24:37.448,0.173675,0.738455,-0.176456,0.627204,-1.053743,-0.112308,-0.051271,-1.220703,20.507813,-20.996094,0,0
3296,2024 10 23,05:24:37.457,0.175164,0.737423,-0.174939,0.628427,-1.043001,-0.12891,-0.008301,-1.647949,24.108887,-17.944336,0,0
3297,2024 10 23,05:24:37.465,0.176772,0.736212,-0.173494,0.629797,-1.187048,-0.126469,-0.113773,-2.197266,25.20752,-18.737793,0,0
3298,2024 10 23,05:24:37.473,0.178799,0.73503,-0.171769,0.631077,-1.130406,-0.094729,-0.00586,-4.821777,28.198242,-25.20752,0,0
3299,2024 10 23,05:24:37.482,0.181216,0.733727,-0.169726,0.632454,-1.080599,-0.11475,-0.021485,-6.103516,28.808594,-30.517578,0,0
3300,2024 10 23,05:24:37.490,0.183972,0.732682,-0.167487,0.633466,-1.212439,-0.121097,-0.043947,-7.080078,23.55957,-36.315918,0,0
3301,2024 10 23,05:24:37.498,0.183972,0.732682,-0.167487,0.633466,-1.212439,-0.121097,-0.043947,-7.080078,23.55957,-36.315918,0,0
3302,2024 10 23,05:24:37.507,0.187317,0.732104,-0.16467,0.633893,-1.200232,-0.084964,0.041017,-8.728027,19.165039,-48.400879,0,0
3303,2024 10 23,05:24:37.515,0.19132,0.731659,-0.161026,0.634147,-1.255409,-0.109378,0.021973,-9.277344,18.310547,-61.706543,0,0
3304,2024 10 23,05:24:37.523,0.196126,0.731576,-0.156609,0.63388,-1.329142,-0.133793,0.001953,-7.629395,15.625,-75.500488,0,0
3305,2024 10 23,05:24:37.532,0.201841,0.73168,-0.151212,0.633277,-1.393597,-0.092776,0.034181,-8.483887,15.258789,-92.712402,0,0
3306,2024 10 23,05:24:37.540,0.208313,0.731966,-0.14458,0.632399,-1.40434,-0.156255,-0.010254,-6.591797,17.700195,-109.680176,0,0
3307,2024 10 23,05:24:37.548,0.208313,0.731966,-0.14458,0.632399,-1.40434,-0.156255,-0.010254,-6.591797,17.700195,-109.680176,0,0
3308,2024 10 23,05:24:37.557,0.216022,0.73227,-0.136965,0.631154,-1.497604,-0.062502,0.006836,-10.620117,17.39502,-128.356934,0,0
3309,2024 10 23,05:24:37.565,0.224567,0.732619,-0.127864,0.629675,-1.571825,-0.123539,0.063967,-7.93457,22.399902,-149.047852,0,0
3310,2024 10 23,05:24:37.573,0.234588,0.732582,-0.117258,0.628126,-1.642628,-0.139164,-0.076662,-12.145996,29.296875,-172.302246,0,0
3311,2024 10 23,05:24:37.582,0.246195,0.732676,-0.105173,0.62571,-1.814508,-0.132817,-0.086428,-13.366699,25.20752,-200.378418,0,0
3312,2024 10 23,05:24:37.590,0.259393,0.732844,-0.091021,0.622391,-2.039125,-0.190924,-0.263192,-15.50293,27.34375,-232.788086,0,0
3313,2024 10 23,05:24:37.598,0.259393,0.732844,-0.091021,0.622391,-2.039125,-0.190924,-0.263192,-15.50293,27.34375,-232.788086,0,0
3314,2024 10 23,05:24:37.607,0.275423,0.732591,-0.075385,0.617875,-2.313059,0.195807,0.105472,-30.151367,27.404785,-270.568848,0,0
3315,2024 10 23,05:24:37.615,0.292679,0.730996,-0.056558,0.613828,-2.626057,0.135746,-0.132817,-22.766113,60.36377,-307.128906,0,0
3316,2024 10 23,05:24:37.623,0.312402,0.728038,-0.03509,0.609208,-2.586016,0.201178,-0.283212,-24.475098,65.673828,-350.891113,0,0
3317,2024 10 23,05:24:37.632,0.334251,0.725454,-0.01054,0.601567,-2.848232,0.209967,-0.033692,-25.57373,47.180176,-403.259277,0,0
3318,2024 10 23,05:24:37.640,0.357394,0.721724,0.016688,0.592542,-2.995697,0.30372,0.162114,-16.479492,63.293457,-437.62207,0,0
3319,2024 10 23,05:24:37.648,0.357394,0.721724,0.016688,0.592542,-2.995697,0.30372,0.162114,-16.479492,63.293457,-437.62207,0,0
3320,2024 10 23,05:24:37.657,0.380753,0.717108,0.047725,0.581812,-2.734947,-0.279305,0.210456,7.263184,58.105469,-478.088379,0,0
3321,2024 10 23,05:24:37.665,0.404886,0.712031,0.08008,0.568037,-2.565996,-0.122562,-0.036134,-5.310059,43.823242,-498.962402,0,0
3322,2024 10 23,05:24:37.673,0.428012,0.707396,0.10923,0.551784,-3.294534,0.044435,0.2837,-4.394531,-0.671387,-468.261719,0,0
3323,2024 10 23,05:24:37.682,0.452374,0.698303,0.137809,0.537345,-2.416578,0.449232,-0.097171,-48.095703,75.195313,-489.257813,0,0
3324,2024 10 23,05:24:37.690,0.476196,0.686306,0.169719,0.522893,-1.213416,0.190435,-1.078646,-28.381348,75.561523,-510.314941,0,0
3325,2024 10 23,05:24:37.698,0.476196,0.686306,0.169719,0.522893,-1.213416,0.190435,-1.078646,-28.381348,75.561523,-510.314941,0,0
3326,2024 10 23,05:24:37.707,0.50192,0.677678,0.196874,0.500069,-0.950713,0.454115,-1.319376,-56.335449,-65.429688,-516.540527,0,1
3327,2024 10 23,05:24:37.715,0.528247,0.671236,0.216167,0.472937,-0.45558,0.770043,-1.032746,-81.054688,-127.685547,-454.89502,0,0
3328,2024 10 23,05:24:37.723,0.552348,0.662204,0.22595,0.453149,-0.2378,1.380413,-1.176794,-174.072266,-84.594727,-305.236816,0,0
3329,2024 10 23,05:24:37.732,0.569304,0.654864,0.221903,0.444753,-0.061525,2.409253,0.987823,-187.438965,-100.769043,-75.012207,0,0
3330,2024 10 23,05:24:37.740,0.57554,0.649476,0.209372,0.450664,-0.411145,2.004944,-0.44435,-138.73291,2.13623,124.816895,0,0
3331,2024 10 23,05:24:37.748,0.573942,0.647161,0.192482,0.463383,-0.514176,1.528855,0.059084,-113.952637,-12.145996,228.69873,0,0
3332,2024 10 23,05:24:37.757,0.573942,0.647161,0.192482,0.463383,-0.514176,1.528855,0.059084,-113.952637,-12.145996,228.69873,0,0
3333,2024 10 23,05:24:37.765,0.568024,0.647274,0.173868,0.477657,-0.514664,0.982452,-0.015625,-81.115723,8.239746,262.145996,0,0
3334,2024 10 23,05:24:37.773,0.560511,0.64679,0.156984,0.492795,-0.067873,0.747093,-0.663106,-63.171387,12.573242,257.751465,0,0
3335,2024 10 23,05:24:37.782,0.553496,0.649683,0.138387,0.502397,-0.053713,0.738304,-0.215339,-53.710938,-70.983887,236.816406,0,0
3336,2024 10 23,05:24:37.790,0.546935,0.654295,0.118855,0.50856,-0.392102,0.756859,-0.150884,-41.320801,-96.679688,224.79248,0,0
3337,2024 10 23,05:24:37.798,0.539614,0.659412,0.09927,0.513943,-0.555193,0.832545,-0.000977,-32.043457,-102.661133,227.722168,0,0
3338,2024 10 23,05:24:37.807,0.539614,0.659412,0.09927,0.513943,-0.555193,0.832545,-0.000977,-32.043457,-102.661133,227.722168,0,0
3339,2024 10 23,05:24:37.815,0.530798,0.664419,0.079536,0.520072,-0.599139,0.748558,0.06299,-23.620605,-91.308594,244.018555,0,0
3340,2024 10 23,05:24:37.823,0.52073,0.668833,0.059167,0.527259,-0.5215,0.627461,-0.067873,-24.536133,-86.486816,262.695313,0,0
3341,2024 10 23,05:24:37.832,0.509939,0.673058,0.036885,0.53441,-0.464858,0.484878,-0.149419,-35.217285,-100.097656,282.104492,0,0
3342,2024 10 23,05:24:37.840,0.499124,0.677205,0.011827,0.54049,-0.538102,0.390149,-0.174322,-53.894043,-127.319336,296.447754,0,0
3343,2024 10 23,05:24:37.848,0.488698,0.681345,-0.016269,0.544682,-0.763207,0.354015,-0.060549,-76.049805,-158.813477,305.786133,0,0
3344,2024 10 23,05:24:37.857,0.488698,0.681345,-0.016269,0.544682,-0.763207,0.354015,-0.060549,-76.049805,-158.813477,305.786133,0,0
3345,2024 10 23,05:24:37.865,0.478742,0.684839,-0.046774,0.54737,-1.011261,0.294931,0.050783,-98.266602,-176.818848,311.828613,0,0
3346,2024 10 23,05:24:37.873,0.469436,0.687139,-0.078925,0.548854,-1.234413,0.227546,0.169439,-120.300293,-186.096191,313.110352,0,0
3347,2024 10 23,05:24:37.882,0.461004,0.687872,-0.111995,0.549331,-1.367229,0.215339,0.32667,-141.967773,-186.889648,309.509277,0,0
3348,2024 10 23,05:24:37.890,0.45341,0.686797,-0.145567,0.549127,-1.441939,0.171392,0.411634,-161.92627,-180.725098,307.739258,0,0
3349,2024 10 23,05:24:37.898,0.446682,0.68363,-0.179502,0.548547,-1.405805,0.190435,0.341807,-181.213379,-174.072266,307.922363,0,0
3350,2024 10 23,05:24:37.907,0.446682,0.68363,-0.179502,0.548547,-1.405805,0.190435,0.341807,-181.213379,-174.072266,307.922363,0,0
3351,2024 10 23,05:24:37.915,0.440168,0.679339,-0.214464,0.546586,-1.515183,0.321787,0.499039,-197.08252,-185.791016,310.302734,0,0
3352,2024 10 23,05:24:37.923,0.433059,0.674025,-0.24977,0.543843,-1.627491,0.400403,0.655293,-198.791504,-185.852051,315.124512,0,0
3353,2024 10 23,05:24:37.932,0.425221,0.667525,-0.284339,0.541063,-1.7022,0.424329,0.619648,-191.345215,-176.757813,315.917969,0,0
3354,2024 10 23,05:24:37.940,0.416456,0.660663,-0.317567,0.53781,-1.789117,0.382824,0.563982,-179.6875,-177.79541,307.983398,0,0
3355,2024 10 23,05:24:37.948,0.40677,0.65414,-0.34917,0.53359,-1.901914,0.273934,0.495132,-163.94043,-182.922363,295.654297,0,0
3356,2024 10 23,05:24:37.957,0.40677,0.65414,-0.34917,0.53359,-1.901914,0.273934,0.495132,-163.94043,-182.922363,295.654297,0,0
3357,2024 10 23,05:24:37.965,0.396247,0.647999,-0.37936,0.528367,-2.027894,0.183111,0.449721,-151.855469,-190.612793,285.888672,0,0
3358,2024 10 23,05:24:37.973,0.384647,0.642318,-0.408317,0.522256,-2.162664,0.06299,0.556169,-138.244629,-198.669434,278.259277,0,0
3359,2024 10 23,05:24:37.982,0.372246,0.636947,-0.435599,0.515737,-2.23542,-0.132817,0.690451,-122.070313,-199.279785,267.883301,0,0
3360,2024 10 23,05:24:37.990,0.359454,0.631962,-0.460833,0.508969,-2.234931,-0.38966,0.838404,-106.689453,-197.387695,252.502441,0,0
3361,2024 10 23,05:24:37.998,0.346435,0.627841,-0.483876,0.50166,-2.220771,-0.720725,0.89114,-91.491699,-202.880859,231.872559,0,0
3362,2024 10 23,05:24:38.007,0.346435,0.627841,-0.483876,0.50166,-2.220771,-0.720725,0.89114,-91.491699,-202.880859,231.872559,0,0
3363,2024 10 23,05:24:38.015,0.33368,0.624638,-0.504801,0.493621,-2.275948,-1.021027,1.043489,-82.519531,-199.462891,209.228516,0,0
3364,2024 10 23,05:24:38.023,0.321803,0.621691,-0.523725,0.485444,-2.297922,-1.36137,1.053743,-79.528809,-189.39209,191.101074,0,0
3365,2024 10 23,05:24:38.032,0.311426,0.618326,-0.540918,0.477592,-2.165105,-1.743706,1.138218,-79.162598,-165.710449,176.635742,0,0
3366,2024 10 23,05:24:38.040,0.303316,0.614656,-0.556188,0.469949,-1.883358,-2.095767,1.250038,-85.876465,-144.042969,151.428223,0,0
3367,2024 10 23,05:24:38.048,0.297684,0.61194,-0.56918,0.461463,-1.546434,-2.242744,1.641163,-91.491699,-134.70459,110.961914,0,0
3368,2024 10 23,05:24:38.057,0.297684,0.61194,-0.56918,0.461463,-1.546434,-2.242744,1.641163,-91.491699,-134.70459,110.961914,0,0
3369,2024 10 23,05:24:38.065,0.293651,0.611111,-0.579588,0.452095,-1.701712,-2.387768,1.982971,-85.327148,-135.986328,70.43457,0,0
3370,2024 10 23,05:24:38.073,0.291208,0.612677,-0.58672,0.44225,-2.86288,-2.638264,2.877041,-71.960449,-125.976563,18.676758,0,0
3371,2024 10 23,05:24:38.082,0.29524,0.613925,-0.586364,0.438301,-3.532823,-3.240333,3.637318,-36.071777,16.967773,-46.142578,0,0
3372,2024 10 23,05:24:38.090,0.310633,0.611838,-0.574625,0.446057,-2.872646,-3.877071,3.222266,15.441895,237.365723,-117.614746,0,0
3373,2024 10 23,05:24:38.098,0.335296,0.606734,-0.553888,0.46115,-0.583025,-3.025971,0.733421,2.075195,372.741699,-179.321289,1,0
3374,2024 10 23,05:24:38.107,0.335296,0.606734,-0.553888,0.46115,-0.583026,-3.025971,0.733421,2.075195,372.741699,-179.321289,0,0
3375,2024 10 23,05:24:38.115,0.362966,0.598847,-0.539988,0.466959,-0.92581,1.437056,-0.91409,-108.337402,255.371094,-143.920898,0,0
3376,2024 10 23,05:24:38.123,0.374502,0.596677,-0.527714,0.474598,-2.343822,1.216834,0.532731,66.833496,197.631836,-103.149414,0,0
3377,2024 10 23,05:24:38.132,0.389488,0.592211,-0.51069,0.486602,-1.183142,0.875515,-1.275918,30.029297,268.798828,-135.925293,0,0
3378,2024 10 23,05:24:38.140,0.397059,0.594804,-0.494801,0.493685,-1.195837,-0.532731,0.856471,106.201172,125.549316,-128.662109,0,0
3379,2024 10 23,05:24:38.148,0.406129,0.594444,-0.482268,0.499112,-0.639668,-0.291513,0.417982,20.202637,146.30127,-98.327637,0,0
3380,2024 10 23,05:24:38.157,0.406129,0.594444,-0.482268,0.499112,-0.639668,-0.291513,0.417982,20.202637,146.30127,-98.327637,0,0
3381,2024 10 23,05:24:38.165,0.412566,0.593242,-0.474402,0.502788,-0.847682,0.095706,0.548357,17.63916,85.9375,-55.725098,0,0
3382,2024 10 23,05:24:38.173,0.416216,0.591853,-0.467868,0.507517,-1.11478,0.066897,-0.069338,38.696289,94.360352,-33.081055,0,0
3383,2024 10 23,05:24:38.182,0.418432,0.591022,-0.461334,0.512619,-1.057161,-0.102542,-0.063478,46.691895,75.073242,-27.893066,0,0
3384,2024 10 23,05:24:38.190,0.420958,0.590166,-0.455627,0.516626,-0.887234,-0.157231,0.150395,26.611328,72.937012,-29.35791,0,0
3385,2024 10 23,05:24:38.198,0.423943,0.58845,-0.451164,0.520049,-0.944365,-0.037599,0.04297,16.845703,66.345215,-18.127441,0,0
3386,2024 10 23,05:24:38.207,0.425614,0.58703,-0.447454,0.523482,-0.998566,-0.061037,0.072756,20.568848,55.419922,-10.070801,0,0
3387,2024 10 23,05:24:38.215,0.425614,0.58703,-0.447454,0.523482,-0.998566,-0.061037,0.072756,20.568848,55.419922,-10.070801,0,0
3388,2024 10 23,05:24:38.223,0.427967,0.585401,-0.44407,0.526262,-0.989776,0.10889,0.063478,9.277344,56.45752,-17.150879,0,0
3389,2024 10 23,05:24:38.232,0.429387,0.584561,-0.440753,0.528821,-0.904324,-0.078616,0.153813,20.263672,39.367676,-13.61084,0,0
3390,2024 10 23,05:24:38.240,0.430649,0.583948,-0.43815,0.530633,-0.876003,0.062502,0.278329,13.671875,32.836914,-13.061523,0,0
3391,2024 10 23,05:24:38.248,0.431567,0.583774,-0.435726,0.532072,-0.916044,0.029786,0.099612,14.221191,21.972656,-14.953613,0,0
3392,2024 10 23,05:24:38.257,0.43168,0.58441,-0.433794,0.53286,-1.016633,-0.010743,0.129887,18.798828,8.850098,-12.939453,0,0
3393,2024 10 23,05:24:38.265,0.43168,0.58441,-0.433794,0.53286,-1.016633,-0.010743,0.129887,18.798828,8.850098,-12.939453,0,0
3394,2024 10 23,05:24:38.273,0.432158,0.584869,-0.43198,0.533443,-1.012238,0.036622,0.040529,12.084961,11.84082,-15.380859,0,0
3395,2024 10 23,05:24:38.282,0.432356,0.585601,-0.430203,0.533915,-0.999054,-0.032716,0.080081,15.625,6.591797,-14.526367,0,0
3396,2024 10 23,05:24:38.290,0.43277,0.586088,-0.428588,0.534343,-1.015656,0.001465,0.080569,10.742188,10.498047,-13.671875,0,0
3397,2024 10 23,05:24:38.298,0.433219,0.586341,-0.426969,0.534998,-1.03177,-0.016114,0.051759,11.413574,12.390137,-11.230469,0,0
3398,2024 10 23,05:24:38.307,0.43369,0.586396,-0.425414,0.535794,-1.016144,0.002441,0.076662,10.620117,15.74707,-9.521484,0,0
3399,2024 10 23,05:24:38.315,0.43369,0.586396,-0.425414,0.535794,-1.016144,0.002441,0.076662,10.620117,15.74707,-9.521484,0,0
3400,2024 10 23,05:24:38.323,0.434108,0.586296,-0.42382,0.536827,-0.958037,-0.006836,0.072756,11.962891,16.296387,-7.385254,0,0
3401,2024 10 23,05:24:38.332,0.434525,0.586213,-0.422392,0.537705,-1.00882,0.015137,0.077151,8.300781,15.197754,-8.728027,0,0
3402,2024 10 23,05:24:38.340,0.435092,0.586058,-0.420865,0.538612,-1.00882,-0.044923,0.016114,9.82666,16.235352,-8.666992,0,0
3403,2024 10 23,05:24:38.348,0.435931,0.585863,-0.419493,0.539217,-0.920438,0.013672,0.089358,4.577637,16.662598,-10.742188,0,0
3404,2024 10 23,05:24:38.357,0.436604,0.585577,-0.418166,0.540013,-0.928739,-0.007324,0.086428,4.394531,15.563965,-7.751465,0,0
3405,2024 10 23,05:24:38.365,0.436604,0.585577,-0.418166,0.540013,-0.928739,-0.007324,0.086428,4.394531,15.563965,-7.751465,0,0
3406,2024 10 23,05:24:38.373,0.437204,0.585227,-0.416975,0.540827,-1.089389,-0.053713,0.001953,5.67627,15.686035,-5.79834,0,0
3407,2024 10 23,05:24:38.382,0.438347,0.58491,-0.415802,0.541148,-0.974639,-0.036134,0.06299,0.671387,17.456055,-13.122559,0,0
3408,2024 10 23,05:24:38.390,0.43975,0.584746,-0.414555,0.541143,-1.0889,-0.004883,0.098636,-5.79834,11.779785,-18.493652,0,0
3409,2024 10 23,05:24:38.398,0.441675,0.584272,-0.41305,0.541239,-0.953154,-0.066408,0.009278,-5.432129,20.385742,-19.165039,0,0
3410,2024 10 23,05:24:38.407,0.443707,0.583857,-0.411732,0.541029,-1.069369,-0.044923,0.064943,-7.93457,16.784668,-21.179199,0,0
3411,2024 10 23,05:24:38.415,0.443707,0.583857,-0.411732,0.541029,-1.069369,-0.044923,0.064943,-7.93457,16.784668,-21.179199,0,0
3412,2024 10 23,05:24:38.423,0.446061,0.583329,-0.410247,0.540789,-0.9429,-0.069826,0.102054,-12.512207,22.644043,-23.742676,0,0
3413,2024 10 23,05:24:38.432,0.448652,0.58261,-0.408748,0.540557,-0.968291,-0.039552,0.064943,-11.84082,20.996094,-24.169922,0,0
3414,2024 10 23,05:24:38.440,0.451152,0.582024,-0.407337,0.540172,-0.989288,-0.039552,0.1377,-14.404297,19.470215,-25.268555,0,0
3415,2024 10 23,05:24:38.448,0.453947,0.581218,-0.405774,0.539876,-1.007355,-0.046388,0.063967,-14.648438,23.498535,-25.756836,0,0
3416,2024 10 23,05:24:38.457,0.456817,0.580468,-0.404182,0.539456,-0.89993,-0.08887,0.083987,-11.291504,24.658203,-27.526855,0,0
3417,2024 10 23,05:24:38.465,0.456817,0.580468,-0.404182,0.539456,-0.89993,-0.08887,0.083987,-11.291504,24.658203,-27.526855,0,0
3418,2024 10 23,05:24:38.473,0.459877,0.579676,-0.402585,0.538901,-0.934111,0.038575,0.285165,-17.76123,20.874023,-29.23584,0,0
3419,2024 10 23,05:24:38.482,0.462547,0.579168,-0.400678,0.538583,-0.98001,-0.053224,0.149907,-10.131836,21.54541,-29.35791,0,0
3420,2024 10 23,05:24:38.490,0.465306,0.578717,-0.398877,0.538028,-1.040071,-0.039064,0.133793,-12.329102,20.019531,-30.517578,0,0
3421,2024 10 23,05:24:38.498,0.468075,0.578372,-0.396953,0.537419,-1.042512,-0.081545,0.133793,-10.864258,21.057129,-32.226563,0,0
3422,2024 10 23,05:24:38.507,0.471044,0.57808,-0.394882,0.536665,-1.11478,-0.052248,0.122074,-12.023926,20.263672,-35.888672,0,0
3423,2024 10 23,05:24:38.515,0.471044,0.57808,-0.394882,0.536665,-1.11478,-0.052248,0.122074,-12.023926,20.263672,-35.888672,0,0
3424,2024 10 23,05:24:38.523,0.474296,0.577847,-0.39257,0.535747,-1.102084,-0.081545,0.103519,-13.122559,22.521973,-41.259766,0,0
3425,2024 10 23,05:24:38.532,0.478026,0.577648,-0.390068,0.534472,-1.120151,-0.054689,0.117191,-15.991211,22.460938,-47.546387,0,0
3426,2024 10 23,05:24:38.540,0.481942,0.577654,-0.387285,0.532971,-1.113315,-0.055177,0.27784,-15.74707,22.644043,-52.429199,0,0
3427,2024 10 23,05:24:38.548,0.486319,0.577545,-0.384001,0.531488,-1.100131,-0.076174,0.115238,-16.845703,27.648926,-58.59375,0,0
3428,2024 10 23,05:24:38.557,0.490851,0.577749,-0.380519,0.5296,-1.131871,-0.053224,0.19776,-14.099121,24.780273,-63.964844,0,0
3429,2024 10 23,05:24:38.565,0.490851,0.577749,-0.380519,0.5296,-1.131871,-0.053224,0.19776,-14.099121,24.780273,-63.964844,0,0
3430,2024 10 23,05:24:38.573,0.495635,0.578108,-0.376602,0.52755,-1.116733,-0.063478,0.161138,-15.319824,26.367188,-70.800781,0,0
3431,2024 10 23,05:24:38.582,0.500596,0.578756,-0.372362,0.525158,-1.159215,-0.065432,0.207526,-12.390137,25.20752,-77.026367,0,0
3432,2024 10 23,05:24:38.590,0.50583,0.579579,-0.367612,0.522576,-1.155797,-0.030274,0.267586,-12.451172,26.794434,-83.984375,0,0
3433,2024 10 23,05:24:38.598,0.511005,0.580836,-0.362309,0.519842,-1.201697,-0.036134,0.261727,-4.272461,25.57373,-90.332031,0,0
3434,2024 10 23,05:24:38.607,0.516239,0.582518,-0.356333,0.516911,-1.294961,-0.040529,0.224128,0.0,26.489258,-98.693848,0,0
3435,2024 10 23,05:24:38.615,0.516239,0.582518,-0.356333,0.516911,-1.294961,-0.040529,0.224128,0.0,26.489258,-98.693848,0,0
3436,2024 10 23,05:24:38.623,0.521671,0.584617,-0.349569,0.513696,-1.44731,-0.080569,0.164068,4.02832,28.808594,-109.375,0,0
3437,2024 10 23,05:24:38.632,0.527626,0.587037,-0.341827,0.510051,-1.586962,-0.12598,0.090335,6.713867,32.165527,-123.962402,0,0
3438,2024 10 23,05:24:38.640,0.534455,0.58968,-0.332962,0.505739,-1.720756,-0.107425,0.058596,3.78418,37.475586,-142.76123,0,0
3439,2024 10 23,05:24:38.648,0.542461,0.59241,-0.322827,0.500569,-1.840876,-0.04297,0.061037,2.01416,44.494629,-165.100098,0,0
3440,2024 10 23,05:24:38.657,0.551701,0.595275,-0.311031,0.494503,-1.910703,-0.007813,0.026856,-0.061035,52.062988,-191.52832,0,0
3441,2024 10 23,05:24:38.665,0.562216,0.598525,-0.297376,0.487081,-1.986877,-0.039064,-0.015625,0.854492,55.786133,-223.022461,0,0
3442,2024 10 23,05:24:38.673,0.562216,0.598525,-0.297376,0.487081,-1.986877,-0.039064,-0.015625,0.854492,55.786133,-223.022461,0,0
3443,2024 10 23,05:24:38.682,0.574195,0.602305,-0.281872,0.477575,-2.153386,-0.009278,-0.032228,-5.371094,55.664063,-261.535645,0,0
3444,2024 10 23,05:24:38.690,0.588112,0.606332,-0.264316,0.465428,-2.376537,0.047365,-0.089846,-15.197754,55.603027,-307.189941,0,0
3445,2024 10 23,05:24:38.698,0.603817,0.610655,-0.244514,0.450242,-2.814539,0.251473,0.086917,-22.338867,55.236816,-356.140137,0,0
3446,2024 10 23,05:24:38.707,0.621178,0.614577,-0.221497,0.432864,-2.784753,0.241707,-0.164556,-23.55957,72.20459,-404.35791,0,0
3447,2024 10 23,05:24:38.715,0.638954,0.618926,-0.195273,0.412961,-3.031831,0.066408,0.054201,-12.939453,72.814941,-445.19043,0,0
3448,2024 10 23,05:24:38.723,0.638954,0.618926,-0.195273,0.412961,-3.031831,0.066408,0.054201,-12.939453,72.814941,-445.19043,0,0
3449,2024 10 23,05:24:38.732,0.657835,0.621854,-0.166074,0.391113,-2.641682,0.066897,-0.150884,-23.071289,92.407227,-481.933594,0,0
3450,2024 10 23,05:24:38.740,0.675839,0.624012,-0.135834,0.367968,-2.863369,-0.060549,0.315928,-24.780273,93.261719,-484.558105,0,0
3451,2024 10 23,05:24:38.748,0.693634,0.623277,-0.105724,0.345282,-2.624104,0.10596,0.057619,-46.875,106.384277,-475.769043,0,0
3452,2024 10 23,05:24:38.757,0.710932,0.621061,-0.075268,0.321238,-1.983947,0.294443,-0.573748,-46.142578,96.862793,-488.708496,0,0
3453,2024 10 23,05:24:38.765,0.727568,0.61845,-0.046234,0.293301,-1.500534,0.391614,-0.706565,-66.52832,55.786133,-507.568359,0,1
3454,2024 10 23,05:24:38.773,0.727568,0.61845,-0.046234,0.293301,-1.500534,0.391614,-0.706565,-66.52832,55.786133,-507.568359,0,0
3455,2024 10 23,05:24:38.782,0.744099,0.61403,-0.019467,0.262495,-0.508805,0.640645,-0.836451,-84.838867,25.024414,-502.258301,0,0
3456,2024 10 23,05:24:38.790,0.759244,0.60734,0.002091,0.233841,0.110355,0.424329,-1.541551,-116.027832,-2.685547,-417.96875,0,0
3457,2024 10 23,05:24:38.798,0.77551,0.594964,0.011337,0.210888,1.4185,1.201209,-2.542558,-215.942383,-63.110352,-251.342773,0,0
3458,2024 10 23,05:24:38.807,0.787919,0.58379,-0.003233,0.195866,-0.679708,2.765709,1.539598,-231.872559,-222.595215,4.821777,0,0
3459,2024 10 23,05:24:38.815,0.793865,0.57417,-0.020408,0.199226,-0.93997,1.785699,-0.399426,-140.50293,-80.566406,151.184082,0,0
3460,2024 10 23,05:24:38.823,0.793865,0.57417,-0.020408,0.199226,-0.93997,1.785699,-0.399426,-140.50293,-80.566406,151.184082,0,0
3461,2024 10 23,05:24:38.832,0.795018,0.56841,-0.037435,0.20846,-0.457533,1.254433,-0.015137,-63.232422,-80.688477,196.228027,0,0
3462,2024 10 23,05:24:38.840,0.79289,0.567088,-0.05321,0.216574,0.148442,0.89993,-0.59328,-31.005859,-97.53418,169.128418,0,0
3463,2024 10 23,05:24:38.848,0.788242,0.570514,-0.070705,0.219521,-0.103519,0.807642,-0.285653,34.606934,-165.893555,143.249512,0,0
3464,2024 10 23,05:24:38.857,0.781678,0.576715,-0.089316,0.220006,-0.472182,1.01175,-0.100101,60.60791,-189.39209,135.498047,0,0
3465,2024 10 23,05:24:38.865,0.772694,0.584804,-0.10893,0.221544,-0.602069,0.948271,-0.017579,90.454102,-194.641113,160.827637,0,0
3466,2024 10 23,05:24:38.873,0.772694,0.584804,-0.10893,0.221544,-0.602069,0.948271,-0.017579,90.454102,-194.641113,160.827637,0,0
3467,2024 10 23,05:24:38.882,0.761919,0.593071,-0.129603,0.225722,-0.651387,0.772485,0.012207,101.68457,-185.791016,196.228027,0,0
3468,2024 10 23,05:24:38.890,0.750155,0.600393,-0.151514,0.232032,-0.6592,0.514176,-0.12598,94.726563,-185.424805,225.708008,0,0
3469,2024 10 23,05:24:38.898,0.738158,0.606125,-0.175693,0.238468,-0.693869,0.309091,-0.081057,71.960449,-203.552246,242.919922,0,0
3470,2024 10 23,05:24:38.907,0.726804,0.609586,-0.202038,0.2436,-0.724143,0.16895,-0.001953,37.109375,-223.754883,247.314453,0,0
3471,2024 10 23,05:24:38.915,0.716661,0.610254,-0.230627,0.246572,-0.834986,0.12891,0.100589,-8.300781,-248.901367,247.924805,0,0
3472,2024 10 23,05:24:38.923,0.716661,0.610254,-0.230627,0.246572,-0.834986,0.12891,0.100589,-8.300781,-248.901367,247.924805,0,0
3473,2024 10 23,05:24:38.932,0.707709,0.607924,-0.261795,0.247062,-1.113804,0.263192,0.388195,-53.710938,-276.062012,250.488281,0,0
3474,2024 10 23,05:24:38.940,0.699702,0.602443,-0.294643,0.246302,-1.496628,0.440931,0.801294,-90.393066,-279.785156,258.300781,0,0
3475,2024 10 23,05:24:38.948,0.692964,0.593469,-0.326656,0.24676,-1.63921,0.551286,1.123081,-116.394043,-242.1875,269.287109,0,0
3476,2024 10 23,05:24:38.957,0.687606,0.581399,-0.356343,0.249386,-1.568896,0.578143,1.176794,-132.446289,-197.937012,276.794434,0,0
3477,2024 10 23,05:24:38.965,0.682894,0.567304,-0.384304,0.253244,-1.474654,0.573748,1.181677,-141.906738,-172.851563,281.188965,0,0
3478,2024 10 23,05:24:38.973,0.682894,0.567304,-0.384304,0.253244,-1.474654,0.573748,1.181677,-141.906738,-172.851563,281.188965,0,0
3479,2024 10 23,05:24:38.982,0.678347,0.551773,-0.411029,0.257772,-1.416547,0.577654,1.12064,-146.911621,-155.761719,284.667969,0,0
3480,2024 10 23,05:24:38.990,0.673448,0.535191,-0.43705,0.262727,-1.404828,0.63039,1.065951,-148.193359,-148.681641,290.710449,0,0
3481,2024 10 23,05:24:38.998,0.667614,0.517935,-0.462669,0.268276,-1.486373,0.675802,1.081576,-141.784668,-144.714355,299.377441,0,0
3482,2024 10 23,05:24:39.007,0.660823,0.500282,-0.487403,0.274716,-1.551317,0.655293,1.004425,-131.225586,-135.314941,304.931641,0,0
3483,2024 10 23,05:24:39.015,0.65301,0.482645,-0.51111,0.281777,-1.626026,0.597674,0.87405,-118.95752,-132.080078,306.030273,0,0
3484,2024 10 23,05:24:39.023,0.65301,0.482645,-0.51111,0.281777,-1.626026,0.597674,0.87405,-118.95752,-132.080078,306.030273,0,0
3485,2024 10 23,05:24:39.032,0.643952,0.465359,-0.534112,0.288947,-1.749565,0.521989,0.802271,-107.177734,-134.887695,305.480957,0,0
3486,2024 10 23,05:24:39.040,0.633703,0.448331,-0.556477,0.296232,-1.92584,0.408216,0.749535,-97.229004,-137.329102,306.030273,0,0
3487,2024 10 23,05:24:39.048,0.622508,0.431595,-0.577937,0.303642,-2.053774,0.214362,0.723167,-85.876465,-136.413574,303.405762,0,0
3488,2024 10 23,05:24:39.057,0.610541,0.415526,-0.598296,0.310837,-2.168523,0.011231,0.717307,-75.134277,-138.061523,294.799805,0,0
3489,2024 10 23,05:24:39.065,0.597933,0.400456,-0.617408,0.317675,-2.25251,-0.250008,0.727073,-63.476563,-138.793945,282.592773,0,0
3490,2024 10 23,05:24:39.073,0.597933,0.400456,-0.617408,0.317675,-2.25251,-0.250008,0.727073,-63.476563,-138.793945,282.592773,0,0
3491,2024 10 23,05:24:39.082,0.584916,0.386604,-0.635178,0.323976,-2.315012,-0.608417,0.678732,-52.124023,-140.075684,266.967773,0,0
3492,2024 10 23,05:24:39.090,0.571567,0.374147,-0.651742,0.329481,-2.387768,-1.07181,0.61623,-43.457031,-143.371582,249.511719,0,0
3493,2024 10 23,05:24:39.098,0.558452,0.363097,-0.666909,0.333953,-2.308664,-1.661672,0.546403,-38.330078,-140.258789,226.745605,0,0
3494,2024 10 23,05:24:39.107,0.546057,0.35391,-0.680584,0.33671,-2.048891,-2.270089,0.458022,-37.475586,-141.601563,193.237305,0,0
3495,2024 10 23,05:24:39.115,0.534284,0.347469,-0.693135,0.336705,-1.685598,-2.58211,0.691427,-38.635254,-154.418945,148.55957,0,0
3496,2024 10 23,05:24:39.123,0.522413,0.34428,-0.704916,0.334141,-1.431684,-2.645589,1.22074,-33.996582,-175.964355,107.177734,0,0
3497,2024 10 23,05:24:39.132,0.522413,0.34428,-0.704916,0.334141,-1.431684,-2.645589,1.22074,-33.996582,-175.964355,107.177734,0,0
3498,2024 10 23,05:24:39.140,0.510221,0.344178,-0.715393,0.330801,-1.4185,-2.753014,1.900449,-10.437012,-182.861328,76.293945,0,0
3499,2024 10 23,05:24:39.148,0.499459,0.346263,-0.722913,0.328693,-1.590869,-3.04355,2.090396,18.371582,-151.855469,50.109863,0,0
3500,2024 10 23,05:24:39.157,0.491574,0.349677,-0.726958,0.328043,-1.784722,-3.346293,1.946348,37.414551,-103.69873,24.169922,0,0
3501,2024 10 23,05:24:39.165,0.488467,0.3536,-0.72702,0.328343,-1.787164,-3.486434,1.467818,40.344238,-33.630371,-9.460449,0,0
3502,2024 10 23,05:24:39.173,0.490251,0.359098,-0.724227,0.32588,-6.304391,-4.541643,0.296884,4.02832,-18.981934,-87.70752,0,0
3503,2024 10 23,05:24:39.182,0.490251,0.359098,-0.724227,0.32588,-6.304391,-4.541643,0.296884,4.02832,-18.981934,-87.70752,0,0
3504,2024 10 23,05:24:39.190,0.50624,0.368725,-0.711326,0.319027,-0.831568,-0.957549,3.206152,-10.253906,254.02832,-207.641602,1,0
3505,2024 10 23,05:24:39.198,0.543338,0.361693,-0.683568,0.326645,-0.310068,1.858943,-2.586993,-30.761719,515.808105,-135.864258,0,0
3506,2024 10 23,05:24:39.207,0.554325,0.365556,-0.669667,0.332625,-2.234931,0.674337,-0.614765,82.580566,87.890625,-98.327637,0,0
3507,2024 10 23,05:24:39.215,0.567906,0.370407,-0.653848,0.335805,-1.241737,0.616718,-0.06885,75.195313,264.953613,-152.526855,0,0
3508,2024 10 23,05:24:39.223,0.583315,0.377229,-0.634463,0.338967,-0.723655,0.208014,0.416517,71.533203,181.70166,-177.856445,0,0
3509,2024 10 23,05:24:39.232,0.583315,0.377229,-0.634463,0.338967,-0.723655,0.208014,0.416517,71.533203,181.70166,-177.856445,0,0
3510,2024 10 23,05:24:39.240,0.593668,0.38506,-0.61932,0.340189,-1.14359,-0.806665,0.813013,58.71582,163.024902,-145.385742,0,0
3511,2024 10 23,05:24:39.248,0.606612,0.38618,-0.60643,0.339308,-1.125523,-0.07178,-0.23487,-7.568359,153.015137,-105.712891,0,0
3512,2024 10 23,05:24:39.257,0.614337,0.386676,-0.598247,0.339372,-1.298868,0.092288,0.184088,-0.183105,103.820801,-59.936523,0,0
3513,2024 10 23,05:24:39.265,0.620487,0.38606,-0.590697,0.342099,-1.191443,0.026368,-0.122074,22.277832,110.168457,-26.916504,0,0
3514,2024 10 23,05:24:39.273,0.624913,0.385679,-0.583611,0.346602,-0.861354,-0.113773,0.252449,38.391113,99.67041,-11.59668,0,0
3515,2024 10 23,05:24:39.282,0.624913,0.385679,-0.583611,0.346602,-0.861354,-0.113773,0.252449,38.391113,99.67041,-11.59668,0,0
3516,2024 10 23,05:24:39.290,0.62906,0.384929,-0.577438,0.350254,-0.713889,-0.100589,0.26368,19.226074,85.510254,-12.878418,0,0
3517,2024 10 23,05:24:39.298,0.632306,0.384161,-0.572964,0.352592,-0.832545,-0.04004,0.201666,15.625,59.082031,-8.911133,0,0
3518,2024 10 23,05:24:39.307,0.634419,0.383738,-0.569662,0.354601,-0.976104,-0.110355,0.062014,10.864258,45.471191,-5.615234,0,0
3519,2024 10 23,05:24:39.315,0.636705,0.38284,-0.567048,0.355664,-0.962432,0.052248,0.11182,0.793457,40.95459,-7.141113,0,0
3520,2024 10 23,05:24:39.323,0.638307,0.382253,-0.564683,0.357183,-0.823267,-0.087893,0.294931,7.93457,34.790039,-1.159668,0,0
3521,2024 10 23,05:24:39.332,0.638307,0.382253,-0.564683,0.357183,-0.823267,-0.087893,0.294931,7.93457,34.790039,-1.159668,0,0
3522,2024 10 23,05:24:39.340,0.639933,0.381287,-0.562985,0.357986,-0.85696,0.041993,0.125492,-2.441406,26.062012,-2.746582,0,0
3523,2024 10 23,05:24:39.348,0.640459,0.381113,-0.562402,0.358146,-0.967803,0.029786,0.17481,0.0,3.356934,-2.990723,0,0
3524,2024 10 23,05:24:39.357,0.640762,0.381052,-0.562123,0.358107,-1.053255,0.023927,0.126469,-1.403809,5.859375,-3.112793,0,0
3525,2024 10 23,05:24:39.365,0.641453,0.380811,-0.561516,0.35808,-1.042024,0.055177,0.066897,-2.807617,9.460449,-5.554199,0,0
3526,2024 10 23,05:24:39.373,0.642042,0.38079,-0.560997,0.357859,-1.096713,0.055177,0.095706,-1.220703,6.103516,-7.324219,0,0
3527,2024 10 23,05:24:39.382,0.642042,0.38079,-0.560997,0.357859,-1.096713,0.055177,0.095706,-1.220703,6.103516,-7.324219,0,0
3528,2024 10 23,05:24:39.390,0.642789,0.380752,-0.560225,0.357769,-1.060091,0.051271,0.112796,-1.281738,12.207031,-7.873535,0,0
3529,2024 10 23,05:24:39.398,0.643721,0.380639,-0.559121,0.357939,-1.012238,0.027833,0.080569,1.525879,15.319824,-7.141113,0,0
3530,2024 10 23,05:24:39.407,0.644547,0.380503,-0.558103,0.358187,-0.991241,0.037599,0.145512,1.098633,14.343262,-5.249023,0,0
3531,2024 10 23,05:24:39.415,0.645414,0.380238,-0.557018,0.358595,-0.963897,0.033204,0.101566,0.976563,16.540527,-4.272461,0,0
3532,2024 10 23,05:24:39.423,0.646344,0.379893,-0.5559,0.359021,-0.951201,0.031251,0.123051,1.342773,17.63916,-3.90625,0,0
3533,2024 10 23,05:24:39.432,0.646344,0.379893,-0.5559,0.359021,-0.951201,0.031251,0.123051,1.342773,17.63916,-3.90625,0,0
3534,2024 10 23,05:24:39.440,0.647403,0.379424,-0.55475,0.359388,-0.950713,0.043947,0.157231,-2.197266,19.104004,-4.760742,0,0
3535,2024 10 23,05:24:39.448,0.648538,0.378944,-0.553481,0.359804,-0.935575,0.021973,0.127445,0.366211,20.141602,-4.821777,0,0
3536,2024 10 23,05:24:39.457,0.649686,0.378456,-0.552305,0.360054,-0.970733,0.027345,0.104495,-3.051758,18.371582,-6.04248,0,0
3537,2024 10 23,05:24:39.465,0.650908,0.377948,-0.551114,0.360204,-1.047395,-0.000977,0.112308,-3.112793,20.080566,-6.958008,0,0
3538,2024 10 23,05:24:39.473,0.65262,0.377241,-0.549592,0.360174,-0.984893,0.029298,0.139653,-7.568359,27.160645,-10.375977,0,0
3539,2024 10 23,05:24:39.482,0.65262,0.377241,-0.549592,0.360174,-0.984893,0.029298,0.139653,-7.568359,27.160645,-10.375977,0,0
3540,2024 10 23,05:24:39.490,0.654649,0.376356,-0.547719,0.360271,-0.935087,0.018555,0.137211,-6.713867,31.005859,-10.986328,0,0
3541,2024 10 23,05:24:39.498,0.656651,0.375475,-0.545864,0.360363,-0.92581,0.003906,0.166021,-7.141113,30.151367,-10.803223,0,0
3542,2024 10 23,05:24:39.507,0.658699,0.374486,-0.544027,0.36043,-0.989288,-0.000977,0.136723,-8.117676,31.005859,-10.009766,0,0
3543,2024 10 23,05:24:39.515,0.660871,0.373387,-0.542082,0.360526,-0.961943,0.016602,0.162114,-8.911133,34.057617,-10.314941,0,0
3544,2024 10 23,05:24:39.523,0.663127,0.372183,-0.53998,0.360782,-0.92581,-0.026856,0.172369,-8.728027,35.766602,-9.277344,0,0
3545,2024 10 23,05:24:39.532,0.665342,0.37093,-0.538069,0.360849,-0.922391,0.02588,0.19776,-9.765625,32.348633,-9.277344,0,0
3546,2024 10 23,05:24:39.540,0.665342,0.37093,-0.538069,0.360849,-0.922391,0.02588,0.19776,-9.765625,32.348633,-9.277344,0,0
3547,2024 10 23,05:24:39.548,0.667269,0.36995,-0.536326,0.360893,-0.996612,-0.009278,0.162603,-8.544922,27.954102,-10.009766,0,0
3548,2024 10 23,05:24:39.557,0.669215,0.369051,-0.534724,0.360587,-1.064486,0.004883,0.158696,-9.58252,27.34375,-12.939453,0,0
3549,2024 10 23,05:24:39.565,0.671542,0.368228,-0.532977,0.359687,-1.073275,0.077151,0.241707,-15.686035,26.733398,-22.644043,0,0
3550,2024 10 23,05:24:39.573,0.674194,0.367713,-0.530643,0.358703,-1.015656,-0.023927,0.156743,-12.023926,32.470703,-27.160645,0,0
3551,2024 10 23,05:24:39.582,0.676955,0.367298,-0.528489,0.357104,-1.07474,0.041017,0.226569,-15.563965,27.770996,-31.982422,0,0
3552,2024 10 23,05:24:39.590,0.676955,0.367298,-0.528489,0.357104,-1.07474,0.041017,0.226569,-15.563965,27.770996,-31.982422,0,0
3553,2024 10 23,05:24:39.598,0.679994,0.366955,-0.525703,0.355794,-1.061068,-0.037111,0.13184,-12.512207,37.536621,-33.813477,0,0
3554,2024 10 23,05:24:39.607,0.683159,0.366591,-0.522952,0.354155,-1.081088,-0.019532,0.163091,-14.282227,34.301758,-35.949707,0,0
3555,2024 10 23,05:24:39.615,0.686338,0.366349,-0.519922,0.352718,-1.130406,-0.046388,0.13184,-12.573242,38.757324,-36.071777,0,0
3556,2024 10 23,05:24:39.623,0.689741,0.365892,-0.516864,0.351046,-1.09183,-0.024903,0.149907,-12.390137,41.503906,-37.658691,0,0
3557,2024 10 23,05:24:39.632,0.693134,0.365615,-0.513575,0.349473,-1.236854,-0.011231,0.141118,-14.099121,39.001465,-41.381836,0,0
3558,2024 10 23,05:24:39.640,0.693134,0.365615,-0.513575,0.349473,-1.236854,-0.011231,0.141118,-14.099121,39.001465,-41.381836,0,0
3559,2024 10 23,05:24:39.648,0.696485,0.365903,-0.510465,0.347056,-1.168004,0.046388,0.186529,-8.850098,36.010742,-49.01123,0,0
3560,2024 10 23,05:24:39.657,0.699863,0.366871,-0.506959,0.344367,-1.219764,0.065432,0.291025,-4.455566,30.578613,-60.119629,0,0
3561,2024 10 23,05:24:39.665,0.703101,0.369047,-0.503312,0.34078,-1.383831,0.144047,0.397473,-3.173828,22.277832,-75.073242,0,0
3562,2024 10 23,05:24:39.673,0.70656,0.372141,-0.499062,0.336485,-1.409711,0.259774,0.686056,7.8125,27.526855,-90.148926,0,0
3563,2024 10 23,05:24:39.682,0.710778,0.376196,-0.492573,0.332631,-1.328166,0.172857,0.423841,20.751953,45.532227,-105.041504,0,0
3564,2024 10 23,05:24:39.690,0.710778,0.376196,-0.492573,0.332631,-1.328166,0.172857,0.423841,20.751953,45.532227,-105.041504,0,0
3565,2024 10 23,05:24:39.698,0.714683,0.381595,-0.485936,0.32784,-1.391156,0.172857,0.471694,28.076172,30.151367,-119.750977,0,0
3566,2024 10 23,05:24:39.707,0.718321,0.388593,-0.478732,0.322221,-1.598682,0.139653,0.472182,37.231445,27.709961,-137.451172,0,0
3567,2024 10 23,05:24:39.715,0.722444,0.396571,-0.470363,0.315539,-1.765191,0.116703,0.301279,45.288086,34.057617,-159.606934,0,0
3568,2024 10 23,05:24:39.723,0.727141,0.405579,-0.460618,0.307577,-1.963927,0.140141,0.30079,45.471191,39.18457,-186.279297,0,0
3569,2024 10 23,05:24:39.732,0.732895,0.415343,-0.448757,0.298283,-2.012757,0.158208,0.149419,49.377441,57.922363,-216.064453,0,0
3570,2024 10 23,05:24:39.740,0.732895,0.415343,-0.448757,0.298283,-2.012757,0.158208,0.149419,49.377441,57.922363,-216.064453,0,0
3571,2024 10 23,05:24:39.748,0.73946,0.426031,-0.435222,0.286842,-2.303781,0.198737,-0.066408,46.386719,55.847168,-251.708984,0,0
3572,2024 10 23,05:24:39.757,0.746489,0.437915,-0.420211,0.272778,-2.616779,0.070803,-0.087893,46.264648,62.62207,-290.649414,0,0
3573,2024 10 23,05:24:39.765,0.755362,0.449707,-0.401783,0.256441,-2.861415,0.067385,-0.310068,30.029297,93.261719,-333.740234,0,0
3574,2024 10 23,05:24:39.773,0.765709,0.461041,-0.380246,0.237791,-3.277932,0.007813,-0.381359,20.141602,116.577148,-372.253418,0,0
3575,2024 10 23,05:24:39.782,0.777468,0.471296,-0.354903,0.21787,-3.357524,0.049318,-0.288583,3.356934,160.827637,-403.015137,0,0
3576,2024 10 23,05:24:39.790,0.777468,0.471296,-0.354903,0.21787,-3.357524,0.049318,-0.288583,3.356934,160.827637,-403.015137,0,0
3577,2024 10 23,05:24:39.798,0.789857,0.480538,-0.325829,0.197599,-3.387311,-0.025391,-0.282723,1.098633,186.401367,-419.372559,0,0
3578,2024 10 23,05:24:39.807,0.802753,0.487031,-0.294107,0.178576,-3.365337,0.542009,0.462416,-15.258789,242.919922,-407.897949,0,0
3579,2024 10 23,05:24:39.815,0.816065,0.491249,-0.257017,0.16326,-2.186102,0.422864,-0.382336,1.586914,299.743652,-402.587891,0,0
3580,2024 10 23,05:24:39.823,0.826612,0.496113,-0.222867,0.144618,-2.273995,0.758812,-0.176763,-22.644043,228.149414,-417.96875,0,0
3581,2024 10 23,05:24:39.832,0.837034,0.498829,-0.18655,0.125467,-1.552782,0.974151,-0.43556,-8.544922,275.268555,-419.921875,0,1
3582,2024 10 23,05:24:39.840,0.837034,0.498829,-0.18655,0.125467,-1.552782,0.974151,-0.43556,-8.544922,275.268555,-419.921875,0,0
3583,2024 10 23,05:24:39.848,0.844385,0.502665,-0.149831,0.109054,-0.431165,0.809595,-1.176794,12.084961,267.63916,-379.882813,0,0
3584,2024 10 23,05:24:39.857,0.851017,0.502427,-0.118518,0.096387,1.33842,2.151433,-1.493698,-41.137695,234.985352,-287.719727,0,0
3585,2024 10 23,05:24:39.865,0.854756,0.501165,-0.10026,0.090408,1.323283,1.178259,-1.349162,1.159668,80.200195,-114.624023,0,0
3586,2024 10 23,05:24:39.873,0.855893,0.497825,-0.105625,0.091981,-0.795923,2.372143,0.599139,-41.259766,-33.26416,98.144531,0,0
3587,2024 10 23,05:24:39.882,0.85357,0.49721,-0.110323,0.109681,-0.915555,1.267617,-0.077639,46.020508,77.880859,221.252441,0,0
3588,2024 10 23,05:24:39.890,0.85357,0.49721,-0.110323,0.109681,-0.915555,1.267617,-0.077639,46.020508,77.880859,221.252441,0,0
3589,2024 10 23,05:24:39.898,0.849148,0.498276,-0.115025,0.132051,-0.736839,1.027375,-0.230476,75.805664,72.387695,245.910645,0,0
3590,2024 10 23,05:24:39.907,0.842509,0.502439,-0.119006,0.153532,-0.305185,0.592792,-0.689474,99.853516,69.213867,225.036621,0,0
3591,2024 10 23,05:24:39.915,0.834785,0.508135,-0.124471,0.171578,-0.374523,0.350108,-0.78811,118.530273,18.127441,205.078125,0,0
3592,2024 10 23,05:24:39.923,0.826422,0.514358,-0.13188,0.187271,-0.466811,0.356945,-0.561052,111.206055,-2.624512,198.120117,0,0
3593,2024 10 23,05:24:39.932,0.817829,0.519745,-0.139839,0.203632,-0.502945,0.388684,-0.645527,105.163574,-1.831055,214.294434,0,0
3594,2024 10 23,05:24:39.940,0.817829,0.519745,-0.139839,0.203632,-0.502945,0.388684,-0.645527,105.163574,-1.831055,214.294434,0,0
3595,2024 10 23,05:24:39.948,0.808718,0.524104,-0.149464,0.221249,-0.61916,0.373058,-0.531266,97.839355,-8.300781,240.356445,0,0
3596,2024 10 23,05:24:39.957,0.799204,0.526982,-0.160086,0.240698,-0.664571,0.275887,-0.603046,84.838867,0.061035,265.869141,0,0
3597,2024 10 23,05:24:39.965,0.789393,0.52814,-0.171897,0.261492,-0.620624,0.17188,-0.689474,69.274902,-2.502441,288.818359,0,0
3598,2024 10 23,05:24:39.973,0.779222,0.527736,-0.185708,0.282524,-0.595233,0.103519,-0.70217,50.78125,-17.028809,306.213379,0,0
3599,2024 10 23,05:24:39.982,0.768644,0.525977,-0.201823,0.302987,-0.627461,0.113773,-0.691916,32.531738,-39.794922,318.54248,0,0
3600,2024 10 23,05:24:39.990,0.757325,0.523305,-0.22038,0.322557,-0.783227,0.158208,-0.590838,20.507813,-64.697266,329.650879,0,0
3601,2024 10 23,05:24:39.998,0.757325,0.523305,-0.22038,0.322557,-0.783227,0.158208,-0.590838,20.507813,-64.697266,329.650879,0,0
3602,2024 10 23,05:24:40.007,0.745081,0.51996,-0.240462,0.341576,-1.008332,0.18067,-0.433119,16.113281,-77.392578,337.219238,0,0
3603,2024 10 23,05:24:40.015,0.731921,0.516164,-0.260658,0.360448,-1.152867,0.15772,-0.349132,18.981934,-77.209473,339.660645,0,0
3604,2024 10 23,05:24:40.023,0.717865,0.512121,-0.280199,0.379329,-1.180212,0.099124,-0.355968,25.695801,-73.120117,340.026855,0,0
3605,2024 10 23,05:24:40.032,0.702719,0.508069,-0.299342,0.398053,-1.200232,0.069826,-0.413099,33.691406,-76.782227,342.529297,0,0
3606,2024 10 23,05:24:40.040,0.686015,0.504323,-0.318717,0.416487,-1.301798,0.098148,-0.368175,44.006348,-88.256836,348.693848,0,0
3607,2024 10 23,05:24:40.048,0.686015,0.504323,-0.318717,0.416487,-1.301798,0.098148,-0.368175,44.006348,-88.256836,348.693848,0,0
3608,2024 10 23,05:24:40.057,0.667481,0.501063,-0.338057,0.434882,-1.411664,0.129887,-0.315928,59.692383,-95.825195,354.736328,0,0
3609,2024 10 23,05:24:40.065,0.647166,0.498395,-0.356838,0.45326,-1.503464,0.11475,-0.350597,78.125,-101.989746,356.933594,0,0
3610,2024 10 23,05:24:40.073,0.62497,0.496791,-0.375091,0.471082,-1.608448,0.068361,-0.352062,97.106934,-116.333008,354.370117,0,0
3611,2024 10 23,05:24:40.082,0.601021,0.496426,-0.392772,0.487919,-1.8399,0.049318,-0.386242,114.318848,-131.835938,347.961426,0,0
3612,2024 10 23,05:24:40.090,0.575339,0.497232,-0.409584,0.50397,-2.108463,-0.032716,-0.301767,134.216309,-142.76123,342.590332,0,0
3613,2024 10 23,05:24:40.098,0.575339,0.497232,-0.409584,0.50397,-2.108463,-0.032716,-0.301767,134.216309,-142.76123,342.590332,0,0
3614,2024 10 23,05:24:40.107,0.548521,0.498499,-0.42466,0.519891,-2.279855,-0.146977,-0.320322,153.686523,-135.986328,337.158203,0,0
3615,2024 10 23,05:24:40.115,0.520682,0.500126,-0.437917,0.535717,-2.343822,-0.366222,-0.385754,171.630859,-135.070801,331.970215,0,0
3616,2024 10 23,05:24:40.123,0.491678,0.502142,-0.449878,0.551104,-2.512772,-0.704123,-0.488784,183.837891,-138.244629,329.711914,0,0
3617,2024 10 23,05:24:40.132,0.461899,0.504212,-0.460714,0.565828,-2.702231,-1.093295,-0.48146,192.382813,-138.793945,326.171875,0,0
3618,2024 10 23,05:24:40.140,0.432294,0.506011,-0.469843,0.579933,-2.813562,-1.503464,-0.524918,196.594238,-128.356934,313.537598,0,0
3619,2024 10 23,05:24:40.148,0.432294,0.506011,-0.469843,0.579933,-2.813562,-1.503464,-0.524918,196.594238,-128.356934,313.537598,0,0
3620,2024 10 23,05:24:40.157,0.403966,0.507612,-0.476701,0.59321,-2.725669,-1.918516,-0.605487,198.303223,-112.731934,288.574219,0,0
3621,2024 10 23,05:24:40.165,0.377908,0.509378,-0.48089,0.605363,-2.388745,-2.195868,-0.781762,197.265625,-96.008301,251.098633,0,0
3622,2024 10 23,05:24:40.173,0.354028,0.512639,-0.483172,0.615151,-1.915097,-2.345775,-0.902371,190.246582,-107.23877,206.665039,0,0
3623,2024 10 23,05:24:40.182,0.331541,0.518582,-0.484745,0.621431,-1.482955,-2.329173,-0.802759,177.246094,-141.174316,165.344238,0,0
3624,2024 10 23,05:24:40.190,0.309157,0.528105,-0.48645,0.623613,-1.522507,-2.173406,-0.434095,169.128418,-195.861816,130.737305,0,0
3625,2024 10 23,05:24:40.198,0.309157,0.528105,-0.48645,0.623613,-1.522507,-2.173406,-0.434095,169.128418,-195.861816,130.737305,0,0
3626,2024 10 23,05:24:40.207,0.286914,0.540454,-0.487212,0.623068,-1.77984,-2.107486,0.117191,171.630859,-217.895508,98.876953,0,0
3627,2024 10 23,05:24:40.215,0.266143,0.552663,-0.485494,0.622918,-1.59331,-2.306223,0.30079,182.250977,-192.565918,77.880859,0,0
3628,2024 10 23,05:24:40.223,0.24828,0.563809,-0.481595,0.623332,-0.929716,-2.419996,0.688009,175.78125,-160.583496,47.363281,0,0
3629,2024 10 23,05:24:40.232,0.231087,0.577712,-0.476398,0.621202,-1.790582,-2.857021,0.632832,174.560547,-217.407227,13.61084,0,0
3630,2024 10 23,05:24:40.240,0.215851,0.592648,-0.470621,0.617003,-2.335521,-2.691977,1.553758,156.066895,-184.265137,-9.277344,0,0
3631,2024 10 23,05:24:40.248,0.215851,0.592648,-0.470621,0.617003,-2.335521,-2.691977,1.553758,156.066895,-184.265137,-9.277344,0,0
3632,2024 10 23,05:24:40.257,0.209717,0.598912,-0.461096,0.620253,-5.182775,-4.88052,1.063509,129.760742,1.586914,-44.311523,0,0
3633,2024 10 23,05:24:40.265,0.217081,0.609552,-0.439938,0.622717,-1.981506,-4.843898,0.261238,104.248047,65.063477,-249.450684,0,0
3634,2024 10 23,05:24:40.273,0.23673,0.619148,-0.418362,0.620957,-1.540086,-1.492721,0.897977,23.193359,71.655273,-315.979004,1,0
3635,2024 10 23,05:24:40.282,0.253636,0.619996,-0.400312,0.62532,-1.69097,0.528336,1.025422,41.809082,175.720215,-204.162598,0,0
3636,2024 10 23,05:24:40.290,0.266161,0.61524,-0.385148,0.634271,-1.237831,-0.125492,-0.937529,35.15625,179.56543,-141.052246,0,0
3637,2024 10 23,05:24:40.298,0.266161,0.61524,-0.385148,0.634271,-1.237831,-0.125492,-0.937529,35.15625,179.56543,-141.052246,0,0
3638,2024 10 23,05:24:40.307,0.277315,0.61759,-0.37555,0.632963,-0.929716,0.214362,0.474136,-5.981445,16.967773,-167.114258,0,0
3639,2024 10 23,05:24:40.315,0.286274,0.623174,-0.367267,0.628344,-0.995148,0.163091,0.199225,-6.591797,-13.73291,-157.104492,0,0
3640,2024 10 23,05:24:40.323,0.290524,0.630028,-0.361122,0.623098,-1.390667,-0.248543,-0.541032,23.193359,-65.673828,-106.689453,0,0
3641,2024 10 23,05:24:40.332,0.291579,0.636909,-0.35706,0.617929,-1.414594,0.058596,0.385754,19.714355,-53.771973,-75.683594,0,0
3642,2024 10 23,05:24:40.340,0.294243,0.639289,-0.352152,0.617025,-1.035188,-0.026856,-0.079104,18.676758,14.526367,-66.162109,0,0
3643,2024 10 23,05:24:40.348,0.294243,0.639289,-0.352152,0.617025,-1.035188,-0.026856,-0.079104,18.676758,14.526367,-66.162109,0,0
3644,2024 10 23,05:24:40.357,0.296613,0.641365,-0.347839,0.616182,-0.915555,-0.102054,-0.182134,17.822266,-6.04248,-55.053711,0,0
3645,2024 10 23,05:24:40.365,0.296637,0.644687,-0.345445,0.614047,-1.187048,-0.158696,0.015137,18.737793,-34.423828,-31.860352,0,0
3646,2024 10 23,05:24:40.373,0.297178,0.64616,-0.343664,0.613235,-1.290567,-0.046388,0.040529,7.385254,3.601074,-23.4375,0,0
3647,2024 10 23,05:24:40.382,0.298933,0.645113,-0.341317,0.614793,-1.20951,0.0,-0.042482,6.713867,40.100098,-18.737793,0,0
3648,2024 10 23,05:24:40.390,0.300517,0.643516,-0.338888,0.617035,-1.070345,0.009766,0.072268,9.277344,40.771484,-14.343262,0,0
3649,2024 10 23,05:24:40.398,0.300517,0.643516,-0.338888,0.617035,-1.070345,0.009766,0.072268,9.277344,40.771484,-14.343262,0,0
3650,2024 10 23,05:24:40.407,0.301824,0.642251,-0.336671,0.618925,-1.055696,0.011719,-0.046388,9.82666,32.226563,-13.85498,0,0
3651,2024 10 23,05:24:40.415,0.302743,0.641791,-0.334783,0.619977,-1.095248,0.059572,0.06299,8.605957,18.371582,-15.686035,0,0
3652,2024 10 23,05:24:40.423,0.303738,0.641464,-0.332738,0.620928,-1.041536,0.025391,0.107425,9.399414,20.690918,-18.371582,0,0
3653,2024 10 23,05:24:40.432,0.304909,0.640938,-0.330726,0.621972,-0.979522,-0.008789,0.019044,6.713867,21.30127,-17.028809,0,0
3654,2024 10 23,05:24:40.440,0.305862,0.640861,-0.329242,0.622371,-1.043489,0.014649,-0.004395,5.004883,8.850098,-15.74707,0,0
3655,2024 10 23,05:24:40.448,0.306635,0.641025,-0.32799,0.622482,-1.067415,-0.003906,0.053224,3.356934,7.263184,-14.831543,0,0
3656,2024 10 23,05:24:40.457,0.306635,0.641025,-0.32799,0.622482,-1.067415,-0.003906,0.053224,3.356934,7.263184,-14.831543,0,0
3657,2024 10 23,05:24:40.465,0.307646,0.640758,-0.326704,0.622934,-0.9888,-0.000977,0.097659,2.319336,14.770508,-13.73291,0,0
3658,2024 10 23,05:24:40.473,0.308853,0.64025,-0.325428,0.623527,-0.925321,0.037599,0.115238,0.305176,15.991211,-14.038086,0,0
3659,2024 10 23,05:24:40.482,0.309826,0.639779,-0.324242,0.624146,-0.990265,0.007324,0.152348,2.441406,15.197754,-11.230469,0,0
3660,2024 10 23,05:24:40.490,0.311043,0.638973,-0.32296,0.62503,-0.958525,0.041505,0.119144,-0.854492,21.850586,-11.901855,0,0
3661,2024 10 23,05:24:40.498,0.312134,0.638116,-0.321651,0.626036,-1.001007,0.00293,0.095706,3.417969,20.629883,-11.108398,0,0
3662,2024 10 23,05:24:40.507,0.312134,0.638116,-0.321651,0.626036,-1.001007,0.00293,0.095706,3.417969,20.629883,-11.108398,0,0
3663,2024 10 23,05:24:40.515,0.313438,0.637788,-0.320246,0.626438,-0.962432,0.037111,0.111332,0.488281,12.268066,-18.310547,0,0
3664,2024 10 23,05:24:40.523,0.314691,0.638228,-0.318766,0.626117,-1.000519,0.060549,0.262703,3.234863,1.708984,-23.132324,0,0
3665,2024 10 23,05:24:40.532,0.315899,0.638917,-0.316698,0.625856,-1.006378,0.007813,0.104984,6.04248,4.02832,-29.602051,0,0
3666,2024 10 23,05:24:40.540,0.317363,0.640001,-0.314598,0.625066,-1.042024,-0.012696,0.150395,8.666992,-2.075195,-33.203125,0,0
3667,2024 10 23,05:24:40.548,0.319036,0.641208,-0.312047,0.624255,-0.985382,-0.015137,0.128422,4.211426,0.488281,-39.611816,0,0
3668,2024 10 23,05:24:40.557,0.319036,0.641208,-0.312047,0.624255,-0.985382,-0.015137,0.128422,4.211426,0.488281,-39.611816,0,0
3669,2024 10 23,05:24:40.565,0.320975,0.642366,-0.309346,0.623415,-1.064974,-0.087893,-0.004395,6.04248,1.525879,-41.687012,0,0
3670,2024 10 23,05:24:40.573,0.323425,0.643386,-0.306697,0.622404,-1.047884,-0.06592,0.098148,2.807617,4.821777,-43.945313,0,0
3671,2024 10 23,05:24:40.582,0.326164,0.644144,-0.303816,0.621604,-1.016633,-0.044923,0.104495,-2.624512,9.460449,-47.241211,0,0
3672,2024 10 23,05:24:40.590,0.329098,0.644665,-0.300809,0.62098,-1.008332,-0.077639,0.041993,-0.427246,13.000488,-47.363281,0,0
3673,2024 10 23,05:24:40.598,0.332165,0.645132,-0.297818,0.620303,-1.022492,-0.078616,0.072268,-1.708984,13.122559,-48.095703,0,0
3674,2024 10 23,05:24:40.607,0.332165,0.645132,-0.297818,0.620303,-1.022492,-0.078616,0.072268,-1.708984,13.122559,-48.095703,0,0
3675,2024 10 23,05:24:40.615,0.335468,0.645429,-0.294858,0.61963,-1.044465,-0.069338,0.117679,-4.699707,16.113281,-49.316406,0,0
3676,2024 10 23,05:24:40.623,0.339026,0.645402,-0.291595,0.619265,-1.000031,-0.102054,0.056642,-5.79834,22.827148,-51.086426,0,0
3677,2024 10 23,05:24:40.632,0.342797,0.645209,-0.288369,0.618901,-0.95999,-0.053713,0.145512,-6.713867,22.521973,-51.208496,0,0
3678,2024 10 23,05:24:40.640,0.346428,0.645301,-0.2852,0.618251,-1.009308,-0.027345,0.239753,-5.493164,17.150879,-53.100586,0,0
3679,2024 10 23,05:24:40.648,0.350027,0.645529,-0.281651,0.617613,-1.02884,-0.073733,0.15479,-1.831055,18.615723,-56.213379,0,0
3680,2024 10 23,05:24:40.657,0.350027,0.645529,-0.281651,0.617613,-1.02884,-0.073733,0.15479,-1.831055,18.615723,-56.213379,0,0
3681,2024 10 23,05:24:40.665,0.353693,0.645994,-0.277891,0.616742,-1.07474,-0.072268,0.130375,-1.342773,15.563965,-59.814453,0,0
3682,2024 10 23,05:24:40.673,0.357485,0.646574,-0.273833,0.615762,-1.179235,-0.119633,0.092288,-0.244141,17.150879,-64.575195,0,0
3683,2024 10 23,05:24:40.682,0.361835,0.647074,-0.269394,0.614652,-1.212928,-0.10889,0.119633,-2.563477,20.812988,-71.411133,0,0
3684,2024 10 23,05:24:40.690,0.366718,0.647253,-0.264402,0.613737,-1.228553,-0.105472,0.127934,-3.479004,29.418945,-77.880859,0,0
3685,2024 10 23,05:24:40.698,0.372031,0.647251,-0.258764,0.612944,-1.219275,-0.080569,0.151372,-1.586914,33.996582,-84.716797,0,0
3686,2024 10 23,05:24:40.707,0.372031,0.647251,-0.258764,0.612944,-1.219275,-0.080569,0.151372,-1.586914,33.996582,-84.716797,0,0
3687,2024 10 23,05:24:40.715,0.37761,0.647448,-0.252437,0.611962,-1.222694,-0.058107,0.196295,2.13623,33.813477,-94.177246,0,0
3688,2024 10 23,05:24:40.723,0.383475,0.648087,-0.245381,0.610507,-1.293985,-0.02588,0.247078,5.371094,30.456543,-105.712891,0,0
3689,2024 10 23,05:24:40.732,0.389634,0.649212,-0.237411,0.60856,-1.368206,-0.003906,0.244636,11.413574,28.564453,-118.835449,0,0
3690,2024 10 23,05:24:40.740,0.396171,0.650891,-0.228339,0.606013,-1.449263,-0.011719,0.232917,17.028809,26.062012,-134.94873,0,0
3691,2024 10 23,05:24:40.748,0.403301,0.653014,-0.218007,0.602821,-1.492233,-0.016602,0.237312,21.30127,26.611328,-153.198242,0,0
3692,2024 10 23,05:24:40.757,0.403301,0.653014,-0.218007,0.602821,-1.492233,-0.016602,0.237312,21.30127,26.611328,-153.198242,0,0
3693,2024 10 23,05:24:40.765,0.411238,0.655485,-0.20623,0.598909,-1.597217,-0.006348,0.190435,25.268555,26.916504,-174.804688,0,0
3694,2024 10 23,05:24:40.773,0.420197,0.658223,-0.192855,0.594124,-1.770562,-0.006836,0.114261,26.550293,30.273438,-200.256348,0,0
3695,2024 10 23,05:24:40.782,0.430574,0.660842,-0.177578,0.588523,-1.992737,-0.048341,-0.020508,25.512695,39.123535,-229.675293,0,0
3696,2024 10 23,05:24:40.790,0.443016,0.662862,-0.160138,0.581985,-2.219794,-0.02588,-0.125004,17.883301,52.734375,-265.441895,0,0
3697,2024 10 23,05:24:40.798,0.457558,0.664231,-0.140484,0.574196,-2.593829,0.072756,-0.107913,12.390137,62.194824,-302.91748,0,0
3698,2024 10 23,05:24:40.807,0.457558,0.664231,-0.140484,0.574196,-2.593829,0.072756,-0.107913,12.390137,62.194824,-302.91748,0,0
3699,2024 10 23,05:24:40.815,0.473997,0.6643,-0.117882,0.565806,-2.882412,0.020997,-0.142094,9.70459,91.186523,-340.759277,0,0
3700,2024 10 23,05:24:40.823,0.492278,0.661989,-0.091643,0.557704,-2.935637,-0.120609,-0.387219,3.723145,133.117676,-376.159668,0,0
3701,2024 10 23,05:24:40.832,0.511873,0.65752,-0.062762,0.549285,-3.111911,-0.514176,-0.24366,0.183105,156.005859,-401.245117,0,0
3702,2024 10 23,05:24:40.840,0.532843,0.649692,-0.032076,0.541248,-3.218848,0.216803,0.273446,-30.151367,204.650879,-415.95459,0,0
3703,2024 10 23,05:24:40.848,0.551416,0.638622,0.000622,0.536751,-2.768151,-0.176763,-0.4214,6.958008,244.07959,-389.038086,0,0
3704,2024 10 23,05:24:40.857,0.551416,0.638622,0.000622,0.536751,-2.768151,-0.176763,-0.4214,6.958008,244.07959,-389.038086,0,0
3705,2024 10 23,05:24:40.865,0.568854,0.628033,0.03315,0.529982,-2.495193,-0.155278,-0.63918,7.141113,217.529297,-397.888184,0,0
3706,2024 10 23,05:24:40.873,0.587178,0.617114,0.064119,0.519886,-2.411695,0.430677,-0.1919,-19.104004,188.537598,-420.349121,0,0
3707,2024 10 23,05:24:40.882,0.605541,0.604783,0.096059,0.508262,-2.075259,0.615253,-0.504898,-14.709473,200.256348,-437.927246,0,0
3708,2024 10 23,05:24:40.890,0.623263,0.591449,0.12864,0.495159,-1.208045,0.783227,-1.049837,-13.061523,193.54248,-446.105957,0,1
3709,2024 10 23,05:24:40.898,0.639819,0.578031,0.158222,0.481121,-0.002442,0.918485,-1.277871,-23.4375,162.231445,-405.151367,0,0
3710,2024 10 23,05:24:40.907,0.654013,0.565042,0.179603,0.469828,1.348674,1.570849,-0.905301,-77.148438,120.849609,-296.99707,0,0
3711,2024 10 23,05:24:40.915,0.654013,0.565042,0.179603,0.469828,1.348674,1.570849,-0.905301,-77.148438,120.849609,-296.99707,0,0
3712,2024 10 23,05:24:40.923,0.661856,0.556246,0.189002,0.465635,1.293985,1.439985,-0.638203,-61.340332,33.081055,-92.712402,0,0
3713,2024 10 23,05:24:40.932,0.664,0.554115,0.179103,0.469023,-0.347179,2.238349,-0.178716,-64.758301,-50.964355,126.281738,0,0
3714,2024 10 23,05:24:40.940,0.655731,0.555996,0.16616,0.482986,-0.645527,1.473678,0.077639,-30.090332,11.901855,259.277344,0,0
3715,2024 10 23,05:24:40.948,0.642129,0.559477,0.151807,0.501608,-0.822291,0.93997,-0.164556,13.305664,19.348145,317.321777,0,0
3716,2024 10 23,05:24:40.957,0.626121,0.563552,0.138047,0.520887,-0.534684,0.78518,-0.409192,23.498535,29.174805,323.974609,0,0
3717,2024 10 23,05:24:40.965,0.626121,0.563552,0.138047,0.520887,-0.534684,0.78518,-0.409192,23.498535,29.174805,323.974609,0,0
3718,2024 10 23,05:24:40.973,0.609405,0.569286,0.124211,0.53769,-0.510758,0.529801,-0.502945,40.771484,-7.324219,310.119629,0,0
3719,2024 10 23,05:24:40.982,0.593033,0.576085,0.110082,0.551652,-0.554216,0.36671,-0.511246,48.522949,-26.977539,293.212891,0,0
3720,2024 10 23,05:24:40.990,0.576619,0.583044,0.095547,0.564306,-0.46437,0.418958,-0.603046,44.494629,-40.649414,292.541504,0,0
3721,2024 10 23,05:24:40.998,0.55931,0.590666,0.07904,0.576228,-0.552263,0.479019,-0.466323,43.823242,-61.950684,311.706543,0,0
3722,2024 10 23,05:24:41.007,0.540526,0.598337,0.060456,0.588362,-0.730003,0.473159,-0.402356,41.320801,-69.458008,337.219238,0,0
3723,2024 10 23,05:24:41.015,0.540526,0.598337,0.060456,0.588362,-0.730003,0.473159,-0.402356,41.320801,-69.458008,337.219238,0,0
3724,2024 10 23,05:24:41.023,0.520237,0.605448,0.040339,0.600965,-0.848659,0.337413,-0.439955,36.010742,-69.519043,357.971191,0,0
3725,2024 10 23,05:24:41.032,0.499148,0.611682,0.019032,0.613461,-0.872585,0.116214,-0.506363,26.550293,-71.472168,368.041992,0,0
3726,2024 10 23,05:24:41.040,0.47848,0.61708,-0.003526,0.624706,-0.879421,-0.022462,-0.529801,8.239746,-84.533691,364.074707,0,0
3727,2024 10 23,05:24:41.048,0.458921,0.622129,-0.027363,0.633718,-0.949736,-0.055666,-0.472182,-11.169434,-106.140137,352.050781,0,0
3728,2024 10 23,05:24:41.057,0.440561,0.62687,-0.052197,0.64048,-1.126011,-0.076174,-0.333018,-27.832031,-123.352051,338.623047,0,0
3729,2024 10 23,05:24:41.065,0.440561,0.62687,-0.052197,0.64048,-1.126011,-0.076174,-0.333018,-27.832031,-123.352051,338.623047,0,0
3730,2024 10 23,05:24:41.073,0.42319,0.631032,-0.077552,0.645519,-1.236854,-0.029298,-0.189947,-41.320801,-131.713867,327.758789,0,0
3731,2024 10 23,05:24:41.082,0.406109,0.634505,-0.103174,0.649487,-1.287149,0.023927,-0.083499,-47.241211,-135.620117,324.707031,0,0
3732,2024 10 23,05:24:41.090,0.388707,0.637653,-0.128985,0.652433,-1.39555,0.096194,0.027833,-46.813965,-143.554688,324.34082,0,0
3733,2024 10 23,05:24:41.098,0.370517,0.640832,-0.154441,0.654369,-1.509323,0.136723,0.119633,-38.024902,-150.817871,322.265625,0,0
3734,2024 10 23,05:24:41.107,0.351439,0.644037,-0.179022,0.655482,-1.629444,0.15479,0.099124,-24.780273,-154.907227,318.908691,0,0
3735,2024 10 23,05:24:41.115,0.351439,0.644037,-0.179022,0.655482,-1.629444,0.15479,0.099124,-24.780273,-154.907227,318.908691,0,0
3736,2024 10 23,05:24:41.123,0.331431,0.647512,-0.202517,0.655643,-1.766167,0.085452,0.089358,-11.047363,-162.04834,312.927246,0,0
3737,2024 10 23,05:24:41.132,0.310845,0.651161,-0.224946,0.654802,-1.897519,-0.104495,0.008789,-2.01416,-168.395996,306.091309,0,0
3738,2024 10 23,05:24:41.140,0.290076,0.655057,-0.246779,0.652577,-2.091861,-0.30372,0.036622,-0.793457,-179.321289,298.64502,0,0
3739,2024 10 23,05:24:41.148,0.26973,0.658802,-0.267838,0.649221,-2.205634,-0.522477,0.119633,-2.807617,-180.908203,286.499023,0,0
3740,2024 10 23,05:24:41.157,0.250386,0.662244,-0.287982,0.64483,-2.253975,-0.714866,0.17188,-8.056641,-182.312012,271.30127,0,0
3741,2024 10 23,05:24:41.165,0.250386,0.662244,-0.287982,0.64483,-2.253975,-0.714866,0.17188,-8.056641,-182.312012,271.30127,0,0
3742,2024 10 23,05:24:41.173,0.232011,0.665542,-0.307407,0.639317,-2.291085,-0.910672,0.345225,-14.099121,-184.509277,258.239746,0,0
3743,2024 10 23,05:24:41.182,0.214519,0.668367,-0.326261,0.633104,-2.339427,-1.189489,0.472182,-21.240234,-182.312012,250.305176,0,0
3744,2024 10 23,05:24:41.190,0.198089,0.670328,-0.344673,0.626596,-2.399487,-1.517624,0.576678,-28.076172,-171.447754,243.469238,0,0
3745,2024 10 23,05:24:41.198,0.183534,0.671195,-0.36201,0.620291,-2.36726,-1.873104,0.581072,-37.597656,-151.245117,225.158691,0,0
3746,2024 10 23,05:24:41.207,0.171721,0.671551,-0.37756,0.613986,-2.050355,-2.173406,0.525407,-46.75293,-134.155273,193.115234,0,0
3747,2024 10 23,05:24:41.215,0.171721,0.671551,-0.37756,0.613986,-2.050355,-2.173406,0.525407,-46.75293,-134.155273,193.115234,0,0
3748,2024 10 23,05:24:41.223,0.162697,0.672639,-0.391409,0.606535,-1.482467,-2.098697,0.766137,-59.814453,-139.465332,154.35791,0,0
3749,2024 10 23,05:24:41.232,0.155167,0.67607,-0.403296,0.596829,-1.244667,-1.800348,1.446821,-59.997559,-168.640137,112.243652,0,0
3750,2024 10 23,05:24:41.240,0.147815,0.681794,-0.412556,0.585752,-1.61626,-1.607471,2.167058,-40.527344,-189.880371,79.650879,0,0
3751,2024 10 23,05:24:41.248,0.140175,0.687081,-0.418527,0.577153,-2.256905,-1.957579,2.743736,-4.150391,-144.40918,67.077637,0,0
3752,2024 10 23,05:24:41.257,0.135977,0.686708,-0.420726,0.577003,-1.952696,-2.722251,2.019104,20.996094,-1.281738,57.556152,0,0
3753,2024 10 23,05:24:41.265,0.135977,0.686708,-0.420726,0.577003,-1.952696,-2.722251,2.019104,20.996094,-1.281738,57.556152,0,0
3754,2024 10 23,05:24:41.273,0.136873,0.682519,-0.420362,0.582005,-1.142613,-3.255959,0.867214,10.192871,70.3125,27.22168,0,0
3755,2024 10 23,05:24:41.282,0.141352,0.680364,-0.419445,0.584116,-2.571368,-3.496201,-0.253426,-30.578613,35.827637,-17.028809,0,0
3756,2024 10 23,05:24:41.290,0.153418,0.68789,-0.413802,0.576227,-2.58797,-2.274483,6.066591,-71.350098,-47.729492,-198.974609,0,0
3757,2024 10 23,05:24:41.298,0.178282,0.676455,-0.396154,0.594715,-1.448286,-2.185125,-1.035676,-54.931641,456.420898,-208.007813,1,0
3758,2024 10 23,05:24:41.307,0.212484,0.659857,-0.38441,0.609646,-0.289071,2.156804,-0.494644,-99.67041,333.190918,-203.796387,0,0
3759,2024 10 23,05:24:41.315,0.212484,0.659857,-0.38441,0.609646,-0.289071,2.156804,-0.494644,-99.67041,333.190918,-203.796387,0,0
3760,2024 10 23,05:24:41.323,0.22433,0.658943,-0.370254,0.615128,-2.160222,0.480972,-0.170415,15.197754,123.657227,-178.771973,0,0
3761,2024 10 23,05:24:41.332,0.239549,0.655533,-0.35541,0.621753,-1.418012,0.21778,-0.700217,48.828125,184.997559,-184.814453,0,0
3762,2024 10 23,05:24:41.340,0.248877,0.654665,-0.34001,0.627588,-1.287637,0.055666,1.002472,55.053711,115.905762,-152.526855,0,0
3763,2024 10 23,05:24:41.348,0.255614,0.652049,-0.327445,0.63425,-0.918973,-0.330088,-0.231452,52.55127,126.708984,-100.463867,0,0
3764,2024 10 23,05:24:41.357,0.258093,0.650735,-0.319456,0.638655,-0.782739,-0.35255,0.61623,51.452637,59.570313,-43.640137,0,0
3765,2024 10 23,05:24:41.365,0.259505,0.648345,-0.31441,0.643003,-0.792993,0.006348,0.291513,33.447266,71.289063,-19.958496,0,0
3766,2024 10 23,05:24:41.373,0.259505,0.648345,-0.31441,0.643003,-0.792993,0.006348,0.291513,33.447266,71.289063,-19.958496,0,0
3767,2024 10 23,05:24:41.382,0.258958,0.646859,-0.310549,0.646586,-0.849147,-0.249519,0.094241,37.963867,33.325195,-6.225586,0,0
3768,2024 10 23,05:24:41.390,0.259796,0.64599,-0.308338,0.648175,-0.960479,0.155766,0.149419,11.84082,29.907227,-15.075684,0,0
3769,2024 10 23,05:24:41.398,0.259752,0.645257,-0.305826,0.65011,-0.945341,-0.166021,-0.058107,23.254395,22.155762,-8.728027,0,0
3770,2024 10 23,05:24:41.407,0.260025,0.644781,-0.304496,0.651097,-0.962432,-0.034181,0.205573,6.591797,16.235352,-5.859375,0,0
3771,2024 10 23,05:24:41.415,0.260836,0.644,-0.303438,0.652038,-0.963408,0.127934,0.079104,3.356934,16.113281,-9.399414,0,0
3772,2024 10 23,05:24:41.423,0.260836,0.644,-0.303438,0.652038,-0.963408,0.127934,0.079104,3.356934,16.113281,-9.399414,0,0
3773,2024 10 23,05:24:41.432,0.261147,0.644139,-0.30212,0.652388,-0.999542,0.027345,0.173833,9.155273,3.417969,-12.634277,0,0
3774,2024 10 23,05:24:41.440,0.261582,0.644445,-0.300774,0.652534,-0.983917,0.021485,0.116703,8.361816,3.356934,-14.221191,0,0
3775,2024 10 23,05:24:41.448,0.262165,0.645268,-0.299421,0.652109,-0.959014,0.037111,0.159673,7.507324,-7.507324,-18.859863,0,0
3776,2024 10 23,05:24:41.457,0.262625,0.646681,-0.298233,0.651067,-1.040559,0.028321,0.096194,4.638672,-15.014648,-20.446777,0,0
3777,2024 10 23,05:24:41.465,0.263102,0.648159,-0.297144,0.649902,-1.071322,0.015625,0.055666,4.821777,-15.441895,-19.897461,0,0
3778,2024 10 23,05:24:41.473,0.263102,0.648159,-0.297144,0.649902,-1.071322,0.015625,0.055666,4.821777,-15.441895,-19.897461,0,0
3779,2024 10 23,05:24:41.482,0.263623,0.649509,-0.29612,0.648809,-1.065951,0.02295,0.059084,3.967285,-12.939453,-18.859863,0,0
3780,2024 10 23,05:24:41.490,0.264116,0.650587,-0.29513,0.64798,-1.013703,0.009766,0.081545,4.211426,-9.338379,-16.540527,0,0
3781,2024 10 23,05:24:41.498,0.264546,0.65156,-0.294272,0.647217,-1.00589,0.036134,0.083499,3.173828,-9.70459,-14.648438,0,0
3782,2024 10 23,05:24:41.507,0.264786,0.652521,-0.29343,0.646532,-1.014679,0.015137,0.075198,5.310059,-9.155273,-13.061523,0,0
3783,2024 10 23,05:24:41.515,0.265021,0.653329,-0.292592,0.645999,-1.04593,0.015625,0.039064,4.760742,-6.347656,-12.084961,0,0
3784,2024 10 23,05:24:41.523,0.265021,0.653329,-0.292592,0.645999,-1.04593,0.015625,0.039064,4.760742,-6.347656,-12.084961,0,0
3785,2024 10 23,05:24:41.532,0.26531,0.653925,-0.291698,0.645681,-1.047884,0.004395,0.020508,5.493164,-2.441406,-11.59668,0,0
3786,2024 10 23,05:24:41.540,0.265837,0.65419,-0.290776,0.645612,-1.059114,0.030274,0.0459,2.319336,3.234863,-12.084961,0,0
3787,2024 10 23,05:24:41.548,0.266669,0.654166,-0.289716,0.64577,-1.047395,0.014161,-0.00293,1.647949,7.93457,-14.587402,0,0
3788,2024 10 23,05:24:41.557,0.26779,0.653821,-0.288588,0.646161,-0.979522,0.034181,0.06885,0.976563,13.73291,-14.343262,0,0
3789,2024 10 23,05:24:41.565,0.268766,0.653236,-0.287397,0.646878,-0.959502,-0.014649,0.054689,1.403809,16.418457,-11.657715,0,0
3790,2024 10 23,05:24:41.573,0.268766,0.653236,-0.287397,0.646878,-0.959502,-0.014649,0.054689,1.403809,16.418457,-11.657715,0,0
3791,2024 10 23,05:24:41.582,0.270133,0.652575,-0.286325,0.647451,-0.996612,0.038575,0.066408,-3.723145,15.930176,-16.418457,0,0
3792,2024 10 23,05:24:41.590,0.271622,0.651913,-0.285001,0.648078,-0.931181,-0.038087,0.047853,-0.305176,18.615723,-16.296387,0,0
3793,2024 10 23,05:24:41.598,0.27341,0.651316,-0.283831,0.64844,-1.100131,-0.00293,0.036134,-7.751465,14.770508,-20.385742,0,0
3794,2024 10 23,05:24:41.607,0.275733,0.650683,-0.282405,0.648714,-0.992706,-0.014161,0.075686,-5.615234,21.30127,-25.390625,0,0
3795,2024 10 23,05:24:41.615,0.278105,0.65,-0.280744,0.649107,-0.992706,-0.053713,-0.001953,-6.896973,18.737793,-26.733398,0,0
3796,2024 10 23,05:24:41.623,0.278105,0.65,-0.280744,0.649107,-0.992706,-0.053713,-0.001953,-6.896973,18.737793,-26.733398,0,0
3797,2024 10 23,05:24:41.632,0.280731,0.649639,-0.27929,0.648966,-1.010285,-0.011719,0.158696,-10.070801,14.892578,-30.883789,0,0
3798,2024 10 23,05:24:41.640,0.283566,0.649123,-0.277461,0.649034,-0.932646,0.004883,0.125004,-10.803223,18.249512,-34.240723,0,0
3799,2024 10 23,05:24:41.648,0.286377,0.648829,-0.275651,0.648864,-0.98001,-0.076662,0.072756,-9.216309,13.916016,-33.813477,0,0
3800,2024 10 23,05:24:41.657,0.28945,0.648795,-0.274091,0.648196,-0.924345,0.01709,0.229011,-12.634277,9.216309,-36.987305,0,0
3801,2024 10 23,05:24:41.665,0.292288,0.648827,-0.272178,0.647696,-1.037629,-0.044923,0.13184,-10.192871,9.216309,-37.658691,0,0
3802,2024 10 23,05:24:41.673,0.292288,0.648827,-0.272178,0.647696,-1.037629,-0.044923,0.13184,-10.192871,9.216309,-37.658691,0,0
3803,2024 10 23,05:24:41.682,0.295406,0.648774,-0.270315,0.647115,-1.023957,-0.042482,0.179693,-9.033203,13.244629,-38.94043,0,0
3804,2024 10 23,05:24:41.690,0.298647,0.648612,-0.268083,0.646718,-1.040071,-0.032716,0.062502,-12.939453,13.549805,-42.419434,0,0
3805,2024 10 23,05:24:41.698,0.301928,0.64871,-0.265921,0.645988,-1.09476,-0.082034,0.113285,-7.8125,11.779785,-43.457031,0,0
3806,2024 10 23,05:24:41.707,0.305702,0.648482,-0.263587,0.645399,-1.086459,-0.044923,0.12891,-15.136719,17.822266,-47.607422,0,0
3807,2024 10 23,05:24:41.715,0.309702,0.648142,-0.26095,0.644904,-1.108921,-0.121586,0.000488,-12.634277,19.53125,-50.90332,0,0
3808,2024 10 23,05:24:41.723,0.309702,0.648142,-0.26095,0.644904,-1.108921,-0.121586,0.000488,-12.634277,19.53125,-50.90332,0,0
3809,2024 10 23,05:24:41.732,0.314262,0.647973,-0.258415,0.643889,-1.105014,-0.064455,0.144047,-18.737793,15.930176,-56.762695,0,0
3810,2024 10 23,05:24:41.740,0.319174,0.64768,-0.255488,0.642934,-1.088412,-0.080081,0.138676,-19.775391,20.019531,-62.194824,0,0
3811,2024 10 23,05:24:41.748,0.324451,0.647623,-0.25234,0.641592,-1.124546,-0.04883,0.136235,-19.65332,15.441895,-68.664551,0,0
3812,2024 10 23,05:24:41.757,0.329854,0.647943,-0.248849,0.639876,-1.146519,-0.060549,0.207526,-17.578125,12.329102,-75.073242,0,0
3813,2024 10 23,05:24:41.765,0.335687,0.648366,-0.244829,0.637962,-1.133335,-0.021973,0.196295,-16.845703,13.61084,-83.679199,0,0
3814,2024 10 23,05:24:41.773,0.34156,0.649242,-0.2402,0.635709,-1.117222,-0.006836,0.334483,-10.986328,9.216309,-91.125488,0,0
3815,2024 10 23,05:24:41.782,0.34156,0.649242,-0.2402,0.635709,-1.117222,-0.006836,0.334483,-10.986328,9.216309,-91.125488,0,0
3816,2024 10 23,05:24:41.790,0.347408,0.650188,-0.234653,0.633641,-1.102573,-0.003906,0.304697,-3.417969,15.380859,-97.167969,0,0
3817,2024 10 23,05:24:41.798,0.353176,0.651517,-0.22843,0.631357,-1.119663,-0.021973,0.238777,4.455566,10.375977,-103.393555,0,0
3818,2024 10 23,05:24:41.807,0.358662,0.653722,-0.221601,0.628413,-1.315958,-0.07178,0.247078,10.498047,1.159668,-111.572266,0,0
3819,2024 10 23,05:24:41.815,0.364655,0.655909,-0.213913,0.62534,-1.388714,-0.104984,0.100101,12.207031,9.399414,-123.046875,0,0
3820,2024 10 23,05:24:41.823,0.371341,0.6581,-0.205282,0.621988,-1.616749,-0.137211,0.023438,12.084961,13.183594,-137.390137,0,0
3821,2024 10 23,05:24:41.832,0.371341,0.6581,-0.205282,0.621988,-1.616749,-0.137211,0.023438,12.084961,13.183594,-137.390137,0,0
3822,2024 10 23,05:24:41.840,0.379263,0.659981,-0.19548,0.618362,-1.774468,-0.164068,-0.094729,9.155273,22.155762,-156.921387,0,0
3823,2024 10 23,05:24:41.848,0.388742,0.661539,-0.18428,0.614236,-1.847224,-0.224616,-0.224128,3.234863,31.311035,-181.884766,0,0
3824,2024 10 23,05:24:41.857,0.400211,0.662701,-0.171667,0.609252,-1.894101,-0.190435,-0.195318,-6.469727,38.024902,-210.266113,0,0
3825,2024 10 23,05:24:41.865,0.413816,0.663434,-0.157557,0.603148,-1.933164,-0.115726,-0.108402,-16.296387,41.748047,-242.431641,0,0
3826,2024 10 23,05:24:41.873,0.429636,0.66392,-0.141787,0.595416,-2.113834,-0.111332,-0.16895,-26.489258,42.907715,-280.395508,0,0
3827,2024 10 23,05:24:41.882,0.429636,0.66392,-0.141787,0.595416,-2.113834,-0.111332,-0.16895,-26.489258,42.907715,-280.395508,0,0
3828,2024 10 23,05:24:41.890,0.44802,0.664061,-0.124222,0.585551,-2.394604,-0.04004,-0.104984,-38.024902,41.015625,-323.669434,0,0
3829,2024 10 23,05:24:41.898,0.468554,0.663937,-0.104479,0.573349,-2.77694,0.125004,0.069826,-43.029785,40.710449,-367.553711,0,0
3830,2024 10 23,05:24:41.907,0.490587,0.663149,-0.081757,0.559351,-2.715903,0.18067,-0.077639,-33.813477,49.987793,-411.193848,0,0
3831,2024 10 23,05:24:41.915,0.512591,0.66248,-0.055884,0.543367,-2.659749,0.067873,0.173345,-19.165039,53.100586,-443.908691,0,0
3832,2024 10 23,05:24:41.923,0.534443,0.661008,-0.027628,0.526,-2.873135,0.004395,0.600604,0.488281,55.603027,-462.646484,0,0
3833,2024 10 23,05:24:41.932,0.534443,0.661008,-0.027628,0.526,-2.873135,0.004395,0.600604,0.488281,55.603027,-462.646484,0,0
3834,2024 10 23,05:24:41.940,0.555992,0.657269,0.000745,0.508792,-2.663167,0.050783,0.256355,-26.672363,74.707031,-456.115723,0,0
3835,2024 10 23,05:24:41.948,0.577018,0.652158,0.027878,0.49088,-2.323313,0.255867,-0.04297,-31.555176,69.091797,-454.528809,0,0
3836,2024 10 23,05:24:41.957,0.5974,0.646705,0.055068,0.471013,-1.770074,0.058596,-0.545915,-32.531738,49.194336,-464.96582,0,0
3837,2024 10 23,05:24:41.965,0.619229,0.639789,0.079779,0.448175,-0.887722,0.164068,-0.602069,-73.120117,18.859863,-468.505859,0,1
3838,2024 10 23,05:24:41.973,0.639891,0.632068,0.100332,0.425397,0.123539,-0.211921,-1.203162,-87.463379,-2.746582,-406.494141,0,0
3839,2024 10 23,05:24:41.982,0.639891,0.632068,0.100332,0.425397,0.123539,-0.211921,-1.203162,-87.463379,-2.746582,-406.494141,0,0
3840,2024 10 23,05:24:41.990,0.660795,0.622151,0.109688,0.405274,1.833064,0.949736,-2.405347,-212.524414,-62.194824,-291.015625,0,0
3841,2024 10 23,05:24:41.998,0.679714,0.612841,0.097063,0.391144,-0.184088,1.560106,-1.222205,-286.071777,-252.563477,-63.720703,0,0
3842,2024 10 23,05:24:42.007,0.695343,0.604654,0.066171,0.38277,-1.940001,2.107486,1.611377,-260.437012,-234.130859,101.501465,0,0
3843,2024 10 23,05:24:42.015,0.703659,0.591389,0.047959,0.390925,-0.879421,1.912656,0.152837,-255.004883,4.516602,132.080078,0,0
3844,2024 10 23,05:24:42.023,0.706946,0.583002,0.033697,0.399,-0.213385,1.208045,-0.013672,-124.389648,-49.316406,133.117676,0,0
3845,2024 10 23,05:24:42.032,0.706946,0.583002,0.033697,0.399,-0.213385,1.208045,-0.013672,-124.389648,-49.316406,133.117676,0,0
3846,2024 10 23,05:24:42.040,0.707731,0.579468,0.021118,0.403594,0.521012,1.325724,-0.147465,-76.171875,-53.894043,107.727051,0,0
3847,2024 10 23,05:24:42.048,0.704907,0.582091,0.008771,0.405214,0.305673,1.191931,-0.393078,-1.098633,-120.788574,109.680176,0,0
3848,2024 10 23,05:24:42.057,0.698657,0.589788,-0.005731,0.404964,-0.099612,1.092807,-0.095218,50.537109,-157.775879,127.624512,0,0
3849,2024 10 23,05:24:42.065,0.689305,0.599919,-0.021193,0.405595,-0.363292,0.950224,-0.301279,80.505371,-172.241211,156.25,0,0
3850,2024 10 23,05:24:42.073,0.677074,0.61208,-0.038737,0.406728,-0.589373,0.632344,-0.127934,102.233887,-192.138672,186.157227,0,0
3851,2024 10 23,05:24:42.082,0.677074,0.61208,-0.038737,0.406728,-0.589373,0.632344,-0.127934,102.233887,-192.138672,186.157227,0,0
3852,2024 10 23,05:24:42.090,0.663546,0.623701,-0.057167,0.40919,-0.664083,0.381848,-0.218757,99.243164,-181.70166,206.420898,0,0
3853,2024 10 23,05:24:42.098,0.649793,0.63415,-0.076949,0.411949,-0.697287,0.151372,-0.297372,79.772949,-191.40625,218.87207,0,0
3854,2024 10 23,05:24:42.107,0.636876,0.642953,-0.099261,0.413701,-0.798853,-0.018555,-0.199713,45.471191,-208.496094,227.294922,0,0
3855,2024 10 23,05:24:42.115,0.625712,0.649121,-0.124268,0.414347,-0.932157,-0.109867,-0.133305,-4.760742,-221.862793,233.398438,0,0
3856,2024 10 23,05:24:42.123,0.616831,0.652085,-0.15227,0.413663,-1.169469,-0.115238,0.04883,-61.767578,-234.25293,239.746094,0,0
3857,2024 10 23,05:24:42.132,0.616831,0.652085,-0.15227,0.413663,-1.169469,-0.115238,0.04883,-61.767578,-234.25293,239.746094,0,0
3858,2024 10 23,05:24:42.140,0.610495,0.651185,-0.182609,0.4122,-1.378948,-0.04883,0.291025,-119.445801,-229.370117,245.483398,0,0
3859,2024 10 23,05:24:42.148,0.606736,0.646017,-0.214048,0.410752,-1.461959,0.083987,0.473159,-170.898438,-209.472656,249.145508,0,0
3860,2024 10 23,05:24:42.157,0.605173,0.636978,-0.245732,0.409439,-1.371136,0.249519,0.564959,-211.181641,-188.171387,250.061035,0,0
3861,2024 10 23,05:24:42.165,0.604815,0.625176,-0.277672,0.407741,-1.294961,0.410169,0.583026,-238.220215,-180.603027,251.403809,0,0
3862,2024 10 23,05:24:42.173,0.604585,0.611573,-0.310063,0.40536,-1.278848,0.570818,0.65041,-252.746582,-181.945801,255.493164,0,0
3863,2024 10 23,05:24:42.182,0.604585,0.611573,-0.310063,0.40536,-1.278848,0.570818,0.65041,-252.746582,-181.945801,255.493164,0,0
3864,2024 10 23,05:24:42.190,0.603573,0.596903,-0.342703,0.402444,-1.352092,0.717307,0.72512,-254.150391,-185.791016,260.375977,0,0
3865,2024 10 23,05:24:42.198,0.601158,0.581862,-0.374919,0.399351,-1.435591,0.764672,0.798853,-243.103027,-188.232422,262.817383,0,0
3866,2024 10 23,05:24:42.207,0.597219,0.56692,-0.406037,0.396315,-1.523484,0.72219,0.758324,-225.891113,-186.462402,261.352539,0,0
3867,2024 10 23,05:24:42.215,0.591818,0.552432,-0.43581,0.393244,-1.629444,0.622578,0.683615,-207.946777,-187.438965,256.469727,0,0
3868,2024 10 23,05:24:42.223,0.585095,0.538584,-0.464322,0.389866,-1.734428,0.544939,0.667013,-191.772461,-190.185547,249.633789,0,0
3869,2024 10 23,05:24:42.232,0.577114,0.525296,-0.491674,0.386342,-1.875057,0.538591,0.692404,-175.65918,-192.687988,245.239258,0,0
3870,2024 10 23,05:24:42.240,0.577114,0.525296,-0.491674,0.386342,-1.875057,0.538591,0.692404,-175.65918,-192.687988,245.239258,0,0
3871,2024 10 23,05:24:42.248,0.567822,0.512606,-0.517744,0.383084,-1.94586,0.505387,0.795434,-156.005859,-192.077637,242.1875,0,0
3872,2024 10 23,05:24:42.257,0.557276,0.500702,-0.542265,0.380381,-1.987854,0.391125,0.953642,-134.155273,-189.758301,237.487793,0,0
