frame,date,time,quaternion_x,quaternion_y,quaternion_z,quaternion_w,accel_x,accel_y,accel_z,gyro_x,gyro_y,gyro_z,HS,TO
6600,2024 10 07,05:25:04.989,0.045913,-0.677106,0.00301,-0.734445,-1.165563,0.04297,-0.037111,8.972168,22.705078,-68.115234,0,0
6601,2024 10 07,05:25:04.997,0.051225,-0.678228,0.00666,-0.733034,-1.165563,0.038575,-0.046876,9.338379,15.74707,-76.599121,0,0
6602,2024 10 07,05:25:05.006,0.057164,-0.679156,0.010799,-0.731685,-1.185583,0.04297,-0.015137,11.230469,17.700195,-85.571289,0,0
6603,2024 10 07,05:25:05.014,0.063669,-0.680075,0.015353,-0.730211,-1.151402,0.007813,0.003418,11.657715,15.319824,-93.62793,0,0
6604,2024 10 07,05:25:05.022,0.070681,-0.68099,0.020244,-0.728593,-1.104526,-0.041993,0.080569,13.916016,19.40918,-99.914551,0,0
6605,2024 10 07,05:25:05.031,0.078344,-0.682216,0.024992,-0.726512,-1.092319,-0.074221,0.132328,20.202637,24.719238,-103.942871,0,0
6606,2024 10 07,05:25:05.039,0.078344,-0.682216,0.024992,-0.726512,-1.092319,-0.074221,0.132328,20.202637,24.719238,-103.942871,0,0
6607,2024 10 07,05:25:05.047,0.086773,-0.683686,0.029422,-0.724002,-1.060091,-0.082034,0.149907,29.35791,30.456543,-107.910156,0,0
6608,2024 10 07,05:25:05.056,0.09598,-0.685351,0.033396,-0.721087,-1.082064,-0.140141,0.18067,38.696289,36.437988,-110.778809,0,0
6609,2024 10 07,05:25:05.064,0.105857,-0.687037,0.036829,-0.717926,-1.07474,-0.144047,0.266121,48.76709,37.597656,-111.816406,0,0
6610,2024 10 07,05:25:05.072,0.11625,-0.688671,0.039738,-0.71459,-1.057161,-0.205573,0.267586,56.213379,39.367676,-112.243652,0,0
6611,2024 10 07,05:25:05.081,0.127179,-0.690289,0.042224,-0.711016,-1.054231,-0.290536,0.293954,64.331055,42.663574,-113.342285,0,0
6612,2024 10 07,05:25:05.089,0.127179,-0.690289,0.042224,-0.711016,-1.054231,-0.290536,0.293954,64.331055,42.663574,-113.342285,0,0
6613,2024 10 07,05:25:05.097,0.138705,-0.691704,0.043994,-0.707369,-1.070833,-0.157231,0.235359,75.98877,40.283203,-111.450195,0,0
6614,2024 10 07,05:25:05.106,0.150159,-0.692247,0.0447,-0.704449,-1.038118,0.135746,0.174322,84.594727,27.22168,-99.79248,0,0
6615,2024 10 07,05:25:05.114,0.160465,-0.691613,0.044034,-0.702839,-0.985382,0.365246,0.198737,87.219238,8.422852,-77.270508,0,0
6616,2024 10 07,05:25:05.122,0.169448,-0.690013,0.041974,-0.702429,-0.771508,0.563494,0.209479,91.064453,-5.92041,-56.518555,0,0
6617,2024 10 07,05:25:05.131,0.177333,-0.688128,0.038875,-0.702511,-0.742698,0.563982,0.272958,91.064453,-6.103516,-39.550781,0,0
6618,2024 10 07,05:25:05.139,0.183804,-0.686155,0.034428,-0.703009,-0.668477,0.746117,0.271004,88.928223,-11.169434,-14.526367,0,0
6619,2024 10 07,05:25:05.147,0.183804,-0.686155,0.034428,-0.703009,-0.668477,0.746117,0.271004,88.928223,-11.169434,-14.526367,0,0
6620,2024 10 07,05:25:05.156,0.188507,-0.684204,0.029095,-0.703906,-0.652364,0.760765,0.271493,82.946777,-11.413574,4.333496,0,0
6621,2024 10 07,05:25:05.164,0.19192,-0.682465,0.023529,-0.704879,-0.579119,0.757836,0.296884,73.730469,-8.728027,14.770508,0,0
6622,2024 10 07,05:25:05.172,0.194324,-0.681374,0.018014,-0.705438,-0.545427,0.763207,0.315439,63.537598,0.244141,21.484375,0,0
6623,2024 10 07,05:25:05.181,0.195604,-0.681156,0.012606,-0.705413,-0.573748,0.78225,0.282235,51.147461,12.145996,29.11377,0,0
6624,2024 10 07,05:25:05.189,0.195519,-0.681752,0.007314,-0.704935,-0.626484,0.792016,0.278817,37.17041,20.751953,38.391113,0,0
6625,2024 10 07,05:25:05.197,0.195519,-0.681752,0.007314,-0.704935,-0.626484,0.792016,0.278817,37.17041,20.751953,38.391113,0,0
6626,2024 10 07,05:25:05.206,0.193979,-0.683099,0.002263,-0.70409,-0.669942,0.754906,0.249031,21.911621,29.174805,47.241211,0,0
6627,2024 10 07,05:25:05.214,0.191104,-0.685183,-0.002465,-0.702849,-0.704123,0.700705,0.246101,7.446289,37.780762,54.321289,0,0
6628,2024 10 07,05:25:05.222,0.187079,-0.687993,-0.006882,-0.701156,-0.760765,0.649434,0.248543,-5.187988,46.508789,60.180664,0,0
6629,2024 10 07,05:25:05.231,0.182,-0.691431,-0.011016,-0.699055,-0.840846,0.595721,0.22364,-16.723633,53.466797,65.673828,0,0
6630,2024 10 07,05:25:05.239,0.175985,-0.695212,-0.014919,-0.696769,-0.890652,0.542009,0.21778,-26.123047,57.006836,71.228027,0,0
6631,2024 10 07,05:25:05.247,0.175985,-0.695212,-0.014919,-0.696769,-0.890652,0.542009,0.21778,-26.123047,57.006836,71.228027,0,0
6632,2024 10 07,05:25:05.256,0.169103,-0.699249,-0.018765,-0.694336,-0.949736,0.496109,0.203619,-33.38623,60.180664,77.880859,0,0
6633,2024 10 07,05:25:05.264,0.161415,-0.703399,-0.022746,-0.69185,-0.998077,0.448256,0.200201,-38.513184,61.401367,85.693359,0,0
6634,2024 10 07,05:25:05.272,0.153099,-0.707517,-0.026922,-0.689388,-1.043001,0.397473,0.187506,-41.381836,61.340332,92.102051,0,0
6635,2024 10 07,05:25:05.281,0.1444,-0.711489,-0.031284,-0.686989,-1.078158,0.341319,0.186529,-42.236328,59.936523,96.679688,0,0
6636,2024 10 07,05:25:05.289,0.135494,-0.715236,-0.035886,-0.684683,-1.09769,0.285165,0.190924,-41.259766,57.800293,100.891113,0,0
6637,2024 10 07,05:25:05.297,0.135494,-0.715236,-0.035886,-0.684683,-1.09769,0.285165,0.190924,-41.259766,57.800293,100.891113,0,0
6638,2024 10 07,05:25:05.306,0.126473,-0.718767,-0.040826,-0.682431,-1.109409,0.231452,0.19483,-39.001465,56.640625,105.163574,0,0
6639,2024 10 07,05:25:05.314,0.117404,-0.722118,-0.046151,-0.68017,-1.123081,0.188971,0.191412,-36.010742,55.786133,109.069824,0,0
6640,2024 10 07,05:25:05.322,0.108337,-0.725263,-0.05179,-0.677919,-1.126987,0.134281,0.200201,-33.26416,54.626465,111.816406,0,0
6641,2024 10 07,05:25:05.331,0.099357,-0.728234,-0.057679,-0.675631,-1.134312,0.08887,0.198248,-30.456543,54.016113,113.220215,0,0
6642,2024 10 07,05:25:05.339,0.090568,-0.731082,-0.063669,-0.673248,-1.1348,0.042482,0.190435,-27.954102,54.077148,112.426758,0,0
6643,2024 10 07,05:25:05.347,0.090568,-0.731082,-0.063669,-0.673248,-1.1348,0.042482,0.190435,-27.954102,54.077148,112.426758,0,0
6644,2024 10 07,05:25:05.356,0.082014,-0.733843,-0.069719,-0.670736,-1.132847,0.008301,0.182623,-25.390625,54.626465,111.51123,0,0
6645,2024 10 07,05:25:05.364,0.07362,-0.73655,-0.075853,-0.668072,-1.145054,-0.023438,0.16895,-23.376465,55.541992,111.26709,0,0
6646,2024 10 07,05:25:05.372,0.065397,-0.73917,-0.08202,-0.6653,-1.129429,-0.067385,0.149907,-21.54541,55.725098,110.351563,0,0
6647,2024 10 07,05:25:05.381,0.057395,-0.741779,-0.088168,-0.662341,-1.102084,-0.109867,0.132817,-19.775391,57.678223,108.581543,0,0
6648,2024 10 07,05:25:05.389,0.049621,-0.744413,-0.094304,-0.659161,-1.095248,-0.149419,0.086917,-17.700195,59.448242,106.933594,0,0
6649,2024 10 07,05:25:05.397,0.049621,-0.744413,-0.094304,-0.659161,-1.095248,-0.149419,0.086917,-17.700195,59.448242,106.933594,0,0
6650,2024 10 07,05:25:05.406,0.042142,-0.746953,-0.100348,-0.655908,-1.104526,-0.196295,0.037599,-15.74707,58.47168,103.820801,0,0
6651,2024 10 07,05:25:05.414,0.035075,-0.749307,-0.106209,-0.652709,-1.10062,-0.241707,-0.006836,-13.61084,56.335449,99.54834,0,0
6652,2024 10 07,05:25:05.422,0.028411,-0.751453,-0.111916,-0.649604,-1.09476,-0.266121,-0.034669,-11.291504,53.527832,96.191406,0,0
6653,2024 10 07,05:25:05.431,0.021999,-0.753344,-0.117583,-0.646656,-1.112827,-0.298349,-0.090823,-9.82666,49.560547,95.153809,0,0
6654,2024 10 07,05:25:05.439,0.015759,-0.754781,-0.123215,-0.644108,-1.147496,-0.345225,-0.126957,-9.338379,42.114258,94.482422,0,0
6655,2024 10 07,05:25:05.447,0.015759,-0.754781,-0.123215,-0.644108,-1.147496,-0.345225,-0.126957,-9.338379,42.114258,94.482422,0,0
6656,2024 10 07,05:25:05.456,0.009781,-0.755597,-0.12864,-0.642206,-1.147008,-0.420911,-0.170415,-9.338379,30.700684,91.430664,0,0
6657,2024 10 07,05:25:05.464,0.004287,-0.755723,-0.133713,-0.641081,-1.126499,-0.506851,-0.201178,-8.789063,18.615723,85.998535,0,0
6658,2024 10 07,05:25:05.472,-0.00064,-0.755222,-0.138402,-0.640691,-1.118686,-0.61037,-0.239265,-7.69043,6.652832,79.833984,0,0
6659,2024 10 07,05:25:05.481,-0.004894,-0.754049,-0.142727,-0.641105,-1.105502,-0.746117,-0.294443,-5.554199,-6.04248,73.425293,0,0
6660,2024 10 07,05:25:05.489,-0.008372,-0.75223,-0.146742,-0.642299,-1.093295,-0.893582,-0.324717,-2.197266,-18.798828,66.650391,0,0
6661,2024 10 07,05:25:05.497,-0.008372,-0.75223,-0.146742,-0.642299,-1.093295,-0.893582,-0.324717,-2.197266,-18.798828,66.650391,0,0
6662,2024 10 07,05:25:05.506,-0.01088,-0.749786,-0.150351,-0.64428,-1.065462,-1.069857,-0.35255,2.01416,-31.433105,57.067871,0,0
6663,2024 10 07,05:25:05.514,-0.01205,-0.746965,-0.153425,-0.646807,-1.232948,-1.35258,-0.30079,9.521484,-39.672852,42.724609,0,0
6664,2024 10 07,05:25:05.522,-0.007881,-0.74607,-0.154157,-0.647729,-1.557665,-1.933653,-1.181677,52.062988,-9.94873,-41.687012,0,0
6665,2024 10 07,05:25:05.531,0.001256,-0.742391,-0.151969,-0.652503,-1.251015,-2.431715,0.311533,53.833008,-77.209473,-80.505371,0,0
6666,2024 10 07,05:25:05.539,0.014106,-0.740551,-0.147981,-0.655352,-1.545946,-2.088931,-1.278359,75.622559,-77.087402,-119.32373,1,0
6667,2024 10 07,05:25:05.547,0.029424,-0.733638,-0.146334,-0.662945,-1.20072,0.34962,1.607959,123.657227,-137.512207,-101.074219,0,0
6668,2024 10 07,05:25:05.556,0.029424,-0.733638,-0.146334,-0.662945,-1.20072,0.34962,1.607959,123.657227,-137.512207,-101.074219,0,0
6669,2024 10 07,05:25:05.564,0.040374,-0.729233,-0.146491,-0.66718,-1.094272,0.687521,-0.596698,77.880859,-93.505859,-66.467285,0,0
6670,2024 10 07,05:25:05.572,0.049251,-0.723436,-0.145112,-0.673169,-0.945341,0.534196,1.136265,46.99707,-100.708008,-72.509766,0,0
6671,2024 10 07,05:25:05.581,0.05577,-0.718777,-0.140069,-0.678697,-1.267617,0.427259,0.0459,-7.568359,-114.196777,-85.327148,0,0
6672,2024 10 07,05:25:05.589,0.06014,-0.711483,-0.132437,-0.687485,-0.985382,-0.066897,0.198248,-36.804199,-137.390137,-77.331543,0,0
6673,2024 10 07,05:25:05.597,0.063484,-0.705336,-0.125989,-0.694693,-0.880886,-0.055177,-0.247078,-28.869629,-114.624023,-58.59375,0,0
6674,2024 10 07,05:25:05.606,0.063484,-0.705336,-0.125989,-0.694693,-0.880886,-0.055177,-0.247078,-28.869629,-114.624023,-58.59375,0,0
6675,2024 10 07,05:25:05.614,0.066384,-0.699294,-0.120737,-0.701429,-0.657735,0.07178,-0.41554,-21.179199,-103.69873,-50.537109,0,0
6676,2024 10 07,05:25:05.622,0.069723,-0.69473,-0.116502,-0.70634,-0.771996,-0.007813,-0.209967,-6.713867,-75.317383,-50.720215,0,0
6677,2024 10 07,05:25:05.631,0.073305,-0.691186,-0.113281,-0.709969,-0.905789,0.026368,-0.026856,1.403809,-61.218262,-44.799805,0,0
6678,2024 10 07,05:25:05.639,0.075934,-0.688023,-0.110516,-0.713193,-0.96878,0.070315,0.118168,-6.774902,-56.274414,-33.203125,0,0
6679,2024 10 07,05:25:05.647,0.077047,-0.685105,-0.107707,-0.716306,-0.972686,0.055666,0.041993,-17.272949,-52.001953,-22.399902,0,0
6680,2024 10 07,05:25:05.656,0.077047,-0.685105,-0.107707,-0.716306,-0.972686,0.055666,0.041993,-17.272949,-52.001953,-22.399902,0,0
6681,2024 10 07,05:25:05.664,0.077452,-0.682006,-0.105054,-0.719605,-0.862819,0.046876,-0.065432,-19.348145,-54.992676,-16.418457,0,0
6682,2024 10 07,05:25:05.672,0.077707,-0.679218,-0.102811,-0.722534,-0.813501,0.044435,-0.212409,-16.967773,-45.166016,-12.512207,0,0
6683,2024 10 07,05:25:05.681,0.077492,-0.677081,-0.100999,-0.724814,-0.841823,0.014649,-0.04883,-16.784668,-31.921387,-6.469727,0,0
6684,2024 10 07,05:25:05.689,0.077166,-0.675849,-0.099769,-0.726168,-0.901883,0.058596,-0.08594,-12.329102,-19.287109,-3.601074,0,0
6685,2024 10 07,05:25:05.697,0.076896,-0.674949,-0.098799,-0.727165,-0.931181,0.071291,-0.02002,-10.375977,-14.099121,-3.417969,0,0
6686,2024 10 07,05:25:05.706,0.076896,-0.674949,-0.098799,-0.727165,-0.931181,0.071291,-0.02002,-10.375977,-14.099121,-3.417969,0,0
6687,2024 10 07,05:25:05.714,0.076689,-0.674311,-0.09789,-0.727902,-0.921415,0.056642,-0.063967,-9.399414,-11.108398,-4.02832,0,0
6688,2024 10 07,05:25:05.722,0.076728,-0.673859,-0.097171,-0.728413,-0.918973,0.067385,-0.049318,-4.699707,-6.896973,-5.371094,0,0
6689,2024 10 07,05:25:05.731,0.077062,-0.673661,-0.096641,-0.72863,-0.947295,0.08594,-0.009766,-0.854492,-3.479004,-7.019043,0,0
6690,2024 10 07,05:25:05.739,0.07756,-0.673537,-0.096141,-0.728759,-0.967315,0.071291,-0.031739,0.061035,-3.78418,-8.178711,0,0
6691,2024 10 07,05:25:05.747,0.078241,-0.673327,-0.095741,-0.728933,-0.914579,0.04883,-0.061037,2.502441,-3.417969,-8.483887,0,0
6692,2024 10 07,05:25:05.756,0.078241,-0.673327,-0.095741,-0.728933,-0.914579,0.04883,-0.061037,2.502441,-3.417969,-8.483887,0,0
6693,2024 10 07,05:25:05.764,0.078987,-0.673221,-0.095494,-0.728982,-0.924833,0.044435,-0.041993,3.90625,-2.563477,-7.8125,0,0
6694,2024 10 07,05:25:05.772,0.079757,-0.673195,-0.095329,-0.728945,-0.938017,0.060549,-0.061525,4.699707,-0.488281,-7.69043,0,0
6695,2024 10 07,05:25:05.781,0.080561,-0.673203,-0.095208,-0.728865,-0.938017,0.072756,-0.04004,5.249023,-0.0,-7.93457,0,0
6696,2024 10 07,05:25:05.789,0.081454,-0.673246,-0.095075,-0.728743,-0.953154,0.075198,-0.025391,5.92041,-0.183105,-9.277344,0,0
6697,2024 10 07,05:25:05.797,0.082509,-0.673232,-0.094877,-0.728663,-0.960967,0.0918,-0.036134,6.713867,-1.464844,-11.169434,0,0
6698,2024 10 07,05:25:05.806,0.082509,-0.673232,-0.094877,-0.728663,-0.960967,0.0918,-0.036134,6.713867,-1.464844,-11.169434,0,0
6699,2024 10 07,05:25:05.814,0.08365,-0.673158,-0.094454,-0.728656,-0.944365,0.076662,-0.046876,4.821777,-2.319336,-13.73291,0,0
6700,2024 10 07,05:25:05.822,0.084926,-0.673146,-0.09388,-0.728594,-0.945341,0.078127,-0.029298,5.249023,-1.342773,-15.869141,0,0
6701,2024 10 07,05:25:05.831,0.086191,-0.673146,-0.09316,-0.728537,-0.945341,0.057619,-0.023438,3.234863,-2.075195,-16.540527,0,0
6702,2024 10 07,05:25:05.839,0.087391,-0.673097,-0.092341,-0.728544,-0.929716,0.052248,-0.033692,1.89209,-2.990723,-16.357422,0,0
6703,2024 10 07,05:25:05.847,0.088498,-0.673031,-0.091478,-0.72858,-0.923856,0.052248,-0.042482,1.098633,-2.929688,-15.74707,0,0
6704,2024 10 07,05:25:05.856,0.088498,-0.673031,-0.091478,-0.72858,-0.923856,0.052248,-0.042482,1.098633,-2.929688,-15.74707,0,0
6705,2024 10 07,05:25:05.864,0.089497,-0.672985,-0.090586,-0.728612,-0.939482,0.052736,-0.028321,-0.12207,-2.624512,-15.197754,0,0
6706,2024 10 07,05:25:05.872,0.090451,-0.672935,-0.089641,-0.728658,-0.955596,0.067385,-0.033204,-0.366211,-2.990723,-15.74707,0,0
6707,2024 10 07,05:25:05.881,0.091382,-0.672828,-0.088544,-0.728774,-0.93997,0.06592,-0.052248,-2.502441,-4.211426,-16.418457,0,0
6708,2024 10 07,05:25:05.889,0.09221,-0.672724,-0.087239,-0.728923,-0.950224,0.066408,-0.024903,-5.493164,-4.394531,-17.211914,0,0
6709,2024 10 07,05:25:05.897,0.092899,-0.672728,-0.08565,-0.729021,-0.959014,0.046388,-0.037599,-9.155273,-2.868652,-18.554688,0,0
6710,2024 10 07,05:25:05.906,0.092899,-0.672728,-0.08565,-0.729021,-0.959014,0.046388,-0.037599,-9.155273,-2.868652,-18.554688,0,0
6711,2024 10 07,05:25:05.914,0.093588,-0.672701,-0.083834,-0.729169,-0.952178,0.050783,-0.038087,-10.437012,-4.516602,-20.324707,0,0
6712,2024 10 07,05:25:05.922,0.094349,-0.672667,-0.081801,-0.729332,-0.956084,0.033692,-0.052736,-11.352539,-4.699707,-22.888184,0,0
6713,2024 10 07,05:25:05.931,0.09539,-0.672637,-0.079602,-0.729468,-0.953642,0.052248,-0.062502,-9.643555,-3.540039,-26.977539,0,0
6714,2024 10 07,05:25:05.939,0.096795,-0.672614,-0.077257,-0.729557,-0.996124,0.030763,-0.051759,-8.178711,-6.408691,-31.12793,0,0
6715,2024 10 07,05:25:05.947,0.098727,-0.672579,-0.074839,-0.729582,-0.990753,0.033204,-0.110843,-4.272461,-2.990723,-36.437988,0,0
6716,2024 10 07,05:25:05.956,0.101139,-0.672678,-0.072327,-0.729414,-0.982452,0.014649,-0.06299,-2.685547,-2.929688,-41.137695,0,0
6717,2024 10 07,05:25:05.964,0.101139,-0.672678,-0.072327,-0.729414,-0.982452,0.014649,-0.06299,-2.685547,-2.929688,-41.137695,0,0
6718,2024 10 07,05:25:05.972,0.103954,-0.672839,-0.069758,-0.72912,-0.994171,0.007324,-0.075686,1.159668,-1.403809,-44.921875,0,0
6719,2024 10 07,05:25:05.981,0.107128,-0.672878,-0.067124,-0.728871,-1.017609,0.013672,-0.063967,3.356934,-3.90625,-48.400879,0,0
6720,2024 10 07,05:25:05.989,0.110712,-0.672857,-0.064447,-0.728597,-0.988311,-0.00293,-0.04004,6.286621,-4.02832,-51.818848,0,0
6721,2024 10 07,05:25:05.997,0.114554,-0.67288,-0.061689,-0.72822,-0.999054,-0.013672,-0.086917,6.591797,-4.02832,-54.870605,0,0
6722,2024 10 07,05:25:06.006,0.118571,-0.672707,-0.058785,-0.727977,-0.983917,-0.007324,-0.054201,6.713867,-6.347656,-56.640625,0,0
6723,2024 10 07,05:25:06.014,0.118571,-0.672707,-0.058785,-0.727977,-0.983917,-0.007324,-0.054201,6.713867,-6.347656,-56.640625,0,0
6724,2024 10 07,05:25:06.022,0.122551,-0.672634,-0.055759,-0.727623,-1.021027,-0.029298,-0.054689,5.371094,-4.394531,-57.678223,0,0
6725,2024 10 07,05:25:06.031,0.126628,-0.672437,-0.052606,-0.727342,-0.998566,-0.029298,-0.003906,5.371094,-7.507324,-59.326172,0,0
6726,2024 10 07,05:25:06.039,0.130769,-0.672253,-0.049231,-0.727015,-1.102084,-0.013672,-0.056154,3.90625,-6.835938,-62.194824,0,0
6727,2024 10 07,05:25:06.047,0.135296,-0.671788,-0.045459,-0.726863,-1.152379,0.000488,-0.023438,4.272461,-12.634277,-69.396973,0,0
6728,2024 10 07,05:25:06.056,0.140407,-0.671138,-0.041079,-0.726755,-1.235878,0.034181,-0.078127,3.356934,-15.075684,-79.528809,0,0
6729,2024 10 07,05:25:06.064,0.140407,-0.671138,-0.041079,-0.726755,-1.235878,0.034181,-0.078127,3.356934,-15.075684,-79.528809,0,0
6730,2024 10 07,05:25:06.072,0.146113,-0.670176,-0.035738,-0.7268,-1.296426,0.061525,-0.047853,-0.183105,-21.30127,-92.651367,0,0
6731,2024 10 07,05:25:06.081,0.152493,-0.66908,-0.029238,-0.726789,-1.350627,0.098148,-0.082034,-4.455566,-24.414063,-107.849121,0,0
6732,2024 10 07,05:25:06.089,0.159531,-0.667951,-0.021305,-0.726593,-1.38432,0.079104,-0.094241,-11.962891,-22.277832,-125.732422,0,0
6733,2024 10 07,05:25:06.097,0.167704,-0.666789,-0.012001,-0.726033,-1.499557,0.131352,-0.082034,-13.183594,-27.160645,-147.583008,0,0
6734,2024 10 07,05:25:06.106,0.177308,-0.665258,-0.001253,-0.725253,-1.519578,0.115726,0.009766,-12.084961,-29.785156,-172.241211,0,0
6735,2024 10 07,05:25:06.114,0.177308,-0.665258,-0.001253,-0.725253,-1.519578,0.115726,0.009766,-12.084961,-29.785156,-172.241211,0,0
6736,2024 10 07,05:25:06.122,0.188692,-0.663301,0.010946,-0.724091,-1.678762,0.136235,0.00293,-9.216309,-36.804199,-199.768066,0,0
6737,2024 10 07,05:25:06.131,0.202151,-0.66031,0.02492,-0.722844,-1.87701,0.213385,0.068361,-5.249023,-45.898438,-233.276367,0,0
6738,2024 10 07,05:25:06.139,0.218177,-0.656285,0.040889,-0.721122,-2.247627,0.267586,0.128422,-1.77002,-59.387207,-273.986816,0,0
6739,2024 10 07,05:25:06.147,0.237006,-0.650209,0.059756,-0.719364,-2.677328,0.358898,0.221198,0.854492,-84.838867,-323.913574,0,0
6740,2024 10 07,05:25:06.156,0.258782,-0.641118,0.082177,-0.717807,-3.105564,0.316416,0.08887,1.586914,-120.056152,-379.272461,0,0
6741,2024 10 07,05:25:06.164,0.258782,-0.641118,0.082177,-0.717807,-3.105564,0.316416,0.08887,1.586914,-120.056152,-379.272461,0,0
6742,2024 10 07,05:25:06.172,0.283387,-0.629055,0.108327,-0.715714,-3.667592,0.124027,0.108402,-2.441406,-150.390625,-434.753418,0,0
6743,2024 10 07,05:25:06.181,0.309185,-0.612939,0.138132,-0.713883,-3.576769,-0.19483,0.374523,-10.009766,-201.23291,-470.76416,0,0
6744,2024 10 07,05:25:06.189,0.334953,-0.594334,0.170167,-0.711068,-3.28721,-0.52736,0.13477,-21.118164,-207.214355,-488.708496,0,1
6745,2024 10 07,05:25:06.197,0.360931,-0.574829,0.200675,-0.706421,-3.382427,0.019044,0.161138,2.319336,-201.23291,-482.23877,0,0
6746,2024 10 07,05:25:06.206,0.38467,-0.553048,0.230054,-0.702312,-3.381939,0.215827,0.236824,0.793457,-226.928711,-463.928223,0,0
6747,2024 10 07,05:25:06.214,0.38467,-0.553048,0.230054,-0.702312,-3.381939,0.215827,0.236824,0.793457,-226.928711,-463.928223,0,0
6748,2024 10 07,05:25:06.222,0.407119,-0.528519,0.258664,-0.698581,-2.621662,0.953642,0.989288,12.756348,-250.0,-455.200195,0,0
6749,2024 10 07,05:25:06.231,0.428883,-0.504147,0.285958,-0.692909,-2.012757,1.317423,1.172399,9.70459,-221.374512,-452.026367,0,0
6750,2024 10 07,05:25:06.239,0.451551,-0.48123,0.311186,-0.683873,-1.455122,1.38139,1.70513,18.798828,-175.65918,-458.435059,0,0
6751,2024 10 07,05:25:06.247,0.4764,-0.459977,0.333391,-0.671054,-0.923368,1.30668,1.524461,43.334961,-110.778809,-476.501465,0,0
6752,2024 10 07,05:25:06.256,0.503292,-0.440207,0.351671,-0.655166,0.936064,0.023438,0.606464,60.546875,-52.429199,-444.335938,0,0
6753,2024 10 07,05:25:06.264,0.503292,-0.440207,0.351671,-0.655166,0.936064,0.023438,0.606464,60.546875,-52.429199,-444.335938,0,0
6754,2024 10 07,05:25:06.272,0.522067,-0.42872,0.356007,-0.645682,1.696829,2.10358,1.373577,89.050293,41.870117,-185.424805,0,0
6755,2024 10 07,05:25:06.281,0.527194,-0.43362,0.3461,-0.643626,-0.22364,2.535233,0.312998,43.457031,147.460938,87.280273,0,0
6756,2024 10 07,05:25:06.289,0.517366,-0.446444,0.332023,-0.650216,-1.770074,1.743217,0.520035,-10.253906,78.24707,264.038086,0,0
6757,2024 10 07,05:25:06.297,0.496306,-0.45858,0.321118,-0.663527,-1.416059,1.037629,0.778344,-55.969238,-13.000488,342.041016,0,0
6758,2024 10 07,05:25:06.306,0.472107,-0.470048,0.31097,-0.67784,-0.838893,0.681173,0.599628,-63.354492,-31.738281,353.57666,0,0
6759,2024 10 07,05:25:06.314,0.472107,-0.470048,0.31097,-0.67784,-0.838893,0.681173,0.599628,-63.354492,-31.738281,353.57666,0,0
6760,2024 10 07,05:25:06.322,0.448579,-0.479726,0.301387,-0.691234,-0.104007,0.431166,0.929228,-50.78125,-22.583008,329.711914,0,0
6761,2024 10 07,05:25:06.331,0.429538,-0.490926,0.289327,-0.700556,0.090823,0.2837,0.801782,-23.925781,49.743652,294.067383,0,0
6762,2024 10 07,05:25:06.339,0.414796,-0.503935,0.274336,-0.706211,0.018067,0.28956,0.807642,1.708984,111.572266,268.005371,0,0
6763,2024 10 07,05:25:06.347,0.402893,-0.519146,0.256187,-0.708896,-0.330088,0.457533,0.579119,20.812988,165.771484,259.643555,0,0
6764,2024 10 07,05:25:06.356,0.391344,-0.53486,0.236375,-0.710564,-0.702658,0.627461,0.423353,25.939941,171.875,264.648438,0,0
6765,2024 10 07,05:25:06.364,0.378325,-0.550061,0.216018,-0.712488,-0.939482,0.704611,0.268075,21.42334,162.597656,280.029297,0,0
6766,2024 10 07,05:25:06.372,0.378325,-0.550061,0.216018,-0.712488,-0.939482,0.704611,0.268075,21.42334,162.597656,280.029297,0,0
6767,2024 10 07,05:25:06.381,0.362711,-0.564376,0.195691,-0.71528,-1.011261,0.644063,0.215827,9.216309,140.991211,303.344727,0,0
6768,2024 10 07,05:25:06.389,0.344402,-0.578053,0.175081,-0.718741,-0.953154,0.535173,0.175298,-1.464844,130.126953,328.857422,0,0
6769,2024 10 07,05:25:06.397,0.323977,-0.591491,0.153908,-0.722142,-0.902371,0.405286,0.224616,-8.728027,129.821777,348.022461,0,0
6770,2024 10 07,05:25:06.406,0.30247,-0.605259,0.131841,-0.724425,-0.957549,0.308603,0.254891,-10.375977,144.836426,357.788086,0,0
6771,2024 10 07,05:25:06.414,0.280639,-0.619698,0.108928,-0.724811,-1.103061,0.264657,0.270028,-10.192871,167.297363,359.25293,0,0
6772,2024 10 07,05:25:06.422,0.280639,-0.619698,0.108928,-0.724811,-1.103061,0.264657,0.270028,-10.192871,167.297363,359.25293,0,0
6773,2024 10 07,05:25:06.431,0.258763,-0.634851,0.085371,-0.722992,-1.329142,0.278817,0.203619,-10.620117,190.002441,357.23877,0,0
6774,2024 10 07,05:25:06.439,0.236551,-0.650032,0.061835,-0.719499,-1.5562,0.312021,0.174322,-16.479492,199.279785,354.675293,0,0
6775,2024 10 07,05:25:06.447,0.213675,-0.664822,0.038741,-0.71474,-1.770562,0.318369,0.072756,-26.245117,201.843262,353.149414,0,0
6776,2024 10 07,05:25:06.456,0.189872,-0.678794,0.016369,-0.709168,-1.908261,0.302744,0.067873,-37.902832,199.890137,353.57666,0,0
6777,2024 10 07,05:25:06.464,0.165002,-0.692035,-0.005422,-0.702732,-2.073305,0.168462,0.097659,-49.01123,199.401855,356.994629,0,0
6778,2024 10 07,05:25:06.472,0.165002,-0.692035,-0.005422,-0.702732,-2.073305,0.168462,0.097659,-49.01123,199.401855,356.994629,0,0
6779,2024 10 07,05:25:06.481,0.1391,-0.704581,-0.027012,-0.695332,-2.266182,-0.119144,0.134281,-56.213379,202.575684,364.379883,0,0
6780,2024 10 07,05:25:06.489,0.112314,-0.716426,-0.049109,-0.68681,-2.509354,-0.511734,0.139653,-55.786133,206.604004,377.868652,0,0
6781,2024 10 07,05:25:06.497,0.084896,-0.726881,-0.072101,-0.677671,-2.701254,-0.949248,0.110355,-51.391602,200.073242,392.63916,0,0
6782,2024 10 07,05:25:06.506,0.057773,-0.735398,-0.095455,-0.668387,-2.781823,-1.458052,-0.011719,-44.067383,185.546875,394.287109,0,0
6783,2024 10 07,05:25:06.514,0.03206,-0.742129,-0.118067,-0.658997,-2.854091,-1.952208,-0.187506,-37.04834,172.119141,378.601074,0,0
6784,2024 10 07,05:25:06.522,0.03206,-0.742129,-0.118067,-0.658997,-2.854091,-1.952208,-0.187506,-37.04834,172.119141,378.601074,0,0
6785,2024 10 07,05:25:06.531,0.008401,-0.747241,-0.138681,-0.649867,-2.75985,-2.435621,-0.331553,-36.193848,155.883789,348.388672,0,0
6786,2024 10 07,05:25:06.539,-0.012801,-0.751557,-0.156132,-0.640798,-2.571856,-2.828211,-0.507828,-41.137695,147.705078,303.527832,0,0
6787,2024 10 07,05:25:06.547,-0.031322,-0.755828,-0.169248,-0.631742,-2.132389,-3.158299,-0.736839,-51.757813,147.033691,245.849609,0,0
6788,2024 10 07,05:25:06.556,-0.047477,-0.760976,-0.177161,-0.622314,-1.854549,-3.518174,-1.174841,-69.580078,156.433105,182.373047,0,0
6789,2024 10 07,05:25:06.564,-0.060924,-0.766704,-0.179623,-0.613343,-1.519089,-3.695914,-1.386761,-83.068848,150.695801,113.647461,0,0
6790,2024 10 07,05:25:06.572,-0.060924,-0.766704,-0.179623,-0.613343,-1.519089,-3.695914,-1.386761,-83.068848,150.695801,113.647461,0,0
6791,2024 10 07,05:25:06.581,-0.071351,-0.772719,-0.176555,-0.60551,-1.624561,-4.778466,-1.766167,-98.754883,144.348145,45.776367,0,0
6792,2024 10 07,05:25:06.589,-0.076871,-0.779505,-0.170561,-0.597806,-2.100162,-4.64858,-1.458541,-63.415527,138.73291,-7.8125,0,0
6793,2024 10 07,05:25:06.597,-0.064146,-0.793456,-0.158505,-0.584114,-4.60268,-3.571886,-7.041719,95.581055,231.933594,-266.113281,0,0
6794,2024 10 07,05:25:06.606,-0.042516,-0.782668,-0.13517,-0.606095,-2.150944,-2.962004,0.472671,12.634277,-337.524414,-352.783203,1,0
6795,2024 10 07,05:25:06.614,-0.020633,-0.771057,-0.115054,-0.625945,-1.771538,2.050355,0.78811,-16.357422,-257.8125,-296.386719,0,0
6796,2024 10 07,05:25:06.622,-0.020633,-0.771057,-0.115054,-0.625945,-1.771538,2.050355,0.78811,-16.357422,-257.8125,-296.386719,0,0
6797,2024 10 07,05:25:06.631,-0.012365,-0.761117,-0.09364,-0.641701,-1.940489,0.39552,0.305673,-53.344727,-214.538574,-244.384766,0,0
6798,2024 10 07,05:25:06.639,-0.002589,-0.750804,-0.076571,-0.656067,-1.564013,-0.624531,-1.654836,-61.157227,-218.261719,-199.21875,0,0
6799,2024 10 07,05:25:06.647,0.006473,-0.73704,-0.06375,-0.672804,-0.958525,-0.579608,0.306162,-32.897949,-236.633301,-147.155762,0,0
6800,2024 10 07,05:25:06.656,0.011988,-0.728125,-0.055978,-0.68305,-1.283731,-0.182623,0.111332,-19.53125,-144.958496,-80.810547,0,0
6801,2024 10 07,05:25:06.664,0.012332,-0.718453,-0.049803,-0.693681,-0.953642,0.108402,0.227546,-62.805176,-174.316406,-38.452148,0,0
6802,2024 10 07,05:25:06.672,0.012332,-0.718453,-0.049803,-0.693681,-0.953642,0.108402,0.227546,-62.805176,-174.316406,-38.452148,0,0
6803,2024 10 07,05:25:06.681,0.010526,-0.708569,-0.043085,-0.704246,-0.916532,-0.057131,0.117679,-72.265625,-161.743164,-33.38623,0,0
6804,2024 10 07,05:25:06.689,0.009228,-0.699372,-0.037131,-0.713733,-0.895535,-0.142094,-0.298837,-58.959961,-149.108887,-29.541016,0,0
6805,2024 10 07,05:25:06.697,0.007655,-0.690138,-0.032495,-0.722908,-0.7051,-0.011231,-0.038575,-50.90332,-141.235352,-15.319824,0,0
6806,2024 10 07,05:25:06.706,0.006269,-0.683963,-0.028805,-0.728921,-0.903348,0.101566,-0.214362,-40.161133,-87.219238,-15.686035,0,0
6807,2024 10 07,05:25:06.714,0.005389,-0.678648,-0.025583,-0.733998,-0.562029,-0.177252,-0.405286,-29.47998,-80.810547,-15.74707,0,0
6808,2024 10 07,05:25:06.722,0.005389,-0.678648,-0.025583,-0.733998,-0.562029,-0.177252,-0.405286,-29.47998,-80.810547,-15.74707,0,0
6809,2024 10 07,05:25:06.731,0.006039,-0.675919,-0.024173,-0.736554,-0.809595,0.127934,-0.067385,-3.967285,-27.160645,-13.671875,0,0
6810,2024 10 07,05:25:06.739,0.006522,-0.674767,-0.022881,-0.737647,-0.91702,0.02588,-0.145024,-5.310059,-19.775391,-15.50293,0,0
6811,2024 10 07,05:25:06.747,0.007796,-0.673802,-0.021917,-0.738546,-0.931669,0.041017,0.026856,1.586914,-11.962891,-18.920898,0,0
6812,2024 10 07,05:25:06.756,0.009497,-0.673374,-0.021031,-0.738942,-0.915555,0.083987,-0.157231,6.713867,-8.056641,-22.033691,0,0
6813,2024 10 07,05:25:06.764,0.011284,-0.67299,-0.020131,-0.739291,-0.894559,0.023438,-0.035157,7.385254,-3.112793,-21.911621,0,0
6814,2024 10 07,05:25:06.772,0.013141,-0.673115,-0.019345,-0.739168,-0.970244,0.026368,-0.050295,6.103516,0.915527,-22.216797,0,0
6815,2024 10 07,05:25:06.781,0.013141,-0.673115,-0.019345,-0.739168,-0.970244,0.026368,-0.050295,6.103516,0.915527,-22.216797,0,0
6816,2024 10 07,05:25:06.789,0.015023,-0.673054,-0.018574,-0.739207,-0.974639,0.045412,-0.035157,8.361816,-2.380371,-21.606445,0,0
6817,2024 10 07,05:25:06.797,0.016783,-0.672753,-0.017835,-0.739462,-0.921415,0.056154,-0.051271,6.835938,-5.493164,-20.446777,0,0
6818,2024 10 07,05:25:06.806,0.018298,-0.67245,-0.016985,-0.739721,-0.919462,0.077639,-0.080569,3.90625,-4.882813,-19.40918,0,0
6819,2024 10 07,05:25:06.814,0.019527,-0.672337,-0.015965,-0.739816,-0.895047,0.051759,-0.101077,-0.183105,-1.464844,-18.188477,0,0
6820,2024 10 07,05:25:06.822,0.020532,-0.672412,-0.014825,-0.739744,-0.912625,0.045412,-0.071291,-2.685547,2.01416,-17.211914,0,0
6821,2024 10 07,05:25:06.831,0.020532,-0.672412,-0.014825,-0.739744,-0.912625,0.045412,-0.071291,-2.685547,2.01416,-17.211914,0,0
6822,2024 10 07,05:25:06.839,0.02134,-0.672684,-0.013614,-0.739497,-0.920927,0.038575,-0.055177,-4.516602,4.211426,-16.235352,0,0
6823,2024 10 07,05:25:06.847,0.022014,-0.672989,-0.012355,-0.739221,-0.947295,0.044435,-0.057131,-5.615234,4.150391,-15.441895,0,0
6824,2024 10 07,05:25:06.856,0.02253,-0.673113,-0.011018,-0.739114,-0.927274,0.035157,-0.056642,-8.483887,0.610352,-14.831543,0,0
6825,2024 10 07,05:25:06.864,0.022993,-0.673297,-0.009548,-0.738953,-0.915067,0.046876,-0.111332,-9.70459,3.173828,-15.991211,0,0
6826,2024 10 07,05:25:06.872,0.023463,-0.673539,-0.007906,-0.738737,-0.941435,0.059084,-0.085452,-9.82666,4.394531,-17.883301,0,0
6827,2024 10 07,05:25:06.881,0.023463,-0.673539,-0.007906,-0.738737,-0.941435,0.059084,-0.085452,-9.82666,4.394531,-17.883301,0,0
6828,2024 10 07,05:25:06.889,0.0242,-0.674074,-0.006087,-0.738242,-0.948271,0.030763,-0.109867,-10.498047,8.239746,-21.728516,0,0
6829,2024 10 07,05:25:06.897,0.025192,-0.67466,-0.004131,-0.737687,-0.94583,0.021973,-0.078127,-8.850098,9.460449,-24.719238,0,0
6830,2024 10 07,05:25:06.906,0.026584,-0.675475,-0.002111,-0.7369,-0.975616,0.025391,-0.06885,-5.432129,13.061523,-29.052734,0,0
6831,2024 10 07,05:25:06.914,0.028314,-0.676196,-9.3e-05,-0.736177,-0.933622,-0.000488,-0.086917,-3.78418,10.009766,-31.25,0,0
6832,2024 10 07,05:25:06.922,0.030318,-0.676836,0.001844,-0.735507,-0.96585,0.006836,-0.090823,-0.12207,10.375977,-32.897949,0,0
6833,2024 10 07,05:25:06.931,0.030318,-0.676836,0.001844,-0.735507,-0.96585,0.006836,-0.090823,-0.12207,10.375977,-32.897949,0,0
6834,2024 10 07,05:25:06.939,0.032551,-0.677209,0.003718,-0.735061,-0.980499,-0.02295,-0.06006,1.647949,3.90625,-34.057617,0,0
6835,2024 10 07,05:25:06.947,0.03503,-0.677193,0.005479,-0.734951,-0.952178,-0.018067,-0.046388,4.699707,-0.549316,-34.790039,0,0
6836,2024 10 07,05:25:06.956,0.037623,-0.676984,0.007125,-0.735001,-0.948759,-0.032716,-0.034669,7.019043,-3.723145,-34.729004,0,0
6837,2024 10 07,05:25:06.964,0.040294,-0.676571,0.008634,-0.735223,-0.937529,-0.041017,-0.049318,8.300781,-6.469727,-34.057617,0,0
6838,2024 10 07,05:25:06.972,0.043034,-0.675968,0.00999,-0.735606,-0.941435,-0.039552,-0.028809,10.620117,-9.033203,-33.508301,0,0
6839,2024 10 07,05:25:06.981,0.043034,-0.675968,0.00999,-0.735606,-0.941435,-0.039552,-0.028809,10.620117,-9.033203,-33.508301,0,0
6840,2024 10 07,05:25:06.989,0.045895,-0.675245,0.011249,-0.736078,-0.955596,-0.033692,-0.053224,12.756348,-10.925293,-34.362793,0,0
6841,2024 10 07,05:25:06.997,0.049052,-0.674452,0.012457,-0.736582,-0.996612,-0.027345,-0.059572,15.075684,-11.047363,-36.865234,0,0
6842,2024 10 07,05:25:07.006,0.052657,-0.67363,0.013773,-0.737062,-1.026399,-0.009278,-0.038087,18.737793,-10.742188,-42.480469,0,0
6843,2024 10 07,05:25:07.014,0.056918,-0.672853,0.015285,-0.737425,-1.103061,0.016602,-0.050783,21.972656,-9.70459,-50.048828,0,0
6844,2024 10 07,05:25:07.022,0.06187,-0.672016,0.017212,-0.737747,-1.174352,0.02588,-0.093753,22.460938,-10.192871,-59.997559,0,0
6845,2024 10 07,05:25:07.031,0.06187,-0.672016,0.017212,-0.737747,-1.174352,0.02588,-0.093753,22.460938,-10.192871,-59.997559,0,0
6846,2024 10 07,05:25:07.039,0.067461,-0.671071,0.019913,-0.738049,-1.209998,0.048341,-0.081545,19.165039,-11.047363,-71.899414,0,0
6847,2024 10 07,05:25:07.047,0.073519,-0.670232,0.023653,-0.738123,-1.305704,0.118168,-0.091311,13.85498,-9.521484,-84.411621,0,0
6848,2024 10 07,05:25:07.056,0.079951,-0.669281,0.02876,-0.738135,-1.392132,0.109378,-0.141118,5.371094,-11.047363,-99.609375,0,0
6849,2024 10 07,05:25:07.064,0.087216,-0.667859,0.035352,-0.738315,-1.428755,0.112796,-0.079592,-0.915527,-19.775391,-119.07959,0,0
6850,2024 10 07,05:25:07.072,0.095417,-0.666038,0.043585,-0.738505,-1.463912,0.123539,-0.038575,-6.286621,-22.033691,-140.319824,0,0
6851,2024 10 07,05:25:07.081,0.095417,-0.666038,0.043585,-0.738505,-1.463912,0.123539,-0.038575,-6.286621,-22.033691,-140.319824,0,0
6852,2024 10 07,05:25:07.089,0.104798,-0.663953,0.053396,-0.738466,-1.549364,0.167974,-0.001465,-10.314941,-25.634766,-163.696289,0,0
6853,2024 10 07,05:25:07.097,0.115398,-0.661323,0.065144,-0.738303,-1.808161,0.183599,0.007813,-15.686035,-30.090332,-191.589355,0,0
6854,2024 10 07,05:25:07.106,0.128407,-0.65782,0.078891,-0.737944,-2.03766,0.208502,0.015137,-13.671875,-40.405273,-231.445313,0,0
6855,2024 10 07,05:25:07.114,0.14467,-0.652673,0.094912,-0.737618,-2.302805,0.384777,0.051759,-2.807617,-54.321289,-280.700684,0,0
6856,2024 10 07,05:25:07.122,0.164369,-0.645512,0.113984,-0.737092,-2.724693,0.566424,0.002441,-3.417969,-73.486328,-339.84375,0,0
6857,2024 10 07,05:25:07.131,0.164369,-0.645512,0.113984,-0.737092,-2.724693,0.566424,0.002441,-3.417969,-73.486328,-339.84375,0,0
6858,2024 10 07,05:25:07.139,0.187863,-0.635703,0.136905,-0.736102,-3.136326,0.57326,0.130863,-3.90625,-95.458984,-409.851074,0,0
6859,2024 10 07,05:25:07.147,0.215765,-0.623079,0.163966,-0.733712,-3.8258,0.599628,-0.15186,-2.502441,-115.356445,-488.098145,0,0
6860,2024 10 07,05:25:07.156,0.246191,-0.605491,0.195989,-0.730998,-3.845332,0.343272,-0.08887,-19.287109,-165.100098,-552.429199,0,0
6861,2024 10 07,05:25:07.164,0.277132,-0.584986,0.231572,-0.726197,-3.73693,-0.19483,-0.015625,-42.114258,-168.884277,-586.425781,0,1
6862,2024 10 07,05:25:07.172,0.307673,-0.56356,0.266477,-0.718838,-3.615345,-0.053713,-0.292489,-33.38623,-163.818359,-577.819824,0,0
6863,2024 10 07,05:25:07.181,0.336215,-0.539463,0.299106,-0.71167,-3.554796,0.434584,0.131352,-23.132324,-186.279297,-552.91748,0,0
6864,2024 10 07,05:25:07.189,0.336215,-0.539463,0.299106,-0.71167,-3.554796,0.434584,0.131352,-23.132324,-186.279297,-552.91748,0,0
6865,2024 10 07,05:25:07.197,0.362664,-0.5132,0.330205,-0.704319,-3.144139,1.308145,0.689962,-11.352539,-215.332031,-541.503906,0,0
6866,2024 10 07,05:25:07.206,0.386963,-0.485766,0.360782,-0.695793,-2.14655,1.66802,1.230995,-22.094727,-201.599121,-530.456543,0,0
6867,2024 10 07,05:25:07.214,0.411692,-0.460289,0.388904,-0.683665,-1.368206,1.256386,1.982482,-15.930176,-154.052734,-523.925781,0,0
6868,2024 10 07,05:25:07.222,0.440643,-0.437092,0.411799,-0.667237,-0.91702,1.264199,1.986877,35.705566,-48.095703,-547.180176,0,0
6869,2024 10 07,05:25:07.231,0.476008,-0.416114,0.428631,-0.6454,1.038606,-0.460463,0.443373,54.626465,46.264648,-555.053711,0,0
6870,2024 10 07,05:25:07.239,0.476008,-0.416114,0.428631,-0.6454,1.038606,-0.460463,0.443373,54.626465,46.264648,-555.053711,0,0
6871,2024 10 07,05:25:07.247,0.504576,-0.403797,0.429576,-0.630726,1.760796,2.44734,1.443403,151.306152,157.958984,-267.333984,0,0
6872,2024 10 07,05:25:07.256,0.518635,-0.41191,0.414695,-0.624,-0.115238,3.426862,-0.027345,71.472168,257.324219,49.194336,0,0
6873,2024 10 07,05:25:07.264,0.512491,-0.431581,0.397259,-0.627118,-1.934629,2.406323,0.118656,-46.203613,169.73877,285.766602,0,0
6874,2024 10 07,05:25:07.272,0.48717,-0.450653,0.386645,-0.640377,-2.325755,1.129917,1.151891,-117.004395,-44.555664,413.024902,0,0
6875,2024 10 07,05:25:07.281,0.452831,-0.466154,0.379164,-0.658696,-1.573779,0.488296,0.382824,-125.061035,-103.210449,456.90918,0,0
6876,2024 10 07,05:25:07.289,0.452831,-0.466154,0.379164,-0.658696,-1.573779,0.488296,0.382824,-125.061035,-103.210449,456.90918,0,0
6877,2024 10 07,05:25:07.297,0.416611,-0.477076,0.372208,-0.67845,-0.609882,0.28663,1.027375,-102.844238,-156.12793,448.974609,0,0
6878,2024 10 07,05:25:07.306,0.384414,-0.487386,0.362821,-0.695012,0.12598,-0.034181,0.913602,-64.147949,-81.665039,412.109375,0,0
6879,2024 10 07,05:25:07.314,0.359531,-0.499454,0.348824,-0.706827,0.379406,-0.125492,1.102573,-14.770508,9.70459,369.750977,0,0
6880,2024 10 07,05:25:07.322,0.341713,-0.515053,0.329766,-0.713587,0.041993,0.080569,0.884793,31.555176,119.018555,338.745117,0,0
6881,2024 10 07,05:25:07.331,0.328085,-0.533048,0.306753,-0.717023,-0.519059,0.350108,0.696799,60.302734,171.875,325.866699,0,0
6882,2024 10 07,05:25:07.339,0.328085,-0.533048,0.306753,-0.717023,-0.519059,0.350108,0.696799,60.302734,171.875,325.866699,0,0
6883,2024 10 07,05:25:07.347,0.314691,-0.550747,0.282136,-0.719754,-0.949248,0.537614,0.512711,65.673828,168.151855,331.481934,0,0
6884,2024 10 07,05:25:07.356,0.299311,-0.567553,0.256835,-0.722726,-1.253945,0.61623,0.245613,58.227539,153.259277,351.318359,0,0
6885,2024 10 07,05:25:07.364,0.280275,-0.582434,0.231915,-0.726933,-1.278359,0.554216,0.255867,38.391113,113.464355,377.685547,0,0
6886,2024 10 07,05:25:07.372,0.25768,-0.595862,0.207273,-0.731838,-1.105502,0.387707,0.232429,20.019531,91.918945,404.174805,0,0
6887,2024 10 07,05:25:07.381,0.232778,-0.608779,0.182406,-0.736159,-0.980499,0.241707,0.365734,8.850098,93.87207,420.654297,0,0
6888,2024 10 07,05:25:07.389,0.232778,-0.608779,0.182406,-0.736159,-0.980499,0.241707,0.365734,8.850098,93.87207,420.654297,0,0
6889,2024 10 07,05:25:07.397,0.20712,-0.622674,0.157032,-0.738051,-1.049348,0.176275,0.381848,1.159668,123.962402,423.828125,0,0
6890,2024 10 07,05:25:07.406,0.181582,-0.637931,0.131649,-0.73671,-1.286172,0.174322,0.407727,-7.995605,158.935547,415.344238,0,0
6891,2024 10 07,05:25:07.414,0.156226,-0.654372,0.106977,-0.732084,-1.551317,0.23487,0.324229,-21.179199,190.063477,402.709961,0,0
6892,2024 10 07,05:25:07.422,0.130357,-0.671309,0.083565,-0.724823,-1.825251,0.30665,0.250984,-42.053223,208.862305,394.714355,0,0
6893,2024 10 07,05:25:07.431,0.102889,-0.68813,0.061738,-0.715597,-2.177313,0.408704,0.180181,-71.716309,216.674805,394.348145,0,0
6894,2024 10 07,05:25:07.439,0.102889,-0.68813,0.061738,-0.715597,-2.177313,0.408704,0.180181,-71.716309,216.674805,394.348145,0,0
6895,2024 10 07,05:25:07.447,0.07265,-0.704002,0.041881,-0.705229,-2.592853,0.423841,0.059572,-112.731934,209.960938,400.695801,0,0
6896,2024 10 07,05:25:07.456,0.039216,-0.717672,0.024295,-0.694852,-2.78573,0.181158,0.051271,-154.11377,187.37793,407.775879,0,0
6897,2024 10 07,05:25:07.464,0.003017,-0.729172,0.00878,-0.684268,-2.924894,-0.271004,0.11182,-190.856934,173.339844,414.489746,0,0
6898,2024 10 07,05:25:07.472,-0.034833,-0.738585,-0.00506,-0.673241,-2.970305,-0.883816,0.118656,-215.026855,159.484863,415.039063,0,0
6899,2024 10 07,05:25:07.481,-0.072902,-0.746233,-0.017532,-0.661449,-3.098727,-1.613819,0.038575,-224.731445,157.531738,408.691406,0,0
6900,2024 10 07,05:25:07.489,-0.072902,-0.746233,-0.017532,-0.661449,-3.098727,-1.613819,0.038575,-224.731445,157.531738,408.691406,0,0
6901,2024 10 07,05:25:07.497,-0.109886,-0.751929,-0.028716,-0.649386,-3.302347,-2.318918,0.011719,-225.891113,140.014648,392.211914,0,0
6902,2024 10 07,05:25:07.506,-0.144569,-0.754483,-0.038174,-0.63906,-3.202734,-3.008881,0.090823,-222.412109,99.365234,359.375,0,0
6903,2024 10 07,05:25:07.514,-0.17519,-0.754233,-0.04522,-0.631186,-2.654378,-3.838008,0.146977,-209.16748,60.668945,304.382324,0,0
6904,2024 10 07,05:25:07.522,-0.200023,-0.753027,-0.049209,-0.624915,-1.724662,-4.843898,0.08301,-179.870605,52.856445,234.680176,0,0
6905,2024 10 07,05:25:07.531,-0.217805,-0.754015,-0.049712,-0.617698,-1.064974,-5.64568,-0.48439,-136.291504,92.285156,155.822754,0,0
6906,2024 10 07,05:25:07.539,-0.217805,-0.754015,-0.049712,-0.617698,-1.064974,-5.64568,-0.48439,-136.291504,92.285156,155.822754,0,0
6907,2024 10 07,05:25:07.547,-0.227667,-0.759216,-0.046488,-0.607945,-1.947325,-6.017762,-1.202185,-75.98877,151.489258,74.035645,0,0
6908,2024 10 07,05:25:07.556,-0.228983,-0.765061,-0.041342,-0.600449,-2.654378,-5.713553,-1.239784,-15.441895,110.473633,-3.601074,0,0
6909,2024 10 07,05:25:07.564,-0.222833,-0.766952,-0.03723,-0.60062,-2.069399,-4.903958,-0.89407,41.442871,-1.403809,-59.326172,0,0
6910,2024 10 07,05:25:07.572,-0.211065,-0.765768,-0.035524,-0.606456,-1.416547,-3.658803,-0.503433,96.679688,-63.232422,-89.84375,0,0
6911,2024 10 07,05:25:07.581,-0.174442,-0.776589,-0.027213,-0.604764,-1.136753,0.700217,-7.806391,244.750977,26.245117,-367.06543,0,0
6912,2024 10 07,05:25:07.589,-0.174442,-0.776589,-0.027213,-0.604764,-1.136753,0.700217,-7.806391,244.750977,26.245117,-367.06543,0,0
6913,2024 10 07,05:25:07.597,-0.145955,-0.753329,-0.020614,-0.640911,1.226112,3.252541,6.473342,209.960938,-416.07666,-353.57666,0,0
6914,2024 10 07,05:25:07.606,-0.124776,-0.762846,0.002913,-0.63442,-2.877041,-0.510758,-1.834041,-30.395508,262.939453,-369.20166,1,0
6915,2024 10 07,05:25:07.614,-0.106106,-0.761281,0.028056,-0.639066,-3.41319,-0.165044,0.616718,-95.092773,-136.71875,-336.669922,0,0
6916,2024 10 07,05:25:07.622,-0.100217,-0.743224,0.050678,-0.65955,-1.622608,-0.767113,0.510758,-106.811523,-288.513184,-249.389648,0,0
6917,2024 10 07,05:25:07.631,-0.094972,-0.730857,0.063926,-0.672861,-1.690481,-0.98001,0.22364,-44.189453,-168.212891,-140.930176,0,0
6918,2024 10 07,05:25:07.639,-0.092884,-0.720054,0.070115,-0.684089,-0.943388,-0.113285,-0.099124,-41.015625,-167.663574,-69.702148,0,0
6919,2024 10 07,05:25:07.647,-0.092884,-0.720054,0.070115,-0.684089,-0.943388,-0.113285,-0.099124,-41.015625,-167.663574,-69.702148,0,0
6920,2024 10 07,05:25:07.656,-0.095032,-0.711144,0.075305,-0.692511,-0.90286,-0.04297,-0.016114,-68.17627,-124.084473,-33.508301,0,0
6921,2024 10 07,05:25:07.664,-0.098168,-0.703562,0.079926,-0.699268,-0.74807,-0.248543,-0.159673,-58.776855,-108.276367,-26.184082,0,0
6922,2024 10 07,05:25:07.672,-0.099405,-0.697484,0.082459,-0.704865,-0.735374,-0.032716,-0.167486,-25.817871,-86.05957,-18.310547,0,0
6923,2024 10 07,05:25:07.681,-0.100709,-0.692935,0.084059,-0.708966,-0.83108,-0.055177,-0.123051,-21.057129,-61.950684,-8.911133,0,0
6924,2024 10 07,05:25:07.689,-0.10072,-0.690085,0.084584,-0.711677,-0.839381,0.073244,-0.175787,-0.854492,-37.04834,-10.192871,0,0
6925,2024 10 07,05:25:07.697,-0.10072,-0.690085,0.084584,-0.711677,-0.839381,0.073244,-0.175787,-0.854492,-37.04834,-10.192871,0,0
6926,2024 10 07,05:25:07.706,-0.100287,-0.688299,0.084991,-0.713416,-0.843287,0.023438,-0.110355,-1.159668,-23.986816,-10.620117,0,0
6927,2024 10 07,05:25:07.714,-0.099645,-0.687366,0.085353,-0.714362,-0.876492,0.019044,-0.098148,2.197266,-10.498047,-9.82666,0,0
6928,2024 10 07,05:25:07.722,-0.098661,-0.687163,0.085584,-0.714667,-0.942412,0.099124,-0.007813,6.713867,-0.244141,-10.925293,0,0
6929,2024 10 07,05:25:07.731,-0.097474,-0.687246,0.085912,-0.71471,-0.970244,0.076174,0.004395,7.629395,1.89209,-13.549805,0,0
6930,2024 10 07,05:25:07.739,-0.095819,-0.687424,0.086309,-0.714716,-1.007843,0.057131,0.034181,10.803223,3.601074,-17.883301,0,0
6931,2024 10 07,05:25:07.747,-0.095819,-0.687424,0.086309,-0.714716,-1.007843,0.057131,0.034181,10.803223,3.601074,-17.883301,0,0
6932,2024 10 07,05:25:07.756,-0.093815,-0.687514,0.086869,-0.714827,-1.00589,0.074221,-0.013672,10.314941,1.647949,-22.399902,0,0
6933,2024 10 07,05:25:07.764,-0.091685,-0.687368,0.087501,-0.715166,-0.98001,0.061037,0.031251,13.671875,-1.586914,-23.4375,0,0
6934,2024 10 07,05:25:07.772,-0.08957,-0.687036,0.088005,-0.715691,-0.941435,0.067873,-0.029298,11.962891,-5.92041,-22.155762,0,0
6935,2024 10 07,05:25:07.781,-0.087805,-0.68653,0.088665,-0.716314,-0.920438,0.074221,-0.040529,7.263184,-6.225586,-20.996094,0,0
6936,2024 10 07,05:25:07.789,-0.086446,-0.685982,0.089578,-0.71689,-0.886258,0.06299,-0.037111,1.831055,-6.958008,-19.40918,0,0
6937,2024 10 07,05:25:07.797,-0.086446,-0.685982,0.089578,-0.71689,-0.886258,0.06299,-0.037111,1.831055,-6.958008,-19.40918,0,0
6938,2024 10 07,05:25:07.806,-0.085411,-0.685552,0.090709,-0.717283,-0.903348,0.067385,-0.082522,-2.075195,-3.540039,-18.554688,0,0
6939,2024 10 07,05:25:07.814,-0.084504,-0.685198,0.092027,-0.717561,-0.920438,0.039552,-0.014649,-3.662109,-2.075195,-18.981934,0,0
6940,2024 10 07,05:25:07.822,-0.083538,-0.684897,0.093383,-0.717786,-0.962432,0.040529,0.016602,-3.723145,-2.258301,-19.53125,0,0
6941,2024 10 07,05:25:07.831,-0.08271,-0.684407,0.094846,-0.718158,-0.951689,0.045412,-0.016114,-7.080078,-6.225586,-19.226074,0,0
6942,2024 10 07,05:25:07.839,-0.082134,-0.683622,0.09653,-0.718747,-0.927763,0.06592,-0.020997,-10.559082,-9.765625,-19.897461,0,0
6943,2024 10 07,05:25:07.847,-0.082134,-0.683622,0.09653,-0.718747,-0.927763,0.06592,-0.020997,-10.559082,-9.765625,-19.897461,0,0
6944,2024 10 07,05:25:07.856,-0.081847,-0.682684,0.098643,-0.719384,-0.920927,0.060549,-0.081545,-16.662598,-10.314941,-22.094727,0,0
6945,2024 10 07,05:25:07.864,-0.081624,-0.681738,0.101162,-0.719957,-0.940947,0.047853,-0.08301,-19.592285,-8.239746,-24.414063,0,0
6946,2024 10 07,05:25:07.872,-0.081031,-0.681007,0.103898,-0.720325,-0.9888,-0.010254,0.009278,-18.188477,-5.371094,-28.381348,0,0
6947,2024 10 07,05:25:07.881,-0.079946,-0.68032,0.106496,-0.720716,-0.993683,-0.016602,-0.054201,-11.962891,-5.981445,-31.433105,0,0
6948,2024 10 07,05:25:07.889,-0.078545,-0.679148,0.108803,-0.721631,-0.910184,-0.056154,-0.020997,-6.958008,-14.465332,-31.738281,0,0
6949,2024 10 07,05:25:07.897,-0.078545,-0.679148,0.108803,-0.721631,-0.910184,-0.056154,-0.020997,-6.958008,-14.465332,-31.738281,0,0
6950,2024 10 07,05:25:07.906,-0.076901,-0.677814,0.110645,-0.722781,-0.926786,-0.04883,-0.020508,-0.915527,-17.822266,-30.212402,0,0
6951,2024 10 07,05:25:07.914,-0.075187,-0.676121,0.112056,-0.724327,-0.893094,-0.061525,-0.030274,2.990723,-23.681641,-28.015137,0,0
6952,2024 10 07,05:25:07.922,-0.073248,-0.674465,0.113,-0.725922,-0.910672,-0.058107,-0.047853,9.033203,-22.949219,-26.489258,0,0
6953,2024 10 07,05:25:07.931,-0.07105,-0.672739,0.113615,-0.727644,-0.970733,-0.000977,-0.028809,13.549805,-24.841309,-27.160645,0,0
6954,2024 10 07,05:25:07.939,-0.068652,-0.670896,0.114237,-0.729476,-0.950224,-0.013184,-0.095706,14.526367,-26.367188,-29.968262,0,0
6955,2024 10 07,05:25:07.947,-0.068652,-0.670896,0.114237,-0.729476,-0.950224,-0.013184,-0.095706,14.526367,-26.367188,-29.968262,0,0
6956,2024 10 07,05:25:07.956,-0.065917,-0.669121,0.114977,-0.731241,-0.937529,-0.008789,-0.119144,16.296387,-22.705078,-33.508301,0,0
6957,2024 10 07,05:25:07.964,-0.062645,-0.667745,0.115855,-0.732646,-0.997589,-0.026368,-0.109378,18.920898,-15.991211,-39.001465,0,0
6958,2024 10 07,05:25:07.972,-0.058707,-0.666444,0.116886,-0.733991,-1.053255,-0.036134,-0.049318,22.766113,-14.770508,-45.715332,0,0
6959,2024 10 07,05:25:07.981,-0.053801,-0.665269,0.118066,-0.735243,-1.136753,0.029298,-0.068361,28.930664,-11.962891,-55.664063,0,0
6960,2024 10 07,05:25:07.989,-0.047937,-0.664046,0.119799,-0.736474,-1.241737,0.052736,-0.068361,32.592773,-9.521484,-69.641113,0,0
6961,2024 10 07,05:25:07.997,-0.047937,-0.664046,0.119799,-0.736474,-1.241737,0.052736,-0.068361,32.592773,-9.521484,-69.641113,0,0
6962,2024 10 07,05:25:08.006,-0.040888,-0.662923,0.12233,-0.737494,-1.386273,0.075198,-0.106937,32.104492,-6.103516,-86.120605,0,0
6963,2024 10 07,05:25:08.014,-0.032791,-0.661369,0.126021,-0.738671,-1.410688,0.121586,-0.059084,30.029297,-9.82666,-105.46875,0,0
6964,2024 10 07,05:25:08.022,-0.024199,-0.659119,0.131224,-0.740106,-1.466353,0.149907,-0.157231,18.432617,-18.554688,-121.765137,0,0
6965,2024 10 07,05:25:08.031,-0.015057,-0.656001,0.13817,-0.741852,-1.519578,0.210456,-0.083499,9.155273,-25.512695,-142.76123,0,0
6966,2024 10 07,05:25:08.039,-0.005264,-0.652247,0.147195,-0.743559,-1.602588,0.210944,-0.016602,-3.601074,-28.320313,-166.442871,0,0
6967,2024 10 07,05:25:08.047,0.005536,-0.648063,0.158335,-0.744925,-1.73101,0.188971,0.016114,-14.221191,-27.770996,-192.382813,0,0
6968,2024 10 07,05:25:08.056,0.005536,-0.648063,0.158335,-0.744925,-1.73101,0.188971,0.016114,-14.221191,-27.770996,-192.382813,0,0
6969,2024 10 07,05:25:08.064,0.017869,-0.642721,0.171589,-0.746423,-2.105045,0.253914,0.059572,-21.484375,-40.83252,-225.708008,0,0
6970,2024 10 07,05:25:08.072,0.032702,-0.63558,0.18721,-0.748279,-2.282784,0.309091,0.109378,-18.005371,-50.964355,-273.193359,0,0
6971,2024 10 07,05:25:08.081,0.050958,-0.625609,0.205417,-0.75088,-2.603107,0.509293,-0.053224,-15.441895,-86.486816,-330.383301,0,0
6972,2024 10 07,05:25:08.089,0.073284,-0.612686,0.226805,-0.753528,-2.909757,0.643086,-0.004395,-9.643555,-93.139648,-400.268555,0,0
6973,2024 10 07,05:25:08.097,0.100038,-0.597231,0.252041,-0.754839,-3.350688,0.615741,-0.244148,-14.953613,-98.815918,-477.172852,0,0
6974,2024 10 07,05:25:08.106,0.100038,-0.597231,0.252041,-0.754839,-3.350688,0.615741,-0.244148,-14.953613,-98.815918,-477.172852,0,0
6975,2024 10 07,05:25:08.114,0.130272,-0.577877,0.281393,-0.754921,-3.34727,0.316904,-0.318369,-32.104492,-122.314453,-546.264648,0,0
6976,2024 10 07,05:25:08.122,0.162413,-0.555978,0.314048,-0.752252,-3.715934,-0.067873,-0.195807,-53.039551,-113.037109,-589.72168,0,0
6977,2024 10 07,05:25:08.131,0.195099,-0.533196,0.346412,-0.746751,-3.777947,-0.112796,-0.43556,-45.227051,-111.633301,-591.064453,0,1
6978,2024 10 07,05:25:08.139,0.226556,-0.507737,0.376544,-0.741006,-3.33018,0.277352,0.112308,-32.653809,-129.150391,-579.467773,0,0
6979,2024 10 07,05:25:08.147,0.257755,-0.48158,0.404463,-0.73352,-3.1124,0.840846,0.554216,-14.526367,-119.140625,-574.401855,0,0
6980,2024 10 07,05:25:08.156,0.257755,-0.48158,0.404463,-0.73352,-3.1124,0.840846,0.554216,-14.526367,-119.140625,-574.401855,0,0
6981,2024 10 07,05:25:08.164,0.289295,-0.45515,0.430115,-0.723981,-2.270577,1.296426,0.917508,-4.638672,-98.205566,-573.059082,0,0
6982,2024 10 07,05:25:08.172,0.322872,-0.430236,0.452972,-0.710962,-1.415082,1.313517,1.48442,13.977051,-35.217285,-577.392578,0,0
6983,2024 10 07,05:25:08.181,0.360765,-0.40977,0.469323,-0.694027,-1.365764,1.392621,1.672903,64.39209,84.16748,-565.368652,0,0
6984,2024 10 07,05:25:08.189,0.401911,-0.392245,0.477593,-0.67566,0.655782,0.283212,0.41261,115.661621,126.586914,-520.874023,0,0
6985,2024 10 07,05:25:08.197,0.425916,-0.382126,0.472782,-0.670114,1.594775,3.514267,2.012757,181.091309,128.479004,-133.056641,0,0
6986,2024 10 07,05:25:08.206,0.425916,-0.382126,0.472782,-0.670114,1.594775,3.514267,2.012757,181.091309,128.479004,-133.056641,0,0
6987,2024 10 07,05:25:08.214,0.432561,-0.397575,0.455035,-0.669155,-1.462935,2.708579,-0.6592,56.884766,250.305176,174.987793,0,0
6988,2024 10 07,05:25:08.222,0.418095,-0.414024,0.439093,-0.678953,-2.016175,2.042054,0.666524,-8.056641,20.812988,340.454102,0,0
6989,2024 10 07,05:25:08.231,0.391449,-0.429649,0.428205,-0.691961,-1.222205,1.174841,0.824732,-45.654297,-13.916016,396.118164,0,0
6990,2024 10 07,05:25:08.239,0.364201,-0.444772,0.417019,-0.70401,-0.549821,0.63332,0.703635,-56.45752,-42.358398,387.512207,0,0
6991,2024 10 07,05:25:08.247,0.339841,-0.458038,0.406168,-0.713959,0.28077,0.403821,1.063509,-34.484863,11.84082,342.224121,0,0
6992,2024 10 07,05:25:08.256,0.339841,-0.458038,0.406168,-0.713959,0.28077,0.403821,1.063509,-34.484863,11.84082,342.224121,0,0
6993,2024 10 07,05:25:08.264,0.323525,-0.47533,0.391679,-0.718318,0.26368,0.403333,0.688986,-3.112793,115.356445,297.912598,0,0
6994,2024 10 07,05:25:08.272,0.311986,-0.495159,0.37434,-0.719271,0.051271,0.526872,0.749535,20.812988,191.772461,279.47998,0,0
6995,2024 10 07,05:25:08.281,0.302884,-0.518385,0.353461,-0.717359,-0.540544,0.736351,0.376965,33.630371,243.408203,287.841797,0,0
6996,2024 10 07,05:25:08.289,0.292354,-0.541345,0.331059,-0.715454,-1.176305,0.806665,0.085452,34.179688,224.487305,305.419922,0,0
6997,2024 10 07,05:25:08.297,0.278116,-0.561705,0.308805,-0.715387,-1.210974,0.731468,0.064943,22.766113,178.527832,330.200195,0,0
6998,2024 10 07,05:25:08.306,0.278116,-0.561705,0.308805,-0.715387,-1.210974,0.731468,0.064943,22.766113,178.527832,330.200195,0,0
6999,2024 10 07,05:25:08.314,0.26104,-0.580295,0.286242,-0.716367,-1.15482,0.563494,-0.04297,15.808105,146.484375,352.172852,0,0
7000,2024 10 07,05:25:08.322,0.241864,-0.597213,0.263226,-0.718018,-0.940947,0.368175,0.004883,16.296387,133.056641,368.835449,0,0
7001,2024 10 07,05:25:08.331,0.222308,-0.613896,0.238738,-0.718829,-0.861354,0.261727,0.102542,26.733398,143.066406,378.601074,0,0
7002,2024 10 07,05:25:08.339,0.20351,-0.631062,0.212397,-0.717797,-0.952178,0.231452,0.144536,42.541504,170.959473,380.92041,0,0
7003,2024 10 07,05:25:08.347,0.185944,-0.648977,0.184344,-0.714333,-1.260781,0.226081,0.145512,58.105469,200.744629,378.540039,0,0
7004,2024 10 07,05:25:08.355,0.185944,-0.648977,0.184344,-0.714333,-1.260781,0.226081,0.145512,58.105469,200.744629,378.540039,0,0
7005,2024 10 07,05:25:08.364,0.169041,-0.666551,0.155027,-0.709296,-1.50737,0.248054,0.11475,68.42041,206.176758,378.601074,0,0
7006,2024 10 07,05:25:08.372,0.152341,-0.683377,0.124515,-0.703054,-1.680715,0.329112,0.027345,78.491211,216.003418,383.483887,0,0
7007,2024 10 07,05:25:08.380,0.135198,-0.699363,0.092863,-0.695693,-1.742729,0.297861,0.059572,83.862305,217.285156,394.042969,0,0
7008,2024 10 07,05:25:08.389,0.117586,-0.71484,0.060077,-0.686708,-1.958068,0.30958,-0.006348,87.219238,231.140137,403.442383,0,0
7009,2024 10 07,05:25:08.397,0.099572,-0.72961,0.026391,-0.676061,-2.165105,0.203619,0.06299,91.85791,240.356445,411.010742,0,0
7010,2024 10 07,05:25:08.405,0.099572,-0.72961,0.026391,-0.676061,-2.165105,0.203619,0.06299,91.85791,240.356445,411.010742,0,0
7011,2024 10 07,05:25:08.414,0.081495,-0.743837,-0.007884,-0.663327,-2.575762,0.101566,-0.172369,95.092773,251.77002,414.611816,0,0
7012,2024 10 07,05:25:08.422,0.063421,-0.755728,-0.042303,-0.650434,-2.75399,-0.229499,-0.195318,98.754883,231.933594,416.320801,0,0
7013,2024 10 07,05:25:08.430,0.046285,-0.76561,-0.07657,-0.637053,-2.870205,-0.613788,-0.333018,109.008789,224.182129,408.813477,0,0
7014,2024 10 07,05:25:08.439,0.031,-0.773835,-0.110104,-0.622973,-2.84579,-1.113315,-0.437025,121.826172,219.726563,390.441895,0,0
7015,2024 10 07,05:25:08.447,0.018098,-0.781289,-0.142273,-0.607469,-2.981536,-1.537645,-0.600604,132.568359,225.952148,363.708496,0,0
7016,2024 10 07,05:25:08.455,0.007043,-0.78795,-0.171971,-0.591194,-3.08652,-1.916562,-1.027375,129.760742,222.229004,330.810547,0,0
7017,2024 10 07,05:25:08.464,0.007043,-0.78795,-0.171971,-0.591194,-3.08652,-1.916562,-1.027375,129.760742,222.229004,330.810547,0,0
7018,2024 10 07,05:25:08.472,-0.002275,-0.793383,-0.197404,-0.575821,-2.835536,-2.421461,-1.534715,109.802246,201.538086,280.700684,0,0
7019,2024 10 07,05:25:08.480,-0.009996,-0.798496,-0.216501,-0.561632,-2.199286,-2.944426,-2.359447,76.782227,191.772461,210.693359,0,0
7020,2024 10 07,05:25:08.489,-0.016136,-0.804496,-0.227541,-0.548408,-1.789117,-3.780389,-3.190527,32.104492,191.223145,122.619629,0,0
7021,2024 10 07,05:25:08.497,-0.021296,-0.812204,-0.230845,-0.535333,-2.946379,-4.588031,-3.463485,0.427246,202.026367,51.208496,0,0
7022,2024 10 07,05:25:08.505,-0.023365,-0.816901,-0.228708,-0.52898,-3.434675,-4.772606,-2.703207,-24.902344,75.317383,-4.699707,0,0
7023,2024 10 07,05:25:08.514,-0.023365,-0.816901,-0.228708,-0.52898,-3.434675,-4.772606,-2.703207,-24.902344,75.317383,-4.699707,0,0
7024,2024 10 07,05:25:08.522,-0.02017,-0.815751,-0.223,-0.533306,-1.860897,-4.248177,-1.681204,-22.338867,-64.819336,-57.983398,0,0
7025,2024 10 07,05:25:08.530,-0.00272,-0.822482,-0.219198,-0.524851,-14.467728,-1.629932,0.589373,319.274902,259.765625,-189.147949,0,0
7026,2024 10 07,05:25:08.539,0.014969,-0.7988,-0.193836,-0.569313,-0.538102,-2.786218,4.327281,-378.417969,-1026.550293,-211.791992,1,0
7027,2024 10 07,05:25:08.547,0.02935,-0.785099,-0.179807,-0.591969,-0.972686,0.357433,0.685568,-61.340332,75.744629,-177.490234,0,0
7028,2024 10 07,05:25:08.555,0.0383,-0.782976,-0.164143,-0.598781,-1.92291,0.695822,-1.597217,-44.189453,-335.998535,-183.532715,0,0
7029,2024 10 07,05:25:08.564,0.0383,-0.782976,-0.164143,-0.598781,-1.92291,0.695822,-1.597217,-44.189453,-335.998535,-183.532715,0,0
7030,2024 10 07,05:25:08.572,0.04715,-0.767537,-0.147408,-0.622041,-1.77691,-0.426283,-1.114292,5.249023,-202.697754,-170.288086,0,0
7031,2024 10 07,05:25:08.580,0.058756,-0.754845,-0.137824,-0.638562,-1.234413,-0.423353,-0.125492,-23.681641,-323.486328,-118.652344,0,0
7032,2024 10 07,05:25:08.589,0.065279,-0.740357,-0.129159,-0.656451,-1.078646,0.784692,0.551775,-45.654297,-240.722656,-79.956055,0,0
7033,2024 10 07,05:25:08.597,0.064202,-0.726965,-0.116569,-0.673655,-1.017609,-0.010254,0.449232,-120.239258,-273.071289,-67.932129,0,0
7034,2024 10 07,05:25:08.605,0.064877,-0.712938,-0.104325,-0.690382,-0.848659,-0.107913,-0.339366,-91.85791,-245.849609,-78.613281,0,0
7035,2024 10 07,05:25:08.614,0.064877,-0.712938,-0.104325,-0.690382,-0.848659,-0.107913,-0.339366,-91.85791,-245.849609,-78.613281,0,0
7036,2024 10 07,05:25:08.622,0.066153,-0.699545,-0.093909,-0.705295,-0.67336,-0.20069,-0.094729,-80.01709,-231.445313,-63.171387,0,0
7037,2024 10 07,05:25:08.630,0.066306,-0.689538,-0.085897,-0.716075,-0.308115,-0.510758,-1.096713,-54.931641,-149.597168,-37.902832,0,0
7038,2024 10 07,05:25:08.639,0.067948,-0.682887,-0.083559,-0.722542,-0.715354,0.277352,-0.020508,-4.211426,-93.444824,-14.282227,0,0
7039,2024 10 07,05:25:08.647,0.068182,-0.679047,-0.081508,-0.726363,-0.868191,-0.01709,-0.0459,-11.047363,-55.236816,-14.343262,0,0
7040,2024 10 07,05:25:08.655,0.069668,-0.676343,-0.080396,-0.728864,-0.82522,0.080569,-0.159185,3.601074,-42.96875,-16.418457,0,0
7041,2024 10 07,05:25:08.664,0.069668,-0.676343,-0.080396,-0.728864,-0.82522,0.080569,-0.159185,3.601074,-42.96875,-16.418457,0,0
7042,2024 10 07,05:25:08.672,0.071263,-0.674383,-0.079636,-0.730608,-0.901395,0.112796,-0.0,8.178711,-27.099609,-17.211914,0,0
7043,2024 10 07,05:25:08.680,0.073251,-0.673223,-0.078642,-0.731588,-0.947295,0.057619,-0.075198,6.896973,-19.226074,-23.925781,0,0
7044,2024 10 07,05:25:08.689,0.07556,-0.672121,-0.077748,-0.732461,-0.894559,0.030274,-0.033204,10.070801,-17.51709,-24.902344,0,0
7045,2024 10 07,05:25:08.697,0.077889,-0.671393,-0.077012,-0.732962,-0.983428,0.039064,0.000977,12.084961,-12.634277,-24.536133,0,0
7046,2024 10 07,05:25:08.705,0.080013,-0.670555,-0.076033,-0.733603,-0.960967,0.029786,-0.054689,6.469727,-15.869141,-23.803711,0,0
7047,2024 10 07,05:25:08.714,0.080013,-0.670555,-0.076033,-0.733603,-0.960967,0.029786,-0.054689,6.469727,-15.869141,-23.803711,0,0
7048,2024 10 07,05:25:08.722,0.081765,-0.669557,-0.074996,-0.734428,-0.907254,0.085452,-0.08301,2.929688,-17.211914,-20.446777,0,0
7049,2024 10 07,05:25:08.730,0.082931,-0.668653,-0.073731,-0.735248,-0.929228,0.08301,-0.070803,-1.098633,-15.686035,-17.76123,0,0
7050,2024 10 07,05:25:08.739,0.083784,-0.667838,-0.072352,-0.736028,-0.921903,0.051759,-0.08887,-5.92041,-14.465332,-16.418457,0,0
7051,2024 10 07,05:25:08.747,0.084456,-0.667179,-0.070869,-0.736693,-0.91995,0.058596,-0.106937,-8.911133,-12.207031,-15.991211,0,0
7052,2024 10 07,05:25:08.755,0.08503,-0.666472,-0.069264,-0.737419,-0.940458,0.053713,-0.053713,-8.544922,-14.343262,-16.357422,0,0
7053,2024 10 07,05:25:08.764,0.08503,-0.666472,-0.069264,-0.737419,-0.940458,0.053713,-0.053713,-8.544922,-14.343262,-16.357422,0,0
7054,2024 10 07,05:25:08.772,0.085678,-0.665822,-0.067694,-0.738078,-0.940458,0.033204,-0.039064,-8.117676,-11.352539,-16.845703,0,0
7055,2024 10 07,05:25:08.780,0.086396,-0.665293,-0.066089,-0.738616,-0.935575,0.064943,-0.105472,-8.850098,-11.535645,-18.066406,0,0
7056,2024 10 07,05:25:08.789,0.087198,-0.664687,-0.064363,-0.739219,-0.926786,0.037599,-0.04883,-8.117676,-12.023926,-20.019531,0,0
7057,2024 10 07,05:25:08.797,0.08812,-0.664253,-0.062493,-0.739661,-0.954131,0.043947,-0.090335,-8.483887,-8.789063,-22.277832,0,0
7058,2024 10 07,05:25:08.805,0.089305,-0.663916,-0.060511,-0.739986,-0.932646,0.062502,-0.133305,-7.202148,-7.995605,-26.000977,0,0
7059,2024 10 07,05:25:08.814,0.089305,-0.663916,-0.060511,-0.739986,-0.932646,0.062502,-0.133305,-7.202148,-7.995605,-26.000977,0,0
7060,2024 10 07,05:25:08.822,0.090581,-0.663647,-0.058331,-0.740247,-0.933134,0.002441,-0.049318,-8.300781,-5.981445,-27.46582,0,0
7061,2024 10 07,05:25:08.830,0.092112,-0.663623,-0.056305,-0.740237,-0.934111,-0.008789,-0.096683,-5.981445,-4.760742,-28.869629,0,0
7062,2024 10 07,05:25:08.839,0.093712,-0.663339,-0.054334,-0.740437,-0.961455,-0.013184,-0.063478,-3.540039,-6.835938,-28.015137,0,0
7063,2024 10 07,05:25:08.847,0.095379,-0.662729,-0.052533,-0.7409,-0.935087,-0.047365,-0.01709,-1.403809,-13.793945,-26.794434,0,0
7064,2024 10 07,05:25:08.855,0.097161,-0.661835,-0.051027,-0.741573,-0.928739,-0.062014,-0.053224,2.075195,-16.418457,-24.719238,0,0
7065,2024 10 07,05:25:08.864,0.099077,-0.660698,-0.049909,-0.742409,-0.93997,-0.076174,-0.065432,6.469727,-19.836426,-22.705078,0,0
7066,2024 10 07,05:25:08.872,0.099077,-0.660698,-0.049909,-0.742409,-0.93997,-0.076174,-0.065432,6.469727,-19.836426,-22.705078,0,0
7067,2024 10 07,05:25:08.880,0.101287,-0.659252,-0.049165,-0.743445,-0.974151,-0.047853,-0.064455,12.268066,-23.803711,-22.521973,0,0
7068,2024 10 07,05:25:08.889,0.103756,-0.657527,-0.048523,-0.744673,-0.970733,-0.048341,-0.102542,15.075684,-26.794434,-24.230957,0,0
7069,2024 10 07,05:25:08.897,0.106677,-0.655643,-0.04795,-0.745958,-1.002472,-0.010254,-0.120609,19.104004,-28.442383,-27.709961,0,0
7070,2024 10 07,05:25:08.905,0.110102,-0.653612,-0.047265,-0.747285,-1.027375,0.017579,-0.102054,22.033691,-30.578613,-33.569336,0,0
7071,2024 10 07,05:25:08.914,0.113977,-0.651834,-0.046223,-0.748321,-1.019562,0.00586,-0.136235,21.54541,-23.681641,-40.83252,0,0
7072,2024 10 07,05:25:08.922,0.113977,-0.651834,-0.046223,-0.748321,-1.019562,0.00586,-0.136235,21.54541,-23.681641,-40.83252,0,0
7073,2024 10 07,05:25:08.930,0.118532,-0.650349,-0.044986,-0.748981,-1.078646,0.034669,-0.176763,25.57373,-22.521973,-49.255371,0,0
7074,2024 10 07,05:25:08.939,0.123734,-0.648754,-0.043297,-0.749623,-1.031281,-0.005371,-0.164556,25.817871,-22.033691,-58.47168,0,0
7075,2024 10 07,05:25:08.947,0.129675,-0.647471,-0.04129,-0.74984,-1.130894,0.062014,-0.205573,28.259277,-18.554688,-67.932129,0,0
7076,2024 10 07,05:25:08.955,0.13617,-0.646086,-0.038662,-0.750024,-1.106479,0.080569,-0.173833,26.855469,-20.263672,-78.186035,0,0
7077,2024 10 07,05:25:08.964,0.143114,-0.645079,-0.035227,-0.749767,-1.244179,0.099124,-0.267098,22.705078,-13.183594,-89.111328,0,0
7078,2024 10 07,05:25:08.972,0.143114,-0.645079,-0.035227,-0.749767,-1.244179,0.099124,-0.267098,22.705078,-13.183594,-89.111328,0,0
7079,2024 10 07,05:25:08.980,0.150538,-0.644025,-0.030646,-0.74942,-1.287149,0.106449,-0.146977,13.61084,-18.249512,-102.905273,0,0
7080,2024 10 07,05:25:08.989,0.158417,-0.643272,-0.024709,-0.748662,-1.48149,0.054201,0.025391,7.93457,-14.526367,-117.980957,0,0
7081,2024 10 07,05:25:08.997,0.167075,-0.642471,-0.017469,-0.747671,-1.681692,0.04004,-0.021973,3.051758,-17.63916,-135.437012,0,0
7082,2024 10 07,05:25:09.005,0.176892,-0.640648,-0.008562,-0.747132,-1.768609,0.089358,0.039552,-3.234863,-37.04834,-158.508301,0,0
7083,2024 10 07,05:25:09.014,0.18825,-0.638484,0.002288,-0.746254,-1.915097,0.166021,0.029786,-4.455566,-36.560059,-188.781738,0,0
7084,2024 10 07,05:25:09.022,0.18825,-0.638484,0.002288,-0.746254,-1.915097,0.166021,0.029786,-4.455566,-36.560059,-188.781738,0,0
7085,2024 10 07,05:25:09.030,0.201504,-0.635654,0.015516,-0.74505,-2.143132,0.212897,0.114261,-13.244629,-49.438477,-226.196289,0,0
7086,2024 10 07,05:25:09.039,0.217142,-0.632306,0.031442,-0.743001,-2.342357,0.316904,0.125004,-16.723633,-48.64502,-272.033691,0,0
7087,2024 10 07,05:25:09.047,0.236573,-0.627961,0.050293,-0.739709,-2.772057,0.503433,-0.01709,-5.493164,-61.889648,-334.228516,0,0
7088,2024 10 07,05:25:09.055,0.260915,-0.620499,0.072295,-0.735988,-3.065523,0.539079,0.146977,9.70459,-93.933105,-406.12793,0,0
7089,2024 10 07,05:25:09.064,0.28978,-0.608805,0.099385,-0.731783,-3.251076,0.170415,0.376965,7.507324,-145.080566,-490.478516,0,0
7090,2024 10 07,05:25:09.072,0.28978,-0.608805,0.099385,-0.731783,-3.251076,0.170415,0.376965,7.507324,-145.080566,-490.478516,0,0
7091,2024 10 07,05:25:09.080,0.324144,-0.595401,0.130337,-0.723492,-3.414167,0.079104,0.534684,15.686035,-114.746094,-576.965332,0,0
7092,2024 10 07,05:25:09.089,0.360703,-0.581515,0.162957,-0.710759,-4.140751,-0.002441,-0.097171,12.634277,-97.839355,-608.825684,0,1
7093,2024 10 07,05:25:09.097,0.395869,-0.564549,0.19399,-0.697811,-4.165655,0.141118,-0.48439,31.677246,-134.70459,-587.646484,0,0
7094,2024 10 07,05:25:09.105,0.427655,-0.542944,0.224663,-0.686913,-3.011322,0.22071,0.263192,35.217285,-180.725098,-559.814453,0,0
7095,2024 10 07,05:25:09.114,0.458874,-0.520571,0.252082,-0.674459,-2.331126,1.040559,0.849635,60.974121,-148.681641,-545.837402,0,0
7096,2024 10 07,05:25:09.122,0.458874,-0.520571,0.252082,-0.674459,-2.331126,1.040559,0.849635,60.974121,-148.681641,-545.837402,0,0
7097,2024 10 07,05:25:09.130,0.49064,-0.500165,0.275784,-0.658065,-1.59917,1.218299,1.13773,69.274902,-79.345703,-545.349121,0,0
7098,2024 10 07,05:25:09.139,0.525163,-0.483148,0.29302,-0.636326,-0.642109,1.696829,1.410688,106.811523,36.621094,-542.84668,0,0
7099,2024 10 07,05:25:09.147,0.561777,-0.470561,0.303006,-0.609234,-0.726585,1.518113,1.20072,124.572754,143.371582,-532.714844,0,0
7100,2024 10 07,05:25:09.155,0.593908,-0.460201,0.304603,-0.58541,2.217841,1.281289,1.504929,169.189453,136.108398,-343.688965,0,0
7101,2024 10 07,05:25:09.164,0.605384,-0.461451,0.291588,-0.579266,-1.070345,3.131932,-0.296396,65.307617,212.646484,44.677734,0,0
7102,2024 10 07,05:25:09.172,0.605384,-0.461451,0.291588,-0.579266,-1.070345,3.131932,-0.296396,65.307617,212.646484,44.677734,0,0
7103,2024 10 07,05:25:09.180,0.599377,-0.471295,0.275277,-0.585535,-1.377483,2.412671,0.54152,8.972168,70.129395,232.299805,0,0
7104,2024 10 07,05:25:09.189,0.5829,-0.484478,0.262683,-0.597082,-0.955107,1.4185,0.7051,-65.185547,70.922852,301.269531,0,0
7105,2024 10 07,05:25:09.197,0.564482,-0.498765,0.250678,-0.608075,-0.150395,0.774926,1.105014,-85.9375,53.161621,299.621582,0,0
7106,2024 10 07,05:25:09.205,0.549093,-0.515255,0.237244,-0.613778,0.27784,0.59328,0.50148,-79.528809,154.35791,254.943848,0,0
7107,2024 10 07,05:25:09.214,0.53838,-0.534598,0.220552,-0.61295,0.22071,0.628925,0.682638,-65.368652,235.717773,212.219238,0,0
7108,2024 10 07,05:25:09.222,0.53838,-0.534598,0.220552,-0.61295,0.22071,0.628925,0.682638,-65.368652,235.717773,212.219238,0,0
7109,2024 10 07,05:25:09.230,0.530621,-0.557404,0.199676,-0.606525,-0.348155,0.703146,0.368175,-52.856445,329.89502,197.875977,0,0
7110,2024 10 07,05:25:09.239,0.523204,-0.581812,0.175441,-0.597471,-1.085482,0.755394,0.041993,-47.302246,359.375,205.993652,0,0
7111,2024 10 07,05:25:09.247,0.514267,-0.605068,0.150013,-0.588997,-1.627491,0.707053,-0.255867,-41.320801,341.85791,224.060059,0,0
7112,2024 10 07,05:25:09.255,0.503414,-0.62477,0.125011,-0.583617,-1.767632,0.589862,-0.5215,-32.043457,280.212402,244.750977,0,0
7113,2024 10 07,05:25:09.264,0.491162,-0.640271,0.100524,-0.581986,-1.528855,0.44142,-0.599139,-12.634277,230.285645,266.662598,0,0
7114,2024 10 07,05:25:09.272,0.478669,-0.653056,0.074487,-0.582105,-1.342326,0.305185,-0.618671,15.441895,215.942383,287.475586,0,0
7115,2024 10 07,05:25:09.280,0.478669,-0.653056,0.074487,-0.582105,-1.342326,0.305185,-0.618671,15.441895,215.942383,287.475586,0,0
7116,2024 10 07,05:25:09.289,0.466814,-0.663852,0.045824,-0.582482,-1.302774,0.323252,-0.694845,48.461914,218.505859,301.940918,0,0
7117,2024 10 07,05:25:09.297,0.455653,-0.672839,0.014744,-0.582624,-1.413617,0.407239,-0.685568,79.406738,222.473145,313.232422,0,0
7118,2024 10 07,05:25:09.305,0.444717,-0.68017,-0.018302,-0.582461,-1.587939,0.542985,-0.760277,100.219727,222.290039,324.401855,0,0
7119,2024 10 07,05:25:09.314,0.433532,-0.68536,-0.052301,-0.582749,-1.680715,0.556658,-0.737327,113.464355,206.237793,335.327148,0,0
7120,2024 10 07,05:25:09.322,0.421843,-0.688499,-0.086543,-0.583548,-1.670461,0.527848,-0.721213,120.239258,191.40625,344.116211,0,0
7121,2024 10 07,05:25:09.330,0.421843,-0.688499,-0.086543,-0.583548,-1.670461,0.527848,-0.721213,120.239258,191.40625,344.116211,0,0
7122,2024 10 07,05:25:09.339,0.409471,-0.689964,-0.12096,-0.584509,-1.57036,0.524918,-0.637715,122.558594,182.617188,353.393555,0,0
7123,2024 10 07,05:25:09.347,0.396114,-0.690428,-0.155758,-0.584929,-1.522996,0.582537,-0.58449,122.924805,185.974121,361.877441,0,0
7124,2024 10 07,05:25:09.355,0.381379,-0.69058,-0.190793,-0.584163,-1.612842,0.562517,-0.599139,116.821289,199.035645,368.225098,0,0
7125,2024 10 07,05:25:09.364,0.365029,-0.690238,-0.225592,-0.582609,-1.736869,0.592792,-0.592792,102.722168,201.843262,375.0,0,0
7126,2024 10 07,05:25:09.372,0.346368,-0.689627,-0.259645,-0.580541,-1.92877,0.56447,-0.743187,80.932617,208.312988,384.033203,0,0
7127,2024 10 07,05:25:09.380,0.346368,-0.689627,-0.259645,-0.580541,-1.92877,0.56447,-0.743187,80.932617,208.312988,384.033203,0,0
7128,2024 10 07,05:25:09.389,0.325253,-0.688439,-0.29225,-0.578664,-2.187567,0.272958,-0.799341,53.527832,202.880859,391.723633,0,0
7129,2024 10 07,05:25:09.397,0.30222,-0.686527,-0.323156,-0.576987,-2.386792,-0.372082,-0.841823,30.029297,198.364258,395.935059,0,0
7130,2024 10 07,05:25:09.405,0.278332,-0.68372,-0.352623,-0.575078,-2.581133,-1.045442,-0.897977,20.996094,192.016602,395.935059,0,0
7131,2024 10 07,05:25:09.414,0.254664,-0.68003,-0.380556,-0.57261,-2.889248,-1.709037,-1.101596,18.737793,185.119629,385.681152,0,0
7132,2024 10 07,05:25:09.422,0.232576,-0.675405,-0.405687,-0.570224,-3.091403,-2.284738,-1.457564,13.671875,160.949707,357.177734,0,0
7133,2024 10 07,05:25:09.430,0.232576,-0.675405,-0.405687,-0.570224,-3.091403,-2.284738,-1.457564,13.671875,160.949707,357.177734,0,0
7134,2024 10 07,05:25:09.439,0.213291,-0.670054,-0.426714,-0.568726,-3.076266,-2.677328,-1.566942,4.394531,124.267578,313.232422,0,0
7135,2024 10 07,05:25:09.447,0.197101,-0.664122,-0.442541,-0.569431,-2.708579,-3.114353,-1.54741,-19.348145,73.181152,262.512207,0,0
7136,2024 10 07,05:25:09.455,0.183494,-0.658384,-0.452686,-0.572656,-2.27253,-3.84875,-1.497604,-51.818848,33.26416,209.04541,0,0
7137,2024 10 07,05:25:09.464,0.172023,-0.654291,-0.457425,-0.577125,-1.730033,-4.27601,-1.608448,-80.932617,17.51709,149.108887,0,0
7138,2024 10 07,05:25:09.472,0.162393,-0.653774,-0.456618,-0.581126,-1.597217,-4.454726,-1.712455,-107.299805,31.066895,72.20459,0,0
7139,2024 10 07,05:25:09.480,0.162393,-0.653774,-0.456618,-0.581126,-1.597217,-4.454726,-1.712455,-107.299805,31.066895,72.20459,0,0
7140,2024 10 07,05:25:09.489,0.155888,-0.657007,-0.450096,-0.584341,-1.830622,-4.448866,-1.737358,-121.154785,25.878906,-12.939453,0,0
7141,2024 10 07,05:25:09.497,0.15486,-0.662298,-0.43894,-0.587121,-8.744896,-2.611408,0.825709,-97.473145,12.268066,-96.130371,0,0
7142,2024 10 07,05:25:09.505,0.175034,-0.673304,-0.42391,-0.579936,-2.287667,0.213385,-3.882931,-99.487305,-268.615723,-277.46582,1,0
7143,2024 10 07,05:25:09.514,0.199916,-0.659538,-0.399711,-0.604379,2.081606,1.666066,3.85754,-91.491699,-310.241699,-224.79248,0,0
7144,2024 10 07,05:25:09.522,0.211462,-0.66883,-0.384764,-0.599922,-2.883389,1.560595,-1.614307,50.78125,-75.98877,-259.887695,0,0
7145,2024 10 07,05:25:09.530,0.211462,-0.66883,-0.384764,-0.599922,-2.883389,1.560595,-1.614307,50.78125,-75.98877,-259.887695,0,0
7146,2024 10 07,05:25:09.539,0.227031,-0.66401,-0.360085,-0.614724,-0.661641,-0.695334,-0.301767,-103.210449,-218.62793,-237.182617,0,0
7147,2024 10 07,05:25:09.547,0.241311,-0.66267,-0.343007,-0.620471,-2.103091,-0.886258,-0.740745,-41.503906,-197.570801,-187.683105,0,0
7148,2024 10 07,05:25:09.555,0.255925,-0.653921,-0.330255,-0.630731,-1.181188,0.032716,0.729514,20.141602,-211.914063,-118.041992,0,0
7149,2024 10 07,05:25:09.564,0.26465,-0.646213,-0.319372,-0.640602,-1.122593,0.136235,0.145512,-43.273926,-202.636719,-78.308105,0,0
7150,2024 10 07,05:25:09.572,0.269277,-0.638576,-0.307113,-0.652221,-0.846217,-0.090823,-0.04883,-82.214355,-189.63623,-58.410645,0,0
7151,2024 10 07,05:25:09.580,0.269277,-0.638576,-0.307113,-0.652221,-0.846217,-0.090823,-0.04883,-82.214355,-189.63623,-58.410645,0,0
7152,2024 10 07,05:25:09.589,0.273123,-0.631541,-0.296009,-0.662525,-0.724143,-0.100101,-0.351573,-64.758301,-171.691895,-49.01123,0,0
7153,2024 10 07,05:25:09.597,0.276132,-0.625119,-0.287058,-0.671249,-0.772973,-0.056154,0.008789,-53.161621,-139.038086,-34.729004,0,0
7154,2024 10 07,05:25:09.605,0.278098,-0.620441,-0.280081,-0.677693,-0.69631,-0.154302,-0.415052,-42.541504,-103.515625,-27.160645,0,0
7155,2024 10 07,05:25:09.614,0.280499,-0.61656,-0.275819,-0.681981,-0.646504,-0.006348,-0.353038,-7.263184,-69.702148,-20.202637,0,0
7156,2024 10 07,05:25:09.622,0.282074,-0.614322,-0.273605,-0.684239,-0.884793,0.005371,0.02002,-8.850098,-38.94043,-11.413574,0,0
7157,2024 10 07,05:25:09.630,0.282074,-0.614322,-0.273605,-0.684239,-0.884793,0.005371,0.02002,-8.850098,-38.94043,-11.413574,0,0
7158,2024 10 07,05:25:09.639,0.283329,-0.612841,-0.272039,-0.685672,-0.872585,0.057131,-0.155278,-0.12207,-29.418945,-11.71875,0,0
7159,2024 10 07,05:25:09.647,0.284586,-0.611716,-0.270834,-0.686631,-0.884793,0.032716,-0.06299,-0.244141,-20.141602,-11.71875,0,0
7160,2024 10 07,05:25:09.655,0.285796,-0.611217,-0.270047,-0.686883,-0.940458,0.053713,-0.075686,4.02832,-10.253906,-13.061523,0,0
7161,2024 10 07,05:25:09.664,0.287196,-0.61088,-0.269452,-0.686834,-0.971709,0.048341,-0.029786,6.713867,-8.605957,-14.953613,0,0
7162,2024 10 07,05:25:09.672,0.288837,-0.610487,-0.268855,-0.686728,-0.976592,0.047365,-0.007813,8.850098,-10.498047,-16.662598,0,0
7163,2024 10 07,05:25:09.680,0.290702,-0.609897,-0.268333,-0.686669,-0.963408,0.059084,-0.06006,11.59668,-13.000488,-16.784668,0,0
7164,2024 10 07,05:25:09.689,0.290702,-0.609897,-0.268333,-0.686669,-0.963408,0.059084,-0.06006,11.59668,-13.000488,-16.784668,0,0
7165,2024 10 07,05:25:09.697,0.292569,-0.609067,-0.267675,-0.68687,-0.926298,0.077639,-0.094241,8.728027,-16.845703,-16.296387,0,0
7166,2024 10 07,05:25:09.705,0.294128,-0.608315,-0.266729,-0.687238,-0.912137,0.090823,-0.087893,4.089355,-15.869141,-15.563965,0,0
7167,2024 10 07,05:25:09.714,0.295312,-0.60781,-0.265585,-0.687621,-0.911649,0.058596,-0.089846,-1.037598,-13.671875,-14.770508,0,0
7168,2024 10 07,05:25:09.722,0.296363,-0.607455,-0.264365,-0.687953,-0.932646,0.082522,-0.050295,-2.441406,-12.023926,-15.014648,0,0
7169,2024 10 07,05:25:09.730,0.297292,-0.607243,-0.263021,-0.688254,-0.93997,0.066408,-0.08887,-4.333496,-11.535645,-15.563965,0,0
7170,2024 10 07,05:25:09.739,0.297292,-0.607243,-0.263021,-0.688254,-0.93997,0.066408,-0.08887,-4.333496,-11.535645,-15.563965,0,0
7171,2024 10 07,05:25:09.747,0.298085,-0.607162,-0.261469,-0.688573,-0.977569,-0.006836,-0.110843,-8.483887,-9.216309,-16.174316,0,0
7172,2024 10 07,05:25:09.755,0.298834,-0.607258,-0.259779,-0.688803,-0.947295,0.024903,-0.057131,-12.329102,-7.446289,-17.211914,0,0
7173,2024 10 07,05:25:09.764,0.299553,-0.607482,-0.257968,-0.688975,-0.926786,0.051759,-0.059084,-10.498047,-9.521484,-18.676758,0,0
7174,2024 10 07,05:25:09.772,0.300255,-0.607622,-0.255981,-0.689286,-0.923856,0.031739,-0.107425,-11.71875,-9.765625,-19.226074,0,0
7175,2024 10 07,05:25:09.780,0.30106,-0.607658,-0.25394,-0.689659,-0.899441,-0.004395,-0.046876,-10.864258,-12.145996,-19.897461,0,0
7176,2024 10 07,05:25:09.789,0.30106,-0.607658,-0.25394,-0.689659,-0.899441,-0.004395,-0.046876,-10.864258,-12.145996,-19.897461,0,0
7177,2024 10 07,05:25:09.797,0.301966,-0.607848,-0.252161,-0.689748,-0.924833,0.001953,-0.105472,-6.713867,-5.371094,-19.958496,0,0
7178,2024 10 07,05:25:09.805,0.303158,-0.608074,-0.250723,-0.68955,-0.888699,-0.030274,-0.094729,-2.563477,-5.981445,-20.812988,0,0
7179,2024 10 07,05:25:09.814,0.304562,-0.608176,-0.249607,-0.689246,-0.901883,-0.023438,-0.062014,2.563477,-4.699707,-19.897461,0,0
7180,2024 10 07,05:25:09.822,0.30611,-0.608067,-0.248735,-0.688972,-0.925321,-0.033204,-0.084475,6.225586,-7.69043,-18.798828,0,0
7181,2024 10 07,05:25:09.830,0.307975,-0.607629,-0.248068,-0.688767,-0.931669,-0.024415,-0.080081,10.925293,-10.620117,-18.859863,0,0
7182,2024 10 07,05:25:09.839,0.307975,-0.607629,-0.248068,-0.688767,-0.931669,-0.024415,-0.080081,10.925293,-10.620117,-18.859863,0,0
7183,2024 10 07,05:25:09.847,0.31011,-0.606812,-0.247501,-0.688734,-0.940947,-0.004395,-0.095218,14.099121,-15.563965,-18.920898,0,0
7184,2024 10 07,05:25:09.855,0.312451,-0.605917,-0.247036,-0.688631,-0.950224,-0.023438,-0.064943,16.418457,-14.526367,-19.958496,0,0
7185,2024 10 07,05:25:09.864,0.315197,-0.604896,-0.246617,-0.688426,-1.006867,-0.018067,-0.059572,21.54541,-17.51709,-23.31543,0,0
7186,2024 10 07,05:25:09.872,0.318494,-0.603645,-0.246071,-0.688203,-1.042512,0.012696,-0.110355,24.475098,-20.690918,-29.052734,0,0
7187,2024 10 07,05:25:09.880,0.322204,-0.602553,-0.2453,-0.687708,-0.995148,0.007813,-0.059084,24.963379,-16.540527,-35.461426,0,0
7188,2024 10 07,05:25:09.889,0.322204,-0.602553,-0.2453,-0.687708,-0.995148,0.007813,-0.059084,24.963379,-16.540527,-35.461426,0,0
7189,2024 10 07,05:25:09.897,0.326388,-0.602178,-0.244718,-0.68627,-1.115757,0.064455,-0.134281,30.761719,-5.67627,-43.579102,0,0
7190,2024 10 07,05:25:09.905,0.331437,-0.600697,-0.243176,-0.685696,-1.121616,0.100101,-0.098148,31.25,-38.757324,-51.696777,0,0
7191,2024 10 07,05:25:09.914,0.336904,-0.599462,-0.240864,-0.684927,-1.042024,0.021973,-0.144536,24.291992,-18.554688,-61.706543,0,0
7192,2024 10 07,05:25:09.922,0.342795,-0.599605,-0.238666,-0.682645,-1.278848,0.140629,-0.219733,27.893066,-9.94873,-74.768066,0,0
7193,2024 10 07,05:25:09.930,0.349515,-0.599698,-0.235198,-0.680356,-1.258339,0.109867,-0.083987,24.536133,-16.418457,-91.064453,0,0
7194,2024 10 07,05:25:09.939,0.349515,-0.599698,-0.235198,-0.680356,-1.258339,0.109867,-0.083987,24.536133,-16.418457,-91.064453,0,0
7195,2024 10 07,05:25:09.947,0.356883,-0.600484,-0.230808,-0.677334,-1.415082,0.148442,-0.24659,20.385742,-9.70459,-107.60498,0,0
7196,2024 10 07,05:25:09.955,0.365175,-0.601365,-0.224885,-0.674117,-1.437056,0.159185,-0.067873,13.305664,-20.019531,-127.13623,0,0
7197,2024 10 07,05:25:09.964,0.374029,-0.602438,-0.217316,-0.670779,-1.511277,0.112796,-0.029298,5.065918,-27.893066,-142.944336,0,0
7198,2024 10 07,05:25:09.972,0.383673,-0.603414,-0.207856,-0.667445,-1.609912,0.132328,-0.070315,-3.967285,-35.827637,-164.001465,0,0
7199,2024 10 07,05:25:09.980,0.394631,-0.604416,-0.196432,-0.663598,-1.729545,0.24366,-0.035157,-10.681152,-46.99707,-191.223145,0,0
7200,2024 10 07,05:25:09.989,0.394631,-0.604416,-0.196432,-0.663598,-1.729545,0.24366,-0.035157,-10.681152,-46.99707,-191.223145,0,0
7201,2024 10 07,05:25:09.997,0.406601,-0.605722,-0.182322,-0.659193,-1.941954,0.380871,-0.048341,-23.31543,-53.344727,-223.632813,0,0
7202,2024 10 07,05:25:10.005,0.420011,-0.607335,-0.165037,-0.653833,-2.211982,0.43849,0.010254,-37.536621,-64.575195,-265.991211,0,0
7203,2024 10 07,05:25:10.014,0.435934,-0.609247,-0.14437,-0.646481,-2.597735,0.529801,-0.233894,-38.94043,-66.345215,-324.279785,0,0
7204,2024 10 07,05:25:10.022,0.456318,-0.610554,-0.120732,-0.635942,-3.007904,0.691916,0.028809,-19.104004,-73.364258,-397.949219,0,0
7205,2024 10 07,05:25:10.030,0.480494,-0.610552,-0.092567,-0.622722,-3.735466,0.589862,-0.132817,-16.296387,-99.365234,-471.923828,0,0
7206,2024 10 07,05:25:10.039,0.480494,-0.610552,-0.092567,-0.622722,-3.735466,0.589862,-0.132817,-16.296387,-99.365234,-471.923828,0,0
7207,2024 10 07,05:25:10.047,0.507987,-0.608533,-0.058815,-0.606776,-3.887814,0.416028,-0.106449,-25.146484,-130.737305,-549.499512,0,0
7208,2024 10 07,05:25:10.055,0.535337,-0.605163,-0.019912,-0.588894,-3.674917,0.040529,-0.133305,-54.016113,-149.353027,-581.115723,0,1
7209,2024 10 07,05:25:10.064,0.561473,-0.6001,0.019662,-0.569421,-3.167089,-0.287118,-0.15479,-43.884277,-155.456543,-579.040527,0,0
7210,2024 10 07,05:25:10.072,0.586306,-0.592445,0.057264,-0.549522,-3.055269,-0.141606,0.290536,-31.25,-150.32959,-556.396484,0,0
7211,2024 10 07,05:25:10.080,0.610512,-0.58302,0.091699,-0.528161,-2.728111,0.850612,0.778832,6.896973,-135.559082,-547.119141,0,0
7212,2024 10 07,05:25:10.089,0.610512,-0.58302,0.091699,-0.528161,-2.728111,0.850612,0.778832,6.896973,-135.559082,-547.119141,0,0
7213,2024 10 07,05:25:10.097,0.632943,-0.572397,0.124143,-0.506294,-1.828181,1.194372,1.190466,6.958008,-120.056152,-525.634766,0,0
7214,2024 10 07,05:25:10.105,0.655095,-0.562198,0.15201,-0.481328,-1.287637,1.04593,1.53618,31.433105,-51.879883,-515.319824,0,0
7215,2024 10 07,05:25:10.114,0.679893,-0.552155,0.173547,-0.45028,-1.374554,0.962432,1.368694,87.646484,43.701172,-547.119141,0,0
7216,2024 10 07,05:25:10.122,0.708059,-0.540024,0.190349,-0.413272,-0.146489,-0.19483,0.231941,121.337891,109.436035,-561.645508,0,0
7217,2024 10 07,05:25:10.130,0.732181,-0.528099,0.193996,-0.383912,0.956572,1.714408,1.100131,166.503906,160.644531,-329.528809,0,0
7218,2024 10 07,05:25:10.139,0.744153,-0.523675,0.182107,-0.372609,0.521012,3.796991,0.157231,117.431641,181.45752,1.037598,0,0
7219,2024 10 07,05:25:10.147,0.744153,-0.523675,0.182107,-0.372609,0.521012,3.796991,0.157231,117.431641,181.45752,1.037598,0,0
7220,2024 10 07,05:25:10.155,0.740394,-0.529861,0.163624,-0.379857,-1.41557,2.352123,-0.255379,-16.723633,104.309082,253.173828,0,0
7221,2024 10 07,05:25:10.164,0.724182,-0.538794,0.14989,-0.403478,-1.938047,1.170446,0.674337,-94.360352,-69.335938,390.808105,0,0
7222,2024 10 07,05:25:10.172,0.701104,-0.546802,0.140226,-0.435659,-1.260781,0.549333,0.465346,-112.548828,-132.995605,447.875977,0,0
7223,2024 10 07,05:25:10.180,0.676016,-0.552493,0.132082,-0.469369,-0.476577,0.242683,0.921903,-99.67041,-166.503906,447.387695,0,0
7224,2024 10 07,05:25:10.189,0.652467,-0.556937,0.122562,-0.499086,0.211432,-0.060549,0.921903,-74.829102,-107.36084,411.376953,0,0
7225,2024 10 07,05:25:10.197,0.652467,-0.556937,0.122562,-0.499086,0.211432,-0.060549,0.921903,-74.829102,-107.36084,411.376953,0,0
7226,2024 10 07,05:25:10.205,0.633567,-0.561704,0.10855,-0.520862,0.333018,-0.13184,0.962432,-31.433105,-12.329102,354.003906,0,0
7227,2024 10 07,05:25:10.214,0.619255,-0.567408,0.090432,-0.535158,0.156255,-0.020997,0.883328,6.530762,76.11084,303.039551,0,0
7228,2024 10 07,05:25:10.222,0.608024,-0.574187,0.068457,-0.543995,-0.297372,0.199713,0.618671,31.677246,138.671875,276.916504,0,0
7229,2024 10 07,05:25:10.230,0.597375,-0.580424,0.045315,-0.551542,-0.756371,0.472671,0.455092,37.963867,135.009766,274.902344,0,0
7230,2024 10 07,05:25:10.239,0.585092,-0.58575,0.022291,-0.560417,-1.019074,0.604511,0.237312,30.944824,120.056152,296.386719,0,0
7231,2024 10 07,05:25:10.247,0.585092,-0.58575,0.022291,-0.560417,-1.019074,0.604511,0.237312,30.944824,120.056152,296.386719,0,0
7232,2024 10 07,05:25:10.255,0.569827,-0.589767,-0.000238,-0.572252,-1.076693,0.560076,0.248054,12.573242,79.833984,333.129883,0,0
7233,2024 10 07,05:25:10.264,0.551226,-0.592583,-0.022265,-0.586941,-0.993683,0.402356,0.224128,-4.02832,56.030273,369.750977,0,0
7234,2024 10 07,05:25:10.272,0.529962,-0.594888,-0.044675,-0.602705,-0.881375,0.221198,0.35255,-13.61084,54.56543,395.080566,0,0
7235,2024 10 07,05:25:10.280,0.507061,-0.597544,-0.068239,-0.617392,-0.855495,0.116703,0.422376,-16.296387,76.538086,404.724121,0,0
7236,2024 10 07,05:25:10.289,0.483356,-0.601191,-0.09306,-0.629505,-1.025422,0.087405,0.473159,-16.296387,111.755371,400.878906,0,0
7237,2024 10 07,05:25:10.297,0.483356,-0.601191,-0.09306,-0.629505,-1.025422,0.087405,0.473159,-16.296387,111.755371,400.878906,0,0
7238,2024 10 07,05:25:10.305,0.459038,-0.606007,-0.118666,-0.638715,-1.290078,0.124516,0.474136,-19.165039,143.005371,392.63916,0,0
7239,2024 10 07,05:25:10.314,0.433839,-0.611723,-0.144331,-0.645559,-1.606006,0.21778,0.359386,-28.625488,163.818359,385.864258,0,0
7240,2024 10 07,05:25:10.322,0.407375,-0.617432,-0.168779,-0.651412,-1.856502,0.245125,0.313486,-47.180176,161.92627,382.080078,0,0
7241,2024 10 07,05:25:10.330,0.379467,-0.622773,-0.191652,-0.656832,-1.98883,0.158208,0.287118,-66.894531,158.325195,381.469727,0,0
7242,2024 10 07,05:25:10.339,0.350053,-0.62777,-0.213371,-0.661695,-2.09772,-0.022462,0.417005,-81.787109,160.827637,385.009766,0,0
7243,2024 10 07,05:25:10.347,0.350053,-0.62777,-0.213371,-0.661695,-2.09772,-0.022462,0.417005,-81.787109,160.827637,385.009766,0,0
7244,2024 10 07,05:25:10.355,0.319117,-0.632726,-0.234782,-0.665357,-2.29255,-0.297861,0.506851,-90.637207,171.691895,392.211914,0,0
7245,2024 10 07,05:25:10.364,0.286912,-0.637358,-0.256256,-0.667674,-2.474685,-0.640645,0.584979,-92.590332,182.922363,400.390625,0,0
7246,2024 10 07,05:25:10.372,0.253981,-0.641508,-0.277577,-0.668514,-2.713462,-1.046907,0.619648,-93.811035,190.368652,402.282715,0,0
7247,2024 10 07,05:25:10.380,0.22103,-0.644892,-0.297652,-0.668328,-2.962981,-1.542039,0.491714,-99.853516,184.020996,393.005371,0,0
7248,2024 10 07,05:25:10.389,0.189176,-0.646889,-0.314812,-0.668312,-3.048433,-2.098209,0.472182,-113.647461,158.874512,367.919922,0,0
7249,2024 10 07,05:25:10.397,0.189176,-0.646889,-0.314812,-0.668312,-3.048433,-2.098209,0.472182,-113.647461,158.874512,367.919922,0,0
7250,2024 10 07,05:25:10.405,0.159199,-0.647901,-0.32802,-0.668792,-2.923429,-2.682699,0.451186,-130.493164,133.117676,329.528809,0,0
7251,2024 10 07,05:25:10.414,0.131863,-0.649115,-0.33645,-0.669376,-2.256905,-3.094821,0.510269,-149.963379,121.337891,270.935059,0,0
7252,2024 10 07,05:25:10.422,0.107021,-0.653382,-0.339863,-0.66793,-1.373577,-3.36729,0.456069,-164.367676,154.785156,198.181152,0,0
7253,2024 10 07,05:25:10.430,0.084358,-0.663324,-0.338475,-0.662057,-0.660665,-3.438581,-0.046388,-171.99707,222.53418,115.600586,0,0
7254,2024 10 07,05:25:10.439,0.063708,-0.680045,-0.332149,-0.650506,-0.898953,-3.717399,-0.451674,-175.170898,315.063477,31.494141,0,0
7255,2024 10 07,05:25:10.447,0.063708,-0.680045,-0.332149,-0.650506,-0.898953,-3.717399,-0.451674,-175.170898,315.063477,31.494141,0,0
7256,2024 10 07,05:25:10.455,0.04661,-0.701465,-0.322271,-0.633969,-1.571825,-4.255013,-0.872097,-162.04834,353.515625,-37.04834,0,0
7257,2024 10 07,05:25:10.464,0.034139,-0.7223,-0.31142,-0.616551,-2.667562,-4.547014,-1.162145,-110.351563,327.087402,-61.523438,0,0
7258,2024 10 07,05:25:10.472,0.029463,-0.736646,-0.302698,-0.604035,-2.638264,-4.13831,-0.986847,-49.743652,188.537598,-70.373535,0,0
7259,2024 10 07,05:25:10.480,0.050072,-0.755837,-0.292031,-0.583884,-5.548997,-2.881924,-8.452406,135.986328,130.67627,-346.740723,0,0
7260,2024 10 07,05:25:10.489,0.086467,-0.737871,-0.265199,-0.614604,-1.369671,-0.800318,1.218299,68.054199,-567.932129,-396.66748,1,0
7261,2024 10 07,05:25:10.497,0.086467,-0.737871,-0.265199,-0.614604,-1.369671,-0.800317,1.218299,68.054199,-567.932129,-396.66748,0,0
7262,2024 10 07,05:25:10.505,0.11299,-0.726956,-0.239291,-0.633647,-1.200232,1.568896,-1.512253,-90.637207,-243.103027,-336.547852,0,0
7263,2024 10 07,05:25:10.514,0.128531,-0.722438,-0.213816,-0.644861,-2.644612,0.128422,-0.538591,-28.015137,-216.186523,-297.607422,0,0
7264,2024 10 07,05:25:10.522,0.146252,-0.708875,-0.192108,-0.662723,-1.81988,-1.245155,-0.143559,-31.616211,-345.153809,-225.219727,0,0
7265,2024 10 07,05:25:10.530,0.158881,-0.694606,-0.177692,-0.678752,-1.6021,-0.262215,1.477096,-42.419434,-251.831055,-121.154785,0,0
7266,2024 10 07,05:25:10.539,0.158408,-0.683618,-0.165387,-0.69298,-0.98294,-0.269539,-0.117679,-124.755859,-235.168457,-22.399902,0,0
7267,2024 10 07,05:25:10.547,0.155875,-0.671528,-0.153734,-0.707897,0.322275,-0.416028,-1.925352,-103.820801,-212.158203,-23.376465,0,0
7268,2024 10 07,05:25:10.555,0.155875,-0.671528,-0.153734,-0.707897,0.322275,-0.416028,-1.925352,-103.820801,-212.158203,-23.376465,0,0
7269,2024 10 07,05:25:10.564,0.158906,-0.665175,-0.148766,-0.714255,-0.426283,0.095218,0.201178,10.070801,-61.889648,-40.283203,0,0
7270,2024 10 07,05:25:10.572,0.158412,-0.665257,-0.1456,-0.714941,-1.474166,-0.261727,0.061037,-57.128906,-23.4375,-12.207031,0,0
7271,2024 10 07,05:25:10.580,0.159661,-0.660546,-0.142755,-0.719589,-0.502457,0.275399,-0.115238,12.634277,-80.383301,-17.211914,0,0
7272,2024 10 07,05:25:10.589,0.159992,-0.658907,-0.141114,-0.72134,-1.017609,-0.048341,-0.143071,-12.145996,-20.690918,-9.399414,0,0
7273,2024 10 07,05:25:10.597,0.161047,-0.657186,-0.139552,-0.722977,-0.761254,0.098148,-0.232917,-12.939453,-33.752441,-15.991211,0,0
7274,2024 10 07,05:25:10.605,0.161047,-0.657186,-0.139552,-0.722977,-0.761254,0.098148,-0.232917,-12.939453,-33.752441,-15.991211,0,0
7275,2024 10 07,05:25:10.614,0.161507,-0.656811,-0.137711,-0.723568,-0.979522,0.067873,0.080569,-5.737305,-1.281738,-17.028809,0,0
7276,2024 10 07,05:25:10.622,0.162209,-0.657108,-0.13619,-0.72343,-1.019074,-0.034669,-0.073733,-10.131836,-6.774902,-18.554688,0,0
7277,2024 10 07,05:25:10.630,0.163405,-0.65669,-0.134598,-0.723837,-0.935087,0.037111,-0.007813,-3.417969,-8.972168,-21.057129,0,0
7278,2024 10 07,05:25:10.639,0.164645,-0.656814,-0.133164,-0.723709,-0.960967,0.046876,-0.050783,-2.929688,-2.258301,-21.972656,0,0
7279,2024 10 07,05:25:10.647,0.165837,-0.656866,-0.131528,-0.723689,-0.957549,0.053224,-0.084964,-5.79834,-5.187988,-23.071289,0,0
7280,2024 10 07,05:25:10.655,0.165837,-0.656866,-0.131528,-0.723689,-0.957549,0.053224,-0.084964,-5.79834,-5.187988,-23.071289,0,0
7281,2024 10 07,05:25:10.664,0.166859,-0.656914,-0.129673,-0.723745,-0.949736,0.047853,-0.02002,-8.239746,-4.943848,-22.644043,0,0
7282,2024 10 07,05:25:10.672,0.167577,-0.657103,-0.127637,-0.723769,-0.932157,0.021485,-0.113285,-13.244629,-3.967285,-21.54541,0,0
7283,2024 10 07,05:25:10.680,0.1682,-0.657398,-0.125459,-0.723738,-0.863308,0.031739,-0.120121,-16.113281,-1.159668,-22.583008,0,0
7284,2024 10 07,05:25:10.689,0.168664,-0.658387,-0.123133,-0.72313,-0.933134,0.092776,-0.202643,-16.418457,11.230469,-25.817871,0,0
7285,2024 10 07,05:25:10.697,0.169262,-0.659889,-0.120598,-0.722048,-0.928739,0.005371,-0.106937,-16.479492,17.333984,-29.663086,0,0
7286,2024 10 07,05:25:10.705,0.169262,-0.659889,-0.120598,-0.722048,-0.928739,0.005371,-0.106937,-16.479492,17.333984,-29.663086,0,0
7287,2024 10 07,05:25:10.714,0.170436,-0.661687,-0.118274,-0.720509,-0.964385,0.018067,-0.116703,-10.437012,19.958496,-34.179688,0,0
7288,2024 10 07,05:25:10.722,0.171941,-0.663215,-0.116012,-0.719113,-0.949736,-0.038575,-0.082034,-7.080078,16.540527,-34.606934,0,0
7289,2024 10 07,05:25:10.730,0.173869,-0.66455,-0.114088,-0.717723,-0.992706,-0.019044,-0.035157,-0.976563,14.099121,-35.095215,0,0
7290,2024 10 07,05:25:10.739,0.176033,-0.665304,-0.112317,-0.716776,-0.961943,-0.073733,-0.037599,2.380371,3.662109,-34.301758,0,0
7291,2024 10 07,05:25:10.747,0.178603,-0.665463,-0.110796,-0.716229,-0.956572,-0.028809,-0.048341,7.93457,-2.075195,-33.996582,0,0
7292,2024 10 07,05:25:10.755,0.178603,-0.665463,-0.110796,-0.716229,-0.956572,-0.028809,-0.048341,7.93457,-2.075195,-33.996582,0,0
7293,2024 10 07,05:25:10.764,0.181217,-0.665342,-0.109327,-0.71591,-0.954619,-0.028809,-0.053713,8.850098,-6.04248,-33.508301,0,0
7294,2024 10 07,05:25:10.772,0.183817,-0.665097,-0.107862,-0.715697,-0.924833,-0.040529,-0.070315,8.178711,-7.019043,-32.653809,0,0
7295,2024 10 07,05:25:10.780,0.186369,-0.664757,-0.106345,-0.715581,-0.887234,-0.037111,-0.063478,7.568359,-8.300781,-32.165527,0,0
7296,2024 10 07,05:25:10.789,0.188836,-0.664498,-0.104812,-0.715401,-0.91409,-0.06006,-0.057131,6.835938,-6.591797,-32.226563,0,0
7297,2024 10 07,05:25:10.797,0.191228,-0.664275,-0.103287,-0.715194,-0.930204,-0.050295,-0.058107,6.713867,-6.713867,-31.738281,0,0
7298,2024 10 07,05:25:10.805,0.191228,-0.664275,-0.103287,-0.715194,-0.930204,-0.050295,-0.058107,6.713867,-6.713867,-31.738281,0,0
7299,2024 10 07,05:25:10.814,0.193563,-0.664014,-0.101839,-0.715016,-0.911649,-0.0459,-0.061525,7.141113,-7.019043,-30.578613,0,0
7300,2024 10 07,05:25:10.822,0.195824,-0.663719,-0.10047,-0.714868,-0.882839,-0.072268,-0.056642,7.263184,-6.958008,-29.23584,0,0
7301,2024 10 07,05:25:10.830,0.198022,-0.663353,-0.099221,-0.714776,-0.897,-0.06885,-0.073733,7.507324,-8.178711,-27.160645,0,0
7302,2024 10 07,05:25:10.839,0.200152,-0.662843,-0.097997,-0.714825,-0.897488,-0.091311,-0.062502,7.019043,-10.375977,-26.062012,0,0
7303,2024 10 07,05:25:10.847,0.202241,-0.662296,-0.096781,-0.714909,-0.913114,-0.102054,-0.085452,6.591797,-10.375977,-25.57373,0,0
7304,2024 10 07,05:25:10.855,0.202241,-0.662296,-0.096781,-0.714909,-0.913114,-0.102054,-0.085452,6.591797,-10.375977,-25.57373,0,0
7305,2024 10 07,05:25:10.864,0.204427,-0.661698,-0.095568,-0.715005,-0.940947,-0.073244,-0.053224,7.385254,-11.047363,-26.428223,0,0
7306,2024 10 07,05:25:10.872,0.206729,-0.661176,-0.094245,-0.715002,-0.991729,-0.073244,-0.079104,8.361816,-9.70459,-29.418945,0,0
7307,2024 10 07,05:25:10.880,0.20937,-0.660571,-0.09266,-0.714999,-0.989288,-0.059084,-0.100589,7.263184,-12.390137,-34.301758,0,0
7308,2024 10 07,05:25:10.889,0.212447,-0.660125,-0.090792,-0.714743,-1.018098,-0.048341,-0.093265,9.033203,-8.361816,-41.442871,0,0
7309,2024 10 07,05:25:10.897,0.216053,-0.659761,-0.088546,-0.71428,-1.087924,-0.019532,-0.080081,10.375977,-9.82666,-49.926758,0,0
7310,2024 10 07,05:25:10.905,0.216053,-0.659761,-0.088546,-0.71428,-1.087924,-0.019532,-0.080081,10.375977,-9.82666,-49.926758,0,0
7311,2024 10 07,05:25:10.914,0.219998,-0.659434,-0.085656,-0.713731,-1.096225,-0.034669,-0.104007,7.507324,-9.399414,-58.59375,0,0
7312,2024 10 07,05:25:10.922,0.224392,-0.659444,-0.082107,-0.712769,-1.184606,-0.034181,-0.101566,2.868652,-5.92041,-68.725586,0,0
7313,2024 10 07,05:25:10.930,0.229191,-0.65964,-0.077623,-0.711563,-1.308145,-0.022462,-0.104007,-1.281738,-5.554199,-80.993652,0,0
7314,2024 10 07,05:25:10.939,0.234934,-0.65988,-0.072112,-0.710045,-1.445845,-0.001953,-0.070803,-1.342773,-7.873535,-99.121094,0,0
7315,2024 10 07,05:25:10.947,0.242069,-0.659772,-0.06532,-0.708405,-1.451216,0.01709,-0.045412,0.183105,-16.113281,-121.398926,0,0
7316,2024 10 07,05:25:10.955,0.25067,-0.659325,-0.057058,-0.70654,-1.539109,0.079104,-0.057619,0.671387,-20.996094,-145.935059,0,0
7317,2024 10 07,05:25:10.964,0.25067,-0.659325,-0.057058,-0.70654,-1.539109,0.079104,-0.057619,0.671387,-20.996094,-145.935059,0,0
7318,2024 10 07,05:25:10.972,0.260748,-0.658523,-0.04703,-0.704376,-1.708548,0.155766,-0.023927,-2.319336,-28.747559,-173.583984,0,0
7319,2024 10 07,05:25:10.980,0.272921,-0.657151,-0.034953,-0.701744,-1.990295,0.21485,-0.010743,0.793457,-38.574219,-210.266113,0,0
7320,2024 10 07,05:25:10.989,0.287859,-0.654395,-0.020246,-0.698924,-2.323801,0.303232,0.1377,4.02832,-60.60791,-255.187988,0,0
7321,2024 10 07,05:25:10.997,0.305823,-0.65002,-0.002106,-0.695659,-2.835047,0.384777,0.219245,5.79834,-83.374023,-310.241699,0,0
7322,2024 10 07,05:25:11.005,0.327184,-0.642864,0.02028,-0.69229,-3.291604,0.442396,0.459487,5.554199,-126.281738,-373.657227,0,0
7323,2024 10 07,05:25:11.014,0.327184,-0.642864,0.02028,-0.69229,-3.291604,0.442396,0.459487,5.554199,-126.281738,-373.657227,0,0
7324,2024 10 07,05:25:11.022,0.351522,-0.632447,0.04767,-0.6886,-3.862911,0.451674,0.259285,1.831055,-168.518066,-438.110352,0,0
7325,2024 10 07,05:25:11.030,0.377525,-0.617543,0.080197,-0.685335,-3.840938,0.218757,0.236824,-16.052246,-232.48291,-485.107422,0,0
7326,2024 10 07,05:25:11.039,0.40303,-0.598586,0.116573,-0.682402,-3.45616,-0.211432,0.258309,-25.634766,-277.22168,-505.249023,0,1
7327,2024 10 07,05:25:11.047,0.428062,-0.57701,0.153522,-0.67842,-2.75985,-0.684591,0.298349,-19.836426,-276.794434,-502.868652,0,0
7328,2024 10 07,05:25:11.055,0.45205,-0.554566,0.187193,-0.673102,-3.188086,-0.153813,0.327158,-1.525879,-270.629883,-477.172852,0,0
7329,2024 10 07,05:25:11.064,0.45205,-0.554566,0.187193,-0.673102,-3.188086,-0.153813,0.327158,-1.525879,-270.629883,-477.172852,0,0
7330,2024 10 07,05:25:11.072,0.473691,-0.530021,0.219393,-0.668252,-2.874111,0.504898,0.932646,9.58252,-292.724609,-458.251953,0,0
7331,2024 10 07,05:25:11.080,0.493297,-0.504378,0.249828,-0.66321,-2.224189,1.100131,1.341349,18.249512,-282.958984,-435.119629,0,0
7332,2024 10 07,05:25:11.089,0.512046,-0.479035,0.278062,-0.656518,-1.330607,1.627491,1.740288,22.216797,-262.756348,-426.330566,0,0
7333,2024 10 07,05:25:11.097,0.530974,-0.456934,0.303455,-0.645904,-1.02884,1.195349,1.46147,13.61084,-173.583984,-424.621582,0,0
7334,2024 10 07,05:25:11.105,0.554273,-0.436107,0.325507,-0.629791,0.045412,0.451186,0.975616,28.930664,-118.835449,-479.919434,0,0
7335,2024 10 07,05:25:11.114,0.554273,-0.436107,0.325507,-0.629791,0.045412,0.451186,0.975616,28.930664,-118.835449,-479.919434,0,0
7336,2024 10 07,05:25:11.122,0.575213,-0.4199,0.340152,-0.614093,2.044008,0.777856,0.844752,65.795898,-22.216797,-323.486328,0,0
7337,2024 10 07,05:25:11.130,0.585919,-0.415933,0.338745,-0.607413,1.416547,2.668539,0.49855,48.278809,83.862305,-51.940918,0,0
7338,2024 10 07,05:25:11.139,0.582433,-0.425484,0.328344,-0.609857,-0.411145,2.139225,0.11475,-23.254395,114.807129,187.927246,0,0
7339,2024 10 07,05:25:11.147,0.564299,-0.442406,0.316044,-0.621257,-1.824763,1.360393,0.269051,-91.61377,52.67334,356.933594,0,0
7340,2024 10 07,05:25:11.155,0.533822,-0.456954,0.308412,-0.641177,-1.73394,0.590838,0.970733,-129.638672,-101.745605,444.335938,0,0
7341,2024 10 07,05:25:11.164,0.533822,-0.456954,0.308412,-0.641177,-1.73394,0.590838,0.970733,-129.638672,-101.745605,444.335938,0,0
7342,2024 10 07,05:25:11.172,0.498989,-0.469005,0.30157,-0.6634,-1.433149,0.173345,0.353038,-125.244141,-120.849609,464.050293,0,0
7343,2024 10 07,05:25:11.180,0.4636,-0.477222,0.295309,-0.685658,-0.714866,-0.030274,0.861354,-104.675293,-146.850586,445.922852,0,0
7344,2024 10 07,05:25:11.189,0.432049,-0.484489,0.287147,-0.70438,-0.226081,-0.190924,0.840358,-70.495605,-99.79248,402.526855,0,0
7345,2024 10 07,05:25:11.197,0.405862,-0.492042,0.276482,-0.718838,-0.024903,-0.230476,1.000031,-35.27832,-36.560059,355.407715,0,0
7346,2024 10 07,05:25:11.205,0.38489,-0.50123,0.262607,-0.729154,-0.219733,-0.084475,0.873074,-1.953125,25.756836,321.411133,0,0
7347,2024 10 07,05:25:11.214,0.38489,-0.50123,0.262607,-0.729154,-0.219733,-0.084475,0.873074,-1.953125,25.756836,321.411133,0,0
7348,2024 10 07,05:25:11.222,0.366599,-0.511466,0.246436,-0.737073,-0.470717,0.1919,0.698752,16.052246,61.828613,308.532715,0,0
7349,2024 10 07,05:25:11.230,0.348562,-0.522481,0.228818,-0.743747,-0.837916,0.448744,0.46437,16.479492,75.073242,314.331055,0,0
7350,2024 10 07,05:25:11.239,0.327976,-0.532991,0.211296,-0.750804,-0.981964,0.500992,0.456557,-0.427246,55.786133,337.890625,0,0
7351,2024 10 07,05:25:11.247,0.303734,-0.542862,0.194167,-0.758516,-1.026399,0.413587,0.365246,-26.550293,32.226563,368.835449,0,0
7352,2024 10 07,05:25:11.255,0.275876,-0.551787,0.177956,-0.766652,-0.947295,0.264168,0.488296,-51.513672,16.845703,391.357422,0,0
7353,2024 10 07,05:25:11.264,0.275876,-0.551787,0.177956,-0.766652,-0.947295,0.264168,0.488296,-51.513672,16.845703,391.357422,0,0
7354,2024 10 07,05:25:11.272,0.24601,-0.560948,0.162242,-0.773624,-0.893094,0.121586,0.626484,-67.932129,24.169922,400.20752,0,0
7355,2024 10 07,05:25:11.280,0.215518,-0.570974,0.146894,-0.778436,-0.961943,0.029786,0.749535,-80.383301,46.569824,397.155762,0,0
7356,2024 10 07,05:25:11.289,0.185183,-0.5824,0.131967,-0.78045,-1.080599,0.037599,0.767602,-91.125488,78.063965,387.329102,0,0
7357,2024 10 07,05:25:11.297,0.155059,-0.595314,0.117751,-0.779546,-1.328166,0.07178,0.783715,-104.370117,108.032227,376.953125,0,0
7358,2024 10 07,05:25:11.305,0.124644,-0.609148,0.104587,-0.776186,-1.580615,0.061525,0.784204,-122.253418,127.441406,369.750977,0,0
7359,2024 10 07,05:25:11.314,0.124644,-0.609148,0.104587,-0.776186,-1.580615,0.061525,0.784204,-122.253418,127.441406,369.750977,0,0
7360,2024 10 07,05:25:11.322,0.093581,-0.62339,0.092632,-0.770744,-1.835017,0.008301,0.809107,-140.991211,142.211914,365.539551,0,0
7361,2024 10 07,05:25:11.330,0.061475,-0.637702,0.081865,-0.76345,-2.059633,-0.183599,0.875027,-160.888672,152.770996,365.905762,0,0
7362,2024 10 07,05:25:11.339,0.028371,-0.651828,0.072084,-0.7544,-2.27546,-0.563494,0.986358,-177.490234,160.461426,368.164063,0,0
7363,2024 10 07,05:25:11.347,-0.005469,-0.665459,0.062844,-0.743764,-2.459548,-1.083041,1.076693,-187.133789,167.175293,372.741699,0,0
7364,2024 10 07,05:25:11.355,-0.039647,-0.678414,0.053988,-0.73162,-2.594806,-1.578173,1.11478,-193.603516,172.241211,374.694824,0,0
7365,2024 10 07,05:25:11.364,-0.073411,-0.69053,0.045807,-0.718109,-2.58504,-2.056215,1.103061,-197.021484,175.65918,366.943359,0,0
7366,2024 10 07,05:25:11.372,-0.073411,-0.69053,0.045807,-0.718109,-2.58504,-2.056215,1.103061,-197.021484,175.65918,366.943359,0,0
7367,2024 10 07,05:25:11.380,-0.105889,-0.701349,0.039012,-0.703828,-2.393139,-2.557695,1.116245,-199.829102,171.569824,344.421387,0,0
7368,2024 10 07,05:25:11.389,-0.135365,-0.71115,0.035015,-0.688996,-1.894101,-3.048433,0.923368,-199.890137,179.382324,293.029785,0,0
7369,2024 10 07,05:25:11.397,-0.159472,-0.72255,0.035692,-0.671727,-1.764214,-3.430769,0.685568,-188.781738,232.727051,214.172363,0,0
7370,2024 10 07,05:25:11.405,-0.177791,-0.735873,0.042069,-0.652005,-1.717826,-3.675405,0.207038,-185.546875,277.954102,129.333496,0,0
7371,2024 10 07,05:25:11.414,-0.191332,-0.749593,0.053718,-0.631361,-1.695853,-3.893673,-0.303232,-185.058594,297.058105,55.725098,0,0
7372,2024 10 07,05:25:11.422,-0.191332,-0.749593,0.053718,-0.631361,-1.695853,-3.893673,-0.303232,-185.058594,297.058105,55.725098,0,0
7373,2024 10 07,05:25:11.430,-0.200855,-0.76147,0.069283,-0.612389,-1.400922,-4.091434,-0.499039,-181.091309,271.789551,-9.70459,0,0
7374,2024 10 07,05:25:11.439,-0.206357,-0.771183,0.087728,-0.595816,-3.045015,-5.336589,-0.39552,-162.536621,254.211426,-66.894531,0,0
7375,2024 10 07,05:25:11.447,-0.196014,-0.780214,0.114065,-0.582952,-3.448347,-5.338054,-3.190527,-83.862305,182.983398,-268.371582,0,0
7376,2024 10 07,05:25:11.455,-0.181547,-0.773491,0.143841,-0.589968,-4.511368,-6.592975,-2.443922,-83.129883,-25.45166,-377.746582,1,0
7377,2024 10 07,05:25:11.464,-0.167063,-0.751368,0.162803,-0.617278,-2.624592,0.602069,2.625568,72.32666,-434.570313,-293.945313,0,0
7378,2024 10 07,05:25:11.472,-0.167063,-0.751368,0.162803,-0.617278,-2.624592,0.602069,2.625568,72.32666,-434.570313,-293.945313,0,0
7379,2024 10 07,05:25:11.480,-0.16835,-0.723014,0.16995,-0.648094,-0.962432,-0.909207,1.42143,-50.598145,-435.913086,-108.520508,0,0
7380,2024 10 07,05:25:11.489,-0.167652,-0.707719,0.170429,-0.664817,-1.043489,-0.986847,-1.783746,-6.286621,-220.76416,-52.490234,0,0
7381,2024 10 07,05:25:11.497,-0.169588,-0.693933,0.168992,-0.679072,-0.208502,0.617695,-0.068362,-40.283203,-198.059082,-19.836426,0,0
7382,2024 10 07,05:25:11.505,-0.174172,-0.686328,0.173497,-0.684483,-0.702658,-0.178228,-0.661641,-68.786621,-80.810547,-32.531738,0,0
7383,2024 10 07,05:25:11.514,-0.175076,-0.681084,0.17665,-0.688671,-0.78811,-0.07178,0.076662,-19.836426,-61.035156,-35.400391,0,0
7384,2024 10 07,05:25:11.522,-0.175076,-0.681084,0.17665,-0.688671,-0.78811,-0.07178,0.076662,-19.836426,-61.035156,-35.400391,0,0
7385,2024 10 07,05:25:11.530,-0.176193,-0.677165,0.179178,-0.691592,-0.844264,-0.177252,-0.170415,-41.381836,-52.368164,-19.53125,0,0
7386,2024 10 07,05:25:11.539,-0.177044,-0.673956,0.18062,-0.694129,-0.833522,-0.123539,0.034669,-4.760742,-34.851074,-14.953613,0,0
7387,2024 10 07,05:25:11.547,-0.176343,-0.672763,0.180969,-0.695373,-1.028352,0.076662,-0.066897,-2.624512,-16.601563,-12.207031,0,0
7388,2024 10 07,05:25:11.555,-0.176271,-0.670559,0.181443,-0.697393,-0.859401,0.107425,-0.195318,0.061035,-35.461426,-14.282227,0,0
7389,2024 10 07,05:25:11.564,-0.176077,-0.66879,0.182261,-0.698926,-0.929228,0.011231,0.007813,-7.629395,-16.357422,-15.625,0,0
7390,2024 10 07,05:25:11.572,-0.176077,-0.66879,0.182261,-0.698926,-0.929228,0.011231,0.007813,-7.629395,-16.357422,-15.625,0,0
7391,2024 10 07,05:25:11.580,-0.175444,-0.667911,0.183398,-0.699628,-1.015168,0.06299,-0.056642,-4.272461,-9.460449,-17.76123,0,0
7392,2024 10 07,05:25:11.589,-0.174696,-0.666786,0.184679,-0.700551,-0.953642,0.043458,0.011719,-4.882813,-11.535645,-21.42334,0,0
7393,2024 10 07,05:25:11.597,-0.173828,-0.665879,0.18625,-0.701213,-0.952666,0.051271,-0.052736,-7.385254,-6.835938,-22.766113,0,0
7394,2024 10 07,05:25:11.605,-0.173061,-0.664911,0.188102,-0.701827,-0.902371,0.060549,-0.081057,-9.82666,-6.103516,-24.353027,0,0
7395,2024 10 07,05:25:11.614,-0.172394,-0.664285,0.190369,-0.701973,-0.927763,0.066897,-0.074709,-15.869141,2.13623,-24.841309,0,0
7396,2024 10 07,05:25:11.622,-0.172394,-0.664285,0.190369,-0.701973,-0.927763,0.066897,-0.074709,-15.869141,2.13623,-24.841309,0,0
7397,2024 10 07,05:25:11.630,-0.17189,-0.66392,0.193225,-0.701661,-0.944365,0.014161,-0.038087,-22.094727,7.141113,-26.733398,0,0
7398,2024 10 07,05:25:11.639,-0.170998,-0.663877,0.196421,-0.701031,-0.983917,0.04297,-0.133793,-20.263672,14.831543,-32.165527,0,0
7399,2024 10 07,05:25:11.647,-0.169718,-0.663728,0.199814,-0.700526,-0.991729,0.041993,-0.137211,-17.211914,12.207031,-37.414551,0,0
7400,2024 10 07,05:25:11.655,-0.167841,-0.663598,0.203256,-0.70011,-0.898953,-0.013672,-0.152348,-13.916016,14.465332,-41.931152,0,0
7401,2024 10 07,05:25:11.664,-0.165462,-0.6638,0.20661,-0.699503,-0.928251,-0.005371,-0.135746,-8.850098,20.507813,-43.395996,0,0
7402,2024 10 07,05:25:11.672,-0.165462,-0.6638,0.20661,-0.699503,-0.928251,-0.005371,-0.135746,-8.850098,20.507813,-43.395996,0,0
7403,2024 10 07,05:25:11.680,-0.162844,-0.664146,0.209838,-0.698827,-0.916044,-0.021973,-0.096683,-6.774902,20.324707,-43.762207,0,0
7404,2024 10 07,05:25:11.689,-0.160179,-0.664554,0.212966,-0.698108,-0.923856,-0.043458,-0.078616,-5.493164,22.216797,-42.84668,0,0
7405,2024 10 07,05:25:11.697,-0.157427,-0.665009,0.215917,-0.697395,-0.923368,-0.052736,-0.02002,-3.417969,20.996094,-41.870117,0,0
7406,2024 10 07,05:25:11.705,-0.154722,-0.665391,0.218687,-0.696772,-0.95999,-0.057619,-0.023438,-2.441406,18.798828,-40.588379,0,0
7407,2024 10 07,05:25:11.714,-0.152086,-0.6655,0.221319,-0.696418,-0.975127,-0.062014,-0.001465,-1.403809,13.73291,-40.405273,0,0
7408,2024 10 07,05:25:11.722,-0.152086,-0.6655,0.221319,-0.696418,-0.975127,-0.062014,-0.001465,-1.403809,13.73291,-40.405273,0,0
7409,2024 10 07,05:25:11.730,-0.14959,-0.665201,0.223749,-0.696468,-0.936064,-0.085452,-0.018555,-0.427246,5.859375,-39.245605,0,0
7410,2024 10 07,05:25:11.739,-0.147234,-0.664518,0.225903,-0.696926,-0.864772,-0.091311,0.001465,1.098633,-0.12207,-37.17041,0,0
7411,2024 10 07,05:25:11.747,-0.145139,-0.663831,0.227856,-0.697385,-0.883328,-0.095218,-0.002441,0.183105,-0.244141,-33.26416,0,0
7412,2024 10 07,05:25:11.755,-0.143189,-0.663118,0.229631,-0.697883,-0.940947,-0.084475,-0.014649,0.793457,-2.13623,-31.616211,0,0
7413,2024 10 07,05:25:11.764,-0.141298,-0.6622,0.231294,-0.698591,-0.934111,-0.092776,-0.011719,1.831055,-5.432129,-31.616211,0,0
7414,2024 10 07,05:25:11.772,-0.139363,-0.661114,0.232878,-0.699481,-0.903836,-0.104495,-0.032228,2.685547,-8.483887,-31.982422,0,0
7415,2024 10 07,05:25:11.780,-0.139363,-0.661114,0.232878,-0.699481,-0.903836,-0.104495,-0.032228,2.685547,-8.483887,-31.982422,0,0
7416,2024 10 07,05:25:11.789,-0.137331,-0.660038,0.234371,-0.7004,-0.935575,-0.086428,-0.034181,4.333496,-6.713867,-32.165527,0,0
7417,2024 10 07,05:25:11.797,-0.135192,-0.659023,0.235923,-0.70125,-0.980499,-0.080569,-0.029786,4.333496,-6.04248,-33.874512,0,0
7418,2024 10 07,05:25:11.805,-0.132775,-0.65792,0.237666,-0.702159,-0.964385,-0.066408,-0.066897,5.249023,-6.469727,-38.574219,0,0
7419,2024 10 07,05:25:11.814,-0.130104,-0.656741,0.239627,-0.703095,-0.957549,-0.089358,-0.049806,4.943848,-5.432129,-42.236328,0,0
7420,2024 10 07,05:25:11.822,-0.127137,-0.655641,0.241841,-0.703906,-1.037629,-0.069826,-0.063967,4.699707,-3.112793,-46.325684,0,0
7421,2024 10 07,05:25:11.830,-0.127137,-0.655641,0.241841,-0.703906,-1.037629,-0.069826,-0.063967,4.699707,-3.112793,-46.325684,0,0
7422,2024 10 07,05:25:11.839,-0.123886,-0.654307,0.244374,-0.704852,-1.086459,-0.08301,-0.024903,4.821777,-5.79834,-52.67334,0,0
7423,2024 10 07,05:25:11.847,-0.120181,-0.652644,0.247205,-0.706047,-1.084506,-0.0918,-0.018555,6.103516,-8.483887,-59.997559,0,0
7424,2024 10 07,05:25:11.855,-0.115975,-0.650716,0.250355,-0.707419,-1.140172,-0.097659,0.004395,7.507324,-10.192871,-67.565918,0,0
7425,2024 10 07,05:25:11.864,-0.111213,-0.648368,0.253887,-0.709078,-1.193884,-0.068361,-0.049806,8.483887,-14.282227,-77.392578,0,0
7426,2024 10 07,05:25:11.872,-0.105697,-0.645492,0.25797,-0.71107,-1.18363,-0.033204,-0.075686,9.94873,-17.028809,-90.576172,0,0
7427,2024 10 07,05:25:11.880,-0.105697,-0.645492,0.25797,-0.71107,-1.18363,-0.033204,-0.075686,9.94873,-17.028809,-90.576172,0,0
7428,2024 10 07,05:25:11.889,-0.099324,-0.642329,0.262888,-0.713049,-1.228065,0.00293,-0.059084,9.155273,-14.770508,-105.102539,0,0
7429,2024 10 07,05:25:11.897,-0.091834,-0.639047,0.26886,-0.714772,-1.387738,0.041993,-0.157231,7.8125,-8.300781,-123.901367,0,0
7430,2024 10 07,05:25:11.905,-0.082838,-0.635186,0.276151,-0.716531,-1.537645,0.091311,-0.125004,6.835938,-9.277344,-150.390625,0,0
7431,2024 10 07,05:25:11.914,-0.071987,-0.630545,0.285292,-0.718219,-1.692923,0.165532,-0.15772,3.479004,-5.79834,-183.776855,0,0
7432,2024 10 07,05:25:11.922,-0.058789,-0.624739,0.296535,-0.719939,-1.876034,0.229987,-0.210944,2.563477,-9.82666,-224.914551,0,0
7433,2024 10 07,05:25:11.930,-0.058789,-0.624739,0.296535,-0.719939,-1.876034,0.229987,-0.210944,2.563477,-9.82666,-224.914551,0,0
7434,2024 10 07,05:25:11.939,-0.043083,-0.617099,0.310261,-0.721853,-2.116764,0.325694,-0.104007,0.12207,-11.71875,-272.705078,0,0
7435,2024 10 07,05:25:11.947,-0.023791,-0.608046,0.326957,-0.723058,-2.644124,0.497574,-0.31251,-3.601074,-7.751465,-333.557129,0,0
7436,2024 10 07,05:25:11.955,-0.001293,-0.59565,0.347269,-0.724296,-2.847255,0.410169,-0.336924,-14.282227,-24.108887,-400.939941,0,0
7437,2024 10 07,05:25:11.964,0.024,-0.579762,0.371256,-0.724892,-2.935637,0.321299,-0.310068,-30.151367,-38.208008,-460.876465,0,0
7438,2024 10 07,05:25:11.972,0.050644,-0.560921,0.398002,-0.724153,-3.000092,0.286142,-0.61916,-50.048828,-49.194336,-498.535156,0,0
7439,2024 10 07,05:25:11.980,0.050644,-0.560921,0.398002,-0.724153,-3.000092,0.286142,-0.61916,-50.048828,-49.194336,-498.535156,0,0
7440,2024 10 07,05:25:11.989,0.076958,-0.538632,0.426823,-0.72234,-2.646565,0.010254,-0.322764,-72.814941,-70.43457,-522.216797,0,0
7441,2024 10 07,05:25:11.997,0.103875,-0.515188,0.455858,-0.71832,-2.837977,-0.142094,-0.339366,-72.631836,-60.791016,-530.395508,0,1
7442,2024 10 07,05:25:12.005,0.129645,-0.490222,0.483311,-0.713641,-2.56209,0.338389,-0.399915,-77.026367,-84.716797,-519.226074,0,0
7443,2024 10 07,05:25:12.014,0.15264,-0.464341,0.511205,-0.706935,-2.448805,0.603046,0.365246,-100.708008,-80.078125,-507.202148,0,0
7444,2024 10 07,05:25:12.022,0.175998,-0.44002,0.536253,-0.698455,-2.45613,1.241249,0.210944,-80.26123,-65.551758,-487.976074,0,0
7445,2024 10 07,05:25:12.030,0.175998,-0.44002,0.536253,-0.698455,-2.45613,1.241249,0.210944,-80.26123,-65.551758,-487.976074,0,0
7446,2024 10 07,05:25:12.039,0.195139,-0.413265,0.560164,-0.690904,-1.860408,1.439985,0.67336,-84.655762,-112.426758,-463.745117,0,0
7447,2024 10 07,05:25:12.047,0.211851,-0.385799,0.581766,-0.683978,-1.010773,1.801324,1.1348,-65.185547,-143.310547,-424.377441,0,0
7448,2024 10 07,05:25:12.055,0.215849,-0.357375,0.600797,-0.681715,1.466842,1.866756,1.410688,-81.848145,-264.526367,-264.709473,0,0
7449,2024 10 07,05:25:12.064,0.203959,-0.341889,0.613025,-0.682431,0.652852,0.958037,0.720237,-75.256348,-197.265625,13.48877,0,0
7450,2024 10 07,05:25:12.072,0.189382,-0.346521,0.612107,-0.685115,-0.913602,1.011261,0.878933,-39.245605,-70.800781,194.824219,0,0
7451,2024 10 07,05:25:12.080,0.189382,-0.346521,0.612107,-0.685115,-0.913602,1.011261,0.878933,-39.245605,-70.800781,194.824219,0,0
7452,2024 10 07,05:25:12.089,0.166635,-0.353801,0.607089,-0.691738,-0.296884,0.375988,1.327189,-2.01416,-119.32373,273.31543,0,0
7453,2024 10 07,05:25:12.097,0.145743,-0.363979,0.596996,-0.69991,-0.560564,0.178716,0.861843,50.720215,-75.317383,293.334961,0,0
7454,2024 10 07,05:25:12.105,0.126898,-0.374081,0.583267,-0.709761,-0.647969,0.190924,1.01175,100.219727,-59.631348,289.0625,0,0
7455,2024 10 07,05:25:12.114,0.110086,-0.384667,0.56646,-0.720441,-0.74514,0.421888,0.757836,131.103516,-53.039551,293.457031,0,0
7456,2024 10 07,05:25:12.122,0.091454,-0.394598,0.547636,-0.732136,-0.689962,0.605976,0.700705,142.089844,-73.059082,318.786621,0,0
7457,2024 10 07,05:25:12.130,0.091454,-0.394598,0.547636,-0.732136,-0.689962,0.605976,0.700705,142.089844,-73.059082,318.786621,0,0
7458,2024 10 07,05:25:12.139,0.068915,-0.404662,0.527217,-0.744004,-0.704611,0.685568,0.763695,131.713867,-95.458984,365.29541,0,0
7459,2024 10 07,05:25:12.147,0.042307,-0.415997,0.505401,-0.754802,-0.861354,0.727073,0.607929,116.516113,-103.149414,410.522461,0,0
7460,2024 10 07,05:25:12.155,0.011172,-0.427497,0.482814,-0.764207,-0.736839,0.483413,0.776391,93.078613,-119.140625,451.843262,0,0
7461,2024 10 07,05:25:12.164,-0.021812,-0.440075,0.459792,-0.771005,-0.830103,0.342296,0.742698,74.035645,-101.501465,471.252441,0,0
7462,2024 10 07,05:25:12.172,-0.054702,-0.453207,0.437087,-0.774962,-0.750511,0.317881,0.76223,57.495117,-79.956055,466.97998,0,0
7463,2024 10 07,05:25:12.180,-0.086269,-0.466728,0.415445,-0.775969,-0.706565,0.118168,0.967315,39.245605,-52.490234,452.087402,0,0
7464,2024 10 07,05:25:12.189,-0.086269,-0.466728,0.415445,-0.775969,-0.706565,0.118168,0.967315,39.245605,-52.490234,452.087402,0,0
7465,2024 10 07,05:25:12.197,-0.115121,-0.481688,0.39554,-0.77348,-0.824244,0.154302,0.813501,24.047852,-5.615234,428.466797,0,0
7466,2024 10 07,05:25:12.205,-0.14201,-0.497118,0.378172,-0.767914,-0.908719,0.133305,0.877468,-4.211426,29.907227,403.259277,0,0
7467,2024 10 07,05:25:12.214,-0.167435,-0.513417,0.363856,-0.758932,-1.170446,0.304697,0.909696,-40.222168,63.720703,382.69043,0,0
7468,2024 10 07,05:25:12.222,-0.192675,-0.530158,0.352751,-0.746576,-1.392621,0.336924,0.874538,-80.322266,91.552734,372.436523,0,0
7469,2024 10 07,05:25:12.230,-0.218798,-0.546752,0.344755,-0.730981,-1.720267,0.335459,0.885769,-126.464844,112.670898,369.506836,0,0
7470,2024 10 07,05:25:12.239,-0.218798,-0.546752,0.344755,-0.730981,-1.720267,0.335459,0.885769,-126.464844,112.670898,369.506836,0,0
7471,2024 10 07,05:25:12.247,-0.24684,-0.56232,0.339369,-0.712527,-2.029847,0.261727,1.009796,-176.513672,116.027832,373.596191,0,0
7472,2024 10 07,05:25:12.255,-0.277043,-0.576067,0.336216,-0.691631,-2.237861,0.104495,1.11185,-221.374512,112.548828,376.953125,0,0
7473,2024 10 07,05:25:12.264,-0.308689,-0.587846,0.334912,-0.668567,-2.359447,-0.172369,1.293985,-257.385254,112.548828,375.427246,0,0
7474,2024 10 07,05:25:12.272,-0.340728,-0.597767,0.335199,-0.6436,-2.366771,-0.648457,1.393109,-283.935547,116.516113,368.835449,0,0
7475,2024 10 07,05:25:12.280,-0.371987,-0.6064,0.336989,-0.616719,-2.518143,-1.097201,1.445845,-300.964355,130.065918,357.48291,0,0
7476,2024 10 07,05:25:12.289,-0.371987,-0.6064,0.336989,-0.616719,-2.518143,-1.097201,1.445845,-300.964355,130.065918,357.48291,0,0
7477,2024 10 07,05:25:12.297,-0.40213,-0.613146,0.340249,-0.588705,-2.727134,-1.477096,1.522996,-316.467285,130.92041,337.585449,0,0
7478,2024 10 07,05:25:12.305,-0.431416,-0.616662,0.345031,-0.560857,-2.742271,-1.940001,1.636769,-336.486816,112.854004,308.227539,0,0
7479,2024 10 07,05:25:12.314,-0.45959,-0.616188,0.351387,-0.534431,-2.216865,-2.593829,1.930235,-351.623535,91.552734,267.456055,0,0
7480,2024 10 07,05:25:12.322,-0.484388,-0.613508,0.360608,-0.50886,-1.483444,-3.416608,1.991272,-349.731445,110.412598,213.806152,0,0
7481,2024 10 07,05:25:12.330,-0.502912,-0.611117,0.374611,-0.482993,-1.205115,-4.050905,1.61626,-327.331543,177.856445,146.850586,0,0
7482,2024 10 07,05:25:12.339,-0.502912,-0.611117,0.374611,-0.482993,-1.205115,-4.050905,1.61626,-327.331543,177.856445,146.850586,0,0
7483,2024 10 07,05:25:12.347,-0.514186,-0.608729,0.393633,-0.458382,-0.614765,-4.581683,1.111362,-298.522949,221.862793,61.035156,0,0
7484,2024 10 07,05:25:12.355,-0.517363,-0.606726,0.418118,-0.435197,-2.382397,-6.843959,0.250496,-252.319336,302.978516,-17.333984,0,0
7485,2024 10 07,05:25:12.364,-0.506922,-0.604288,0.44944,-0.419369,-2.36433,-6.033875,-0.37257,-147.338867,292.114258,-170.471191,0,0
7486,2024 10 07,05:25:12.372,-0.49135,-0.595785,0.479961,-0.416236,-4.285775,-6.963592,-2.724204,-79.406738,224.243164,-307.556152,0,0
7487,2024 10 07,05:25:12.380,-0.4814,-0.575898,0.497209,-0.435177,-3.092868,-0.748558,0.081057,14.831543,-163.330078,-329.528809,0,1
7488,2024 10 07,05:25:12.389,-0.4814,-0.575898,0.497209,-0.435177,-3.092868,-0.748558,0.081057,14.831543,-163.330078,-329.528809,0,0
7489,2024 10 07,05:25:12.397,-0.488866,-0.553022,0.493283,-0.46027,-1.306192,-0.718284,-2.400952,-59.387207,-391.113281,-142.150879,0,0
7490,2024 10 07,05:25:12.405,-0.497413,-0.536676,0.486094,-0.477778,-0.603534,-1.230506,2.869716,-29.907227,-173.095703,-83.984375,0,0
7491,2024 10 07,05:25:12.414,-0.493572,-0.535764,0.487874,-0.48096,-1.386273,0.654317,-1.000519,34.545898,-16.418457,-35.888672,0,0
7492,2024 10 07,05:25:12.422,-0.497623,-0.530866,0.487131,-0.482966,-0.556658,-0.073244,-0.174322,-40.405273,-45.959473,-14.648438,0,0
7493,2024 10 07,05:25:12.430,-0.496756,-0.5294,0.489195,-0.483382,-1.11478,0.150884,0.2837,-8.911133,15.380859,-29.663086,0,0
7494,2024 10 07,05:25:12.439,-0.496756,-0.5294,0.489195,-0.483382,-1.11478,0.150884,0.2837,-8.911133,15.380859,-29.663086,0,0
7495,2024 10 07,05:25:12.447,-0.498137,-0.526351,0.490682,-0.483783,-1.043489,-0.161626,-0.189459,-41.381836,-39.489746,-15.74707,0,0
7496,2024 10 07,05:25:12.455,-0.501911,-0.522102,0.489503,-0.485676,-0.515152,-0.188971,-0.130375,-21.66748,-56.518555,-4.02832,0,0
7497,2024 10 07,05:25:12.464,-0.502382,-0.521539,0.489446,-0.485852,-1.013214,0.074221,0.08887,-3.479004,6.958008,1.281738,0,0
7498,2024 10 07,05:25:12.472,-0.503223,-0.520893,0.489422,-0.485699,-1.034211,0.095706,-0.148442,-12.084961,-17.822266,0.976563,0,0
7499,2024 10 07,05:25:12.480,-0.504343,-0.519545,0.489105,-0.486299,-0.897,0.092288,0.113285,-6.652832,-10.681152,-4.394531,0,0
7500,2024 10 07,05:25:12.489,-0.504343,-0.519545,0.489105,-0.486299,-0.897,0.092288,0.113285,-6.652832,-10.681152,-4.394531,0,0
7501,2024 10 07,05:25:12.497,-0.504092,-0.519202,0.489848,-0.486178,-1.016144,0.064943,-0.074709,-3.662109,3.234863,-8.239746,0,0
7502,2024 10 07,05:25:12.505,-0.503874,-0.518432,0.490313,-0.486757,-0.946806,0.035157,-0.006836,-2.868652,-2.746582,-12.634277,0,0
7503,2024 10 07,05:25:12.514,-0.503021,-0.518008,0.49105,-0.487347,-0.960967,0.046388,0.02295,2.380371,5.004883,-15.50293,0,0
7504,2024 10 07,05:25:12.522,-0.502038,-0.51763,0.491737,-0.488068,-0.926786,0.028809,-0.028321,4.821777,1.831055,-15.991211,0,0
7505,2024 10 07,05:25:12.530,-0.500954,-0.517364,0.492207,-0.488991,-0.929228,0.033692,0.013672,8.422852,2.990723,-15.319824,0,0
7506,2024 10 07,05:25:12.539,-0.500954,-0.517364,0.492207,-0.488991,-0.929228,0.033692,0.013672,8.422852,2.990723,-15.319824,0,0
7507,2024 10 07,05:25:12.547,-0.499881,-0.517233,0.492625,-0.489807,-0.931669,0.036622,-0.02295,7.080078,2.258301,-13.305664,0,0
7508,2024 10 07,05:25:12.555,-0.499093,-0.516999,0.492862,-0.490618,-0.91995,0.030763,-0.001465,6.469727,-0.427246,-11.291504,0,0
7509,2024 10 07,05:25:12.564,-0.498322,-0.516847,0.492993,-0.491429,-0.9429,0.062014,-0.006348,7.93457,-0.427246,-10.620117,0,0
