frame,date,time,quaternion_x,quaternion_y,quaternion_z,quaternion_w,accel_x,accel_y,accel_z,gyro_x,gyro_y,gyro_z,HS,TO
6600,2024 10 07,05:25:04.989,-0.55197,-0.217976,0.532691,0.60337,0.693869,0.757347,-1.250038,-72.387695,-16.174316,-292.236328,0,0
6601,2024 10 07,05:25:04.997,-0.543177,-0.217628,0.526956,0.616372,0.259285,1.645558,-0.044923,-113.952637,-56.945801,-101.867676,0,0
6602,2024 10 07,05:25:05.006,-0.546008,-0.208021,0.525099,0.618768,-0.193365,1.868709,-0.325205,-88.623047,-45.471191,103.393555,0,0
6603,2024 10 07,05:25:05.014,-0.546008,-0.208021,0.525099,0.618768,-0.193365,1.868709,-0.325205,-88.623047,-45.471191,103.393555,0,0
6604,2024 10 07,05:25:05.022,-0.557282,-0.19248,0.527412,0.611739,-0.642109,1.632374,-0.225105,-54.138184,-33.630371,251.708984,0,0
6605,2024 10 07,05:25:05.031,-0.573329,-0.174258,0.532251,0.598027,-0.779321,1.267617,-0.336436,-26.245117,-31.37207,329.406738,0,0
6606,2024 10 07,05:25:05.039,-0.589488,-0.154781,0.538717,0.581661,-0.684591,1.038606,-0.554216,-12.878418,-46.936035,344.177246,0,0
6607,2024 10 07,05:25:05.047,-0.602701,-0.134743,0.546446,0.565679,-0.606464,0.866726,-0.625507,-9.277344,-82.580566,320.983887,0,0
6608,2024 10 07,05:25:05.056,-0.612144,-0.11412,0.555287,0.551282,-0.624043,0.773949,-0.549821,-11.169434,-119.32373,291.687012,0,0
6609,2024 10 07,05:25:05.064,-0.612144,-0.11412,0.555287,0.551282,-0.624043,0.773949,-0.549821,-11.169434,-119.32373,291.687012,0,0
6610,2024 10 07,05:25:05.072,-0.618734,-0.092613,0.564974,0.537956,-0.774438,0.800317,-0.433119,-15.258789,-148.010254,277.34375,0,0
6611,2024 10 07,05:25:05.081,-0.624215,-0.069862,0.57498,0.524283,-0.90286,0.867702,-0.297372,-17.578125,-160.827637,286.682129,0,0
6612,2024 10 07,05:25:05.089,-0.630142,-0.045504,0.584678,0.508923,-1.021516,0.91995,-0.187017,-19.042969,-161.132813,315.246582,0,0
6613,2024 10 07,05:25:05.097,-0.637192,-0.019552,0.5935,0.491286,-1.162145,0.882839,-0.137211,-20.996094,-154.663086,347.595215,0,0
6614,2024 10 07,05:25:05.106,-0.644835,0.007589,0.601163,0.471947,-1.250038,0.721213,-0.135258,-26.000977,-148.925781,367.004395,0,0
6615,2024 10 07,05:25:05.114,-0.644835,0.007589,0.601163,0.471947,-1.250038,0.721213,-0.135258,-26.000977,-148.925781,367.004395,0,0
6616,2024 10 07,05:25:05.122,-0.651774,0.035489,0.607795,0.452235,-1.256386,0.541032,-0.134281,-36.376953,-153.320313,367.30957,0,0
6617,2024 10 07,05:25:05.131,-0.656894,0.064049,0.613729,0.433273,-1.265664,0.416517,-0.166509,-52.246094,-165.466309,355.895996,0,0
6618,2024 10 07,05:25:05.139,-0.659599,0.093385,0.619426,0.415354,-1.471725,0.380871,-0.045412,-68.54248,-185.424805,342.163086,0,0
6619,2024 10 07,05:25:05.147,-0.660419,0.123283,0.624576,0.398186,-1.701224,0.447279,0.106937,-81.237793,-192.626953,333.92334,0,0
6620,2024 10 07,05:25:05.156,-0.660533,0.153324,0.628492,0.381034,-1.849177,0.517594,0.251473,-86.669922,-187.37793,335.388184,0,0
6621,2024 10 07,05:25:05.164,-0.660533,0.153324,0.628492,0.381034,-1.849177,0.517594,0.251473,-86.669922,-187.37793,335.388184,0,0
6622,2024 10 07,05:25:05.172,-0.660638,0.183255,0.630888,0.363257,-1.911191,0.522965,0.328623,-86.853027,-176.452637,343.322754,0,0
6623,2024 10 07,05:25:05.181,-0.660626,0.213099,0.631997,0.344589,-1.954649,0.501968,0.315928,-85.144043,-172.058105,352.111816,0,0
6624,2024 10 07,05:25:05.189,-0.659943,0.242985,0.632342,0.324927,-2.090396,0.443861,0.304209,-83.251953,-175.170898,359.375,0,0
6625,2024 10 07,05:25:05.197,-0.658388,0.272813,0.631996,0.304433,-2.254463,0.358409,0.245613,-82.458496,-178.222656,364.501953,0,0
6626,2024 10 07,05:25:05.206,-0.655945,0.302449,0.630818,0.283424,-2.419019,0.231941,0.190435,-83.374023,-178.771973,366.760254,0,0
6627,2024 10 07,05:25:05.214,-0.655945,0.302449,0.630818,0.283424,-2.419019,0.231941,0.190435,-83.374023,-178.771973,366.760254,0,0
6628,2024 10 07,05:25:05.222,-0.652477,0.331563,0.628895,0.262356,-2.516678,-0.072756,0.203131,-85.693359,-179.199219,362.548828,0,0
6629,2024 10 07,05:25:05.231,-0.647647,0.359842,0.626535,0.241911,-2.542558,-0.576678,0.230964,-91.369629,-183.044434,350.158691,0,0
6630,2024 10 07,05:25:05.239,-0.640821,0.38689,0.624605,0.22256,-2.647053,-1.083529,0.427747,-96.557617,-194.641113,326.35498,0,0
6631,2024 10 07,05:25:05.247,-0.632149,0.411739,0.623636,0.204787,-2.798913,-1.535203,0.702658,-95.581055,-202.331543,290.710449,0,0
6632,2024 10 07,05:25:05.256,-0.622653,0.433103,0.623709,0.188975,-2.874111,-1.982971,1.02298,-82.641602,-197.265625,245.483398,0,0
6633,2024 10 07,05:25:05.264,-0.622653,0.433103,0.623709,0.188975,-2.874111,-1.982971,1.02298,-82.641602,-197.265625,245.483398,0,0
6634,2024 10 07,05:25:05.272,-0.613409,0.450104,0.624809,0.175355,-2.620685,-2.449294,1.300333,-62.37793,-182.312012,196.472168,0,0
6635,2024 10 07,05:25:05.281,-0.604633,0.463118,0.627051,0.163548,-2.207587,-2.852626,1.536668,-42.785645,-174.255371,154.296875,0,0
6636,2024 10 07,05:25:05.289,-0.596105,0.472641,0.630781,0.152921,-2.001038,-3.144139,1.88873,-22.094727,-170.410156,114.807129,0,0
6637,2024 10 07,05:25:05.297,-0.588501,0.478199,0.635841,0.143868,-2.086978,-3.403424,2.130924,1.159668,-156.005859,68.908691,0,0
6638,2024 10 07,05:25:05.306,-0.583054,0.479439,0.641299,0.137558,-2.198797,-3.664663,2.164617,21.850586,-114.074707,22.521973,0,0
6639,2024 10 07,05:25:05.314,-0.583054,0.479439,0.641299,0.137558,-2.198797,-3.664663,2.164617,21.850586,-114.074707,22.521973,0,0
6640,2024 10 07,05:25:05.322,-0.580671,0.477143,0.645702,0.135002,-2.100162,-3.598743,1.930235,30.456543,-56.70166,-14.404297,0,0
6641,2024 10 07,05:25:05.331,-0.569532,0.472478,0.657389,0.14226,-4.35902,0.118168,12.06531,-139.160156,-199.768066,-241.638184,0,0
6642,2024 10 07,05:25:05.339,-0.586327,0.451408,0.650834,0.169903,-0.633808,0.195807,-1.618702,-151.611328,505.004883,-270.507813,1,0
6643,2024 10 07,05:25:05.347,-0.598202,0.432589,0.646616,0.192114,0.178716,0.423353,-2.526444,82.336426,91.064453,-235.412598,0,0
6644,2024 10 07,05:25:05.356,-0.58942,0.420789,0.65911,0.202717,-2.817957,0.341807,1.945372,24.963379,0.915527,-237.854004,0,0
6645,2024 10 07,05:25:05.364,-0.58942,0.420789,0.65911,0.202717,-2.817957,0.341807,1.945372,24.963379,0.915527,-237.854004,0,0
6646,2024 10 07,05:25:05.372,-0.600016,0.401353,0.656084,0.220114,-0.987823,-0.193365,-0.689474,43.640137,216.796875,-220.336914,0,0
6647,2024 10 07,05:25:05.381,-0.604498,0.384897,0.658026,0.231168,-2.045473,-0.276864,1.099155,45.288086,109.191895,-183.837891,0,0
6648,2024 10 07,05:25:05.389,-0.613614,0.371992,0.6521,0.244676,-1.234413,-0.204108,-0.778344,3.723145,213.745117,-122.131348,0,0
6649,2024 10 07,05:25:05.397,-0.621094,0.362058,0.647589,0.252556,-1.290567,0.189459,-0.016602,44.921875,131.530762,-78.00293,0,0
6650,2024 10 07,05:25:05.406,-0.631402,0.35086,0.642842,0.254917,-1.211463,-0.115726,-0.023438,101.623535,165.283203,-42.419434,0,0
6651,2024 10 07,05:25:05.414,-0.64248,0.340464,0.636578,0.257046,-0.982452,-0.06592,-0.010254,74.584961,159.423828,-32.226563,0,0
6652,2024 10 07,05:25:05.422,-0.64248,0.340464,0.636578,0.257046,-0.982452,-0.06592,-0.010254,74.584961,159.423828,-32.226563,0,0
6653,2024 10 07,05:25:05.431,-0.651724,0.331908,0.630616,0.259646,-1.089877,0.188971,-0.075198,65.368652,144.470215,-29.35791,0,0
6654,2024 10 07,05:25:05.439,-0.661365,0.322841,0.625051,0.260158,-1.02298,-0.018555,-0.112308,88.806152,138.48877,-16.784668,0,0
6655,2024 10 07,05:25:05.447,-0.669998,0.314823,0.619948,0.260105,-0.784692,-0.170904,0.153813,69.824219,118.95752,-10.986328,0,0
6656,2024 10 07,05:25:05.456,-0.675859,0.309518,0.615821,0.261109,-0.736351,-0.00586,0.205573,34.790039,81.359863,-11.779785,0,0
6657,2024 10 07,05:25:05.464,-0.679204,0.306123,0.613537,0.261808,-0.864284,0.023927,0.227546,23.681641,45.654297,-10.742188,0,0
6658,2024 10 07,05:25:05.472,-0.679204,0.306123,0.613537,0.261808,-0.864284,0.023927,0.227546,23.681641,45.654297,-10.742188,0,0
6659,2024 10 07,05:25:05.481,-0.681176,0.303752,0.612179,0.262623,-0.958525,0.089846,0.090335,13.916016,30.273438,-13.305664,0,0
6660,2024 10 07,05:25:05.489,-0.682438,0.301767,0.611426,0.26339,-0.989288,0.034669,0.062014,10.864258,21.362305,-13.61084,0,0
6661,2024 10 07,05:25:05.497,-0.683154,0.300245,0.61093,0.264419,-1.012238,0.06592,0.045412,4.821777,15.74707,-15.319824,0,0
6662,2024 10 07,05:25:05.506,-0.683518,0.29893,0.61062,0.265682,-1.047884,0.047365,0.038575,0.915527,13.000488,-17.39502,0,0
6663,2024 10 07,05:25:05.514,-0.68372,0.29771,0.610337,0.267177,-1.087435,0.079104,0.006836,-1.220703,12.695313,-18.676758,0,0
6664,2024 10 07,05:25:05.522,-0.68372,0.29771,0.610337,0.267177,-1.087435,0.079104,0.006836,-1.220703,12.695313,-18.676758,0,0
6665,2024 10 07,05:25:05.531,-0.683998,0.296382,0.609968,0.26878,-1.086947,0.056642,0.007324,-1.464844,15.808105,-20.019531,0,0
6666,2024 10 07,05:25:05.539,-0.684514,0.294963,0.609331,0.270469,-1.018098,0.040529,0.057619,-0.915527,19.897461,-18.859863,0,0
6667,2024 10 07,05:25:05.547,-0.685121,0.293549,0.608626,0.272051,-0.964385,0.038087,0.090823,1.098633,19.287109,-17.39502,0,0
6668,2024 10 07,05:25:05.556,-0.685658,0.292237,0.608013,0.273479,-0.986358,0.06006,0.098148,1.037598,16.601563,-16.174316,0,0
6669,2024 10 07,05:25:05.564,-0.686198,0.290865,0.607512,0.274699,-1.012726,0.0459,0.089358,2.258301,16.052246,-15.74707,0,0
6670,2024 10 07,05:25:05.572,-0.686198,0.290865,0.607512,0.274699,-1.012726,0.0459,0.089358,2.258301,16.052246,-15.74707,0,0
6671,2024 10 07,05:25:05.581,-0.686695,0.289477,0.607078,0.275879,-1.036653,0.02295,0.031251,3.173828,15.258789,-15.74707,0,0
6672,2024 10 07,05:25:05.589,-0.687076,0.288171,0.606642,0.277254,-0.992706,0.053224,0.094241,0.12207,14.892578,-17.456055,0,0
6673,2024 10 07,05:25:05.597,-0.687365,0.286854,0.606314,0.278618,-0.970733,0.044923,0.145512,1.037598,12.878418,-18.127441,0,0
6674,2024 10 07,05:25:05.606,-0.687648,0.285412,0.606109,0.279843,-0.989288,0.056154,0.104984,4.882813,11.230469,-18.188477,0,0
6675,2024 10 07,05:25:05.614,-0.687782,0.283758,0.606267,0.280851,-1.01175,0.078127,0.124027,7.263184,7.385254,-20.446777,0,0
6676,2024 10 07,05:25:05.622,-0.687782,0.283758,0.606267,0.280851,-1.01175,0.078127,0.124027,7.263184,7.385254,-20.446777,0,0
6677,2024 10 07,05:25:05.631,-0.687766,0.281924,0.606685,0.281834,-1.027375,0.009766,0.080081,8.972168,5.493164,-22.399902,0,0
6678,2024 10 07,05:25:05.639,-0.687653,0.280082,0.607088,0.283073,-1.001984,0.073244,0.147954,6.958008,5.79834,-24.719238,0,0
6679,2024 10 07,05:25:05.647,-0.687485,0.278099,0.60763,0.284273,-0.988311,0.042482,0.15479,7.080078,4.394531,-26.245117,0,0
6680,2024 10 07,05:25:05.656,-0.687249,0.276042,0.608262,0.285494,-1.026887,0.028809,0.085452,8.728027,3.173828,-27.099609,0,0
6681,2024 10 07,05:25:05.664,-0.68681,0.274081,0.608998,0.286869,-1.049837,0.015625,0.13184,6.286621,2.258301,-28.564453,0,0
6682,2024 10 07,05:25:05.672,-0.68681,0.274081,0.608998,0.286869,-1.049837,0.015625,0.13184,6.286621,2.258301,-28.564453,0,0
6683,2024 10 07,05:25:05.681,-0.686273,0.272152,0.609629,0.288643,-1.089389,0.000977,0.143559,1.159668,3.356934,-32.531738,0,0
6684,2024 10 07,05:25:05.689,-0.685571,0.270232,0.610077,0.291158,-1.101596,-0.033692,0.034669,-5.493164,6.225586,-38.208008,0,0
6685,2024 10 07,05:25:05.697,-0.684521,0.268485,0.610488,0.294364,-1.096225,0.00293,0.093265,-11.84082,5.310059,-43.151855,0,0
6686,2024 10 07,05:25:05.706,-0.683288,0.266629,0.61093,0.297979,-1.090365,0.032228,0.207526,-12.695313,5.249023,-47.973633,0,0
6687,2024 10 07,05:25:05.714,-0.681979,0.264435,0.611432,0.301878,-1.164098,0.027345,0.083987,-12.573242,5.859375,-53.405762,0,0
6688,2024 10 07,05:25:05.722,-0.681979,0.264435,0.611432,0.301878,-1.164098,0.027345,0.083987,-12.573242,5.859375,-53.405762,0,0
6689,2024 10 07,05:25:05.731,-0.680416,0.262022,0.612039,0.306246,-1.174352,-0.018067,0.086428,-15.136719,6.896973,-60.180664,0,0
6690,2024 10 07,05:25:05.739,-0.678804,0.259407,0.612345,0.311394,-1.20072,-0.013184,0.041993,-20.996094,12.207031,-66.833496,0,0
6691,2024 10 07,05:25:05.747,-0.676996,0.256568,0.612606,0.317115,-1.188513,0.023438,0.166021,-21.54541,13.061523,-73.547363,0,0
6692,2024 10 07,05:25:05.756,-0.675251,0.253065,0.612849,0.323128,-1.242714,0.058596,0.12891,-18.798828,16.784668,-80.566406,0,0
6693,2024 10 07,05:25:05.764,-0.673409,0.248812,0.613304,0.329351,-1.306192,0.077151,0.160649,-12.634277,17.39502,-89.294434,0,0
6694,2024 10 07,05:25:05.772,-0.673409,0.248812,0.613304,0.329351,-1.306192,0.077151,0.160649,-12.634277,17.39502,-89.294434,0,0
6695,2024 10 07,05:25:05.781,-0.671473,0.243518,0.614044,0.335817,-1.372112,0.090335,0.193854,-5.004883,20.141602,-100.585938,0,0
6696,2024 10 07,05:25:05.789,-0.669541,0.236912,0.614956,0.342662,-1.391156,0.131352,0.195807,3.295898,24.536133,-113.769531,0,0
6697,2024 10 07,05:25:05.797,-0.667471,0.228872,0.61626,0.349749,-1.480026,0.169439,0.278817,13.61084,26.611328,-128.479004,0,0
6698,2024 10 07,05:25:05.806,-0.664997,0.219332,0.617943,0.357518,-1.526902,0.154302,0.249031,20.263672,28.320313,-148.254395,0,0
6699,2024 10 07,05:25:05.814,-0.661807,0.208255,0.620123,0.366181,-1.699271,0.150395,0.118656,25.512695,27.526855,-171.142578,0,0
6700,2024 10 07,05:25:05.822,-0.661807,0.208255,0.620123,0.366181,-1.699271,0.150395,0.118656,25.512695,27.526855,-171.142578,0,0
6701,2024 10 07,05:25:05.831,-0.657733,0.195471,0.622681,0.376093,-1.940001,0.181158,0.051759,28.015137,31.799316,-199.462891,0,0
6702,2024 10 07,05:25:05.839,-0.65299,0.180528,0.624871,0.388007,-2.283761,0.276376,-0.082034,25.756836,45.227051,-234.741211,0,0
6703,2024 10 07,05:25:05.847,-0.647359,0.162939,0.626465,0.402392,-2.664632,0.399426,-0.121586,24.047852,64.697266,-278.503418,0,0
6704,2024 10 07,05:25:05.856,-0.641251,0.141561,0.626612,0.419661,-2.960051,0.534684,-0.276376,23.925781,96.984863,-330.200195,0,0
6705,2024 10 07,05:25:05.864,-0.633881,0.116277,0.625488,0.439817,-3.255471,0.497574,-0.490738,22.460938,119.140625,-385.925293,0,0
6706,2024 10 07,05:25:05.872,-0.625075,0.086979,0.622548,0.462763,-3.635853,0.446303,-0.240242,20.141602,152.526855,-440.917969,0,0
6707,2024 10 07,05:25:05.881,-0.625075,0.086979,0.622548,0.462763,-3.635853,0.446303,-0.240242,20.141602,152.526855,-440.917969,0,0
6708,2024 10 07,05:25:05.889,-0.615644,0.053059,0.616477,0.487979,-3.768181,0.232429,-0.120121,21.362305,195.251465,-489.562988,0,0
6709,2024 10 07,05:25:05.897,-0.605147,0.015535,0.608071,0.513619,-3.761345,-0.118168,-0.227546,31.982422,223.693848,-517.76123,0,0
6710,2024 10 07,05:25:05.906,-0.593091,-0.022895,0.597592,0.539075,-3.379009,0.200201,-0.211432,21.484375,223.144531,-525.939941,0,1
6711,2024 10 07,05:25:05.914,-0.580072,-0.059603,0.58544,0.563227,-3.103122,0.59621,-0.423841,10.070801,219.360352,-506.958008,0,0
6712,2024 10 07,05:25:05.922,-0.566155,-0.094581,0.571879,0.586069,-2.237373,0.798364,-0.87698,-4.089355,212.280273,-499.267578,0,0
6713,2024 10 07,05:25:05.931,-0.566155,-0.094581,0.571879,0.586069,-2.237373,0.798364,-0.87698,-4.089355,212.280273,-499.267578,0,0
6714,2024 10 07,05:25:05.939,-0.549297,-0.127041,0.558385,0.608555,-1.330119,1.124546,-1.332072,-11.413574,160.888672,-497.375488,0,0
6715,2024 10 07,05:25:05.947,-0.52764,-0.154877,0.546799,0.631364,-0.77102,1.301309,-1.611377,-28.991699,79.284668,-499.267578,0,0
6716,2024 10 07,05:25:05.956,-0.502259,-0.175252,0.535953,0.655574,-0.542009,0.784692,-1.718802,-81.970215,-6.225586,-473.999023,0,0
6717,2024 10 07,05:25:05.964,-0.476296,-0.186339,0.525381,0.679997,0.286142,1.029328,-0.568865,-129.455566,-72.692871,-406.982422,0,0
6718,2024 10 07,05:25:05.972,-0.46147,-0.187368,0.5147,0.69787,0.633808,2.384838,-0.450209,-157.714844,-60.180664,-176.025391,0,0
6719,2024 10 07,05:25:05.981,-0.46147,-0.187368,0.5147,0.69787,0.633808,2.384838,-0.450209,-157.714844,-60.180664,-176.025391,0,0
6720,2024 10 07,05:25:05.989,-0.461815,-0.178483,0.51024,0.703225,0.30958,2.352611,-0.004883,-93.261719,-55.114746,76.171875,0,0
6721,2024 10 07,05:25:05.997,-0.47462,-0.164455,0.51162,0.69709,-0.19776,1.774956,-0.241218,-35.03418,-29.47998,259.58252,0,0
6722,2024 10 07,05:25:06.006,-0.493556,-0.14708,0.517337,0.683471,-0.376965,1.111362,-0.594745,3.540039,-35.400391,351.745605,0,0
6723,2024 10 07,05:25:06.014,-0.512461,-0.127076,0.525525,0.667127,-0.512711,0.762719,-0.623554,18.188477,-71.533203,370.178223,0,0
6724,2024 10 07,05:25:06.022,-0.528224,-0.105529,0.5346,0.651188,-0.387707,0.646992,-0.954131,12.023926,-106.750488,346.496582,0,0
6725,2024 10 07,05:25:06.031,-0.528224,-0.105529,0.5346,0.651188,-0.387707,0.646992,-0.954131,12.023926,-106.750488,346.496582,0,0
6726,2024 10 07,05:25:06.039,-0.539493,-0.082567,0.544637,0.636789,-0.539079,0.504898,-0.704123,6.835938,-154.541016,311.523438,0,0
6727,2024 10 07,05:25:06.047,-0.546584,-0.058947,0.555125,0.624186,-0.677267,0.502457,-0.441908,-1.159668,-183.959961,274.536133,0,0
6728,2024 10 07,05:25:06.056,-0.551023,-0.035235,0.565617,0.612544,-0.763207,0.576678,-0.304697,-3.417969,-200.195313,254.943848,0,0
6729,2024 10 07,05:25:06.064,-0.554862,-0.01119,0.57583,0.600352,-0.895535,0.63332,-0.149419,-2.13623,-199.890137,262.207031,0,0
6730,2024 10 07,05:25:06.072,-0.560115,0.013164,0.584874,0.586532,-0.944365,0.631367,-0.057131,-1.281738,-181.213379,287.04834,0,0
6731,2024 10 07,05:25:06.081,-0.560115,0.013164,0.584874,0.586532,-0.944365,0.631367,-0.057131,-1.281738,-181.213379,287.04834,0,0
6732,2024 10 07,05:25:06.089,-0.567244,0.03815,0.592277,0.570953,-0.895535,0.540544,-0.092776,-5.92041,-165.344238,315.795898,0,0
6733,2024 10 07,05:25:06.097,-0.574986,0.064741,0.598455,0.554122,-0.886746,0.442885,-0.097171,-17.822266,-169.006348,337.646484,0,0
6734,2024 10 07,05:25:06.106,-0.581993,0.09338,0.603724,0.536732,-0.969268,0.382336,-0.126469,-35.095215,-184.204102,349.365234,0,0
6735,2024 10 07,05:25:06.114,-0.587267,0.124018,0.608455,0.519152,-1.170446,0.36671,-0.049806,-52.001953,-205.688477,352.416992,0,0
6736,2024 10 07,05:25:06.122,-0.590845,0.155871,0.612433,0.50153,-1.365764,0.405286,0.06006,-65.429688,-216.85791,351.379395,0,0
6737,2024 10 07,05:25:06.131,-0.590845,0.155871,0.612433,0.50153,-1.365764,0.405286,0.06006,-65.429688,-216.85791,351.379395,0,0
6738,2024 10 07,05:25:06.139,-0.593391,0.188054,0.615265,0.483706,-1.545457,0.442885,0.138676,-72.692871,-216.61377,350.952148,0,0
6739,2024 10 07,05:25:06.147,-0.59526,0.219849,0.617011,0.465433,-1.79986,0.44142,0.278817,-72.570801,-212.768555,349.121094,0,0
6740,2024 10 07,05:25:06.156,-0.596786,0.250803,0.617592,0.446681,-1.884335,0.492691,0.317881,-69.824219,-203.063965,348.327637,0,0
6741,2024 10 07,05:25:06.164,-0.598191,0.281055,0.617111,0.427024,-1.9859,0.491714,0.322764,-64.025879,-198.364258,353.820801,0,0
6742,2024 10 07,05:25:06.172,-0.599224,0.311024,0.615828,0.406141,-2.155828,0.383312,0.333995,-59.387207,-199.157715,361.999512,0,0
6743,2024 10 07,05:25:06.181,-0.599224,0.311024,0.615828,0.406141,-2.155828,0.383312,0.333995,-59.387207,-199.157715,361.999512,0,0
6744,2024 10 07,05:25:06.189,-0.599409,0.341029,0.61383,0.384214,-2.365307,0.153813,0.229987,-60.36377,-206.359863,368.835449,0,0
6745,2024 10 07,05:25:06.197,-0.598139,0.371224,0.611269,0.361624,-2.629475,-0.212409,0.133793,-66.772461,-216.247559,371.398926,0,0
6746,2024 10 07,05:25:06.206,-0.595014,0.401428,0.608268,0.338856,-2.912198,-0.72805,0.173833,-75.683594,-226.989746,368.652344,0,0
6747,2024 10 07,05:25:06.214,-0.590221,0.430977,0.604754,0.316497,-3.129978,-1.313517,0.289071,-82.15332,-230.041504,359.25293,0,0
6748,2024 10 07,05:25:06.222,-0.584144,0.458691,0.601212,0.294826,-3.356548,-1.995666,0.538102,-77.453613,-228.33252,338.378906,0,0
6749,2024 10 07,05:25:06.231,-0.584144,0.458691,0.601212,0.294826,-3.356548,-1.995666,0.538102,-77.453613,-228.33252,338.378906,0,0
6750,2024 10 07,05:25:06.239,-0.577835,0.482782,0.597932,0.274782,-3.325297,-2.633381,0.804224,-61.889648,-208.679199,300.048828,0,0
6751,2024 10 07,05:25:06.247,-0.57162,0.501713,0.596074,0.257353,-2.66805,-2.963469,1.239784,-38.330078,-191.345215,236.206055,0,0
6752,2024 10 07,05:25:06.256,-0.563876,0.514937,0.598619,0.241948,-1.624073,-3.025483,1.823298,-9.887695,-216.97998,150.57373,0,0
6753,2024 10 07,05:25:06.264,-0.552991,0.523042,0.607863,0.226121,-1.457564,-3.094821,2.437574,28.869629,-278.137207,72.387695,0,0
6754,2024 10 07,05:25:06.272,-0.541128,0.526158,0.621776,0.209123,-2.277413,-3.497665,2.788659,76.171875,-293.518066,22.888184,0,0
6755,2024 10 07,05:25:06.281,-0.541128,0.526158,0.621776,0.209123,-2.277413,-3.497665,2.788659,76.171875,-293.518066,22.888184,0,0
6756,2024 10 07,05:25:06.289,-0.533778,0.524229,0.634343,0.194612,-2.886318,-4.219367,2.479568,109.25293,-202.453613,-0.244141,0,0
6757,2024 10 07,05:25:06.297,-0.533133,0.51839,0.641922,0.187022,-2.568926,-4.44789,1.835017,104.064941,-67.321777,-24.963379,0,0
6758,2024 10 07,05:25:06.306,-0.535149,0.510267,0.646753,0.186958,-1.94586,-3.839961,1.426801,67.871094,0.061035,-71.960449,0,0
6759,2024 10 07,05:25:06.314,-0.535502,0.501057,0.652196,0.191885,-1.969787,-2.67098,1.408734,29.846191,9.216309,-120.300293,0,0
6760,2024 10 07,05:25:06.322,-0.535052,0.489276,0.655685,0.210727,-3.508896,-1.35258,0.750999,74.21875,236.083984,-221.618652,1,0
6761,2024 10 07,05:25:06.331,-0.563308,0.469339,0.633576,0.246955,1.696829,3.744743,-8.091556,-77.209473,551.879883,-191.772461,0,0
6762,2024 10 07,05:25:06.339,-0.563308,0.469339,0.633576,0.246955,1.696829,3.744743,-8.091556,-77.209473,551.879883,-191.772461,0,0
6763,2024 10 07,05:25:06.347,-0.558451,0.455883,0.647184,0.247903,-3.214942,0.382824,7.089572,85.510254,-165.100098,-217.529297,0,0
6764,2024 10 07,05:25:06.356,-0.575299,0.433217,0.640227,0.267327,-0.354991,0.563005,-0.597186,63.171387,425.537109,-195.983887,0,0
6765,2024 10 07,05:25:06.364,-0.583744,0.41684,0.638992,0.277808,-1.904843,-0.34962,1.609912,21.057129,106.506348,-147.705078,0,0
6766,2024 10 07,05:25:06.372,-0.593235,0.405765,0.63104,0.291917,-1.106967,0.232429,-0.408704,-4.577637,261.413574,-90.332031,0,0
6767,2024 10 07,05:25:06.381,-0.604855,0.393708,0.624668,0.29822,-1.163121,0.149419,-0.353526,92.773438,167.175293,-54.748535,0,0
6768,2024 10 07,05:25:06.389,-0.604855,0.393708,0.624668,0.29822,-1.163121,0.149419,-0.353526,92.773438,167.175293,-54.748535,0,0
6769,2024 10 07,05:25:06.397,-0.616764,0.380944,0.620676,0.298739,-1.087924,-0.229499,0.430189,128.295898,169.86084,-30.151367,0,0
6770,2024 10 07,05:25:06.406,-0.628405,0.370091,0.614205,0.301482,-0.691916,-0.118656,-0.012207,67.871094,166.931152,-28.137207,0,0
6771,2024 10 07,05:25:06.414,-0.635503,0.36291,0.609896,0.30407,-1.015168,0.141118,-0.014649,48.217773,103.881836,-23.193359,0,0
6772,2024 10 07,05:25:06.422,-0.642352,0.356149,0.606465,0.304534,-1.010773,-0.10889,0.00586,62.988281,99.487305,-9.460449,0,0
6773,2024 10 07,05:25:06.431,-0.648288,0.350772,0.602653,0.305763,-0.849635,-0.044435,0.031251,32.531738,87.768555,-10.559082,0,0
6774,2024 10 07,05:25:06.439,-0.648288,0.350772,0.602653,0.305763,-0.849635,-0.044435,0.031251,32.531738,87.768555,-10.559082,0,0
6775,2024 10 07,05:25:06.447,-0.652047,0.347308,0.599869,0.307196,-0.8511,0.055666,0.251961,20.263672,56.762695,-8.789063,0,0
6776,2024 10 07,05:25:06.456,-0.654683,0.344748,0.598069,0.307981,-0.865261,0.021973,0.162114,13.122559,38.085938,-6.286621,0,0
6777,2024 10 07,05:25:06.464,-0.655933,0.343293,0.597145,0.30874,-1.026399,0.037599,0.004395,7.263184,18.920898,-7.69043,0,0
6778,2024 10 07,05:25:06.472,-0.656679,0.342202,0.596559,0.309496,-1.035188,0.051759,0.06299,2.990723,16.723633,-7.93457,0,0
6779,2024 10 07,05:25:06.481,-0.657317,0.341249,0.595905,0.310454,-1.056185,0.081545,0.00586,0.061035,15.808105,-9.338379,0,0
6780,2024 10 07,05:25:06.489,-0.657317,0.341249,0.595905,0.310454,-1.056185,0.081545,0.00586,0.061035,15.808105,-9.338379,0,0
6781,2024 10 07,05:25:06.497,-0.657832,0.340187,0.595416,0.311464,-1.139683,0.100589,0.033204,2.441406,16.052246,-11.779785,0,0
6782,2024 10 07,05:25:06.506,-0.658843,0.338531,0.594615,0.312658,-1.128452,0.08301,-0.040529,5.981445,26.306152,-14.099121,0,0
6783,2024 10 07,05:25:06.514,-0.66017,0.336515,0.59358,0.314001,-1.080599,0.059572,0.008789,7.873535,30.578613,-15.319824,0,0
6784,2024 10 07,05:25:06.522,-0.661603,0.334343,0.592425,0.315481,-1.009308,0.054689,0.047853,7.69043,32.714844,-16.357422,0,0
6785,2024 10 07,05:25:06.531,-0.663004,0.332187,0.591326,0.316879,-0.967803,0.054201,0.073733,8.239746,30.212402,-15.869141,0,0
6786,2024 10 07,05:25:06.539,-0.663004,0.332187,0.591326,0.316879,-0.967803,0.054201,0.073733,8.239746,30.212402,-15.869141,0,0
6787,2024 10 07,05:25:06.547,-0.664153,0.330221,0.590432,0.31819,-0.959014,0.058107,0.086428,6.713867,25.20752,-15.930176,0,0
6788,2024 10 07,05:25:06.556,-0.665,0.32843,0.589823,0.319401,-0.976104,0.043458,0.092776,6.103516,20.690918,-16.113281,0,0
6789,2024 10 07,05:25:06.564,-0.665619,0.326778,0.589346,0.320685,-0.974639,0.031739,0.064455,3.845215,18.005371,-16.906738,0,0
6790,2024 10 07,05:25:06.572,-0.665984,0.325329,0.589016,0.322005,-0.995636,0.036134,0.090823,1.953125,14.770508,-17.272949,0,0
6791,2024 10 07,05:25:06.581,-0.66619,0.32396,0.58882,0.323314,-1.022004,0.037111,0.066408,2.502441,12.329102,-17.51709,0,0
6792,2024 10 07,05:25:06.589,-0.66619,0.32396,0.58882,0.323314,-1.022004,0.037111,0.066408,2.502441,12.329102,-17.51709,0,0
6793,2024 10 07,05:25:06.597,-0.666391,0.322512,0.588697,0.32457,-1.021516,0.051271,0.08301,3.90625,13.061523,-18.066406,0,0
6794,2024 10 07,05:25:06.606,-0.666673,0.320915,0.588605,0.325739,-0.991241,0.018555,0.076662,5.92041,12.329102,-18.432617,0,0
6795,2024 10 07,05:25:06.614,-0.666757,0.319353,0.588737,0.32686,-0.997101,0.021485,0.107913,5.249023,8.666992,-19.40918,0,0
6796,2024 10 07,05:25:06.622,-0.666659,0.317836,0.589048,0.327976,-1.000031,0.021973,0.115726,4.333496,6.103516,-20.568848,0,0
6797,2024 10 07,05:25:06.631,-0.666512,0.316289,0.589399,0.329139,-1.002472,0.000977,0.086917,5.371094,5.981445,-21.118164,0,0
6798,2024 10 07,05:25:06.639,-0.666512,0.316289,0.589399,0.329139,-1.002472,0.000977,0.086917,5.371094,5.981445,-21.118164,0,0
6799,2024 10 07,05:25:06.647,-0.666178,0.314839,0.58982,0.330448,-1.019074,0.04297,0.090335,1.831055,4.882813,-23.071289,0,0
6800,2024 10 07,05:25:06.656,-0.665806,0.313372,0.590184,0.331939,-1.007355,0.028321,0.117679,0.12207,5.249023,-24.719238,0,0
6801,2024 10 07,05:25:06.664,-0.665197,0.311917,0.590724,0.333565,-1.078158,0.027345,0.099124,0.12207,2.502441,-27.22168,0,0
6802,2024 10 07,05:25:06.672,-0.664577,0.310239,0.591248,0.335433,-1.140172,-0.002441,0.062502,0.366211,6.225586,-30.578613,0,0
6803,2024 10 07,05:25:06.681,-0.66344,0.308654,0.591822,0.338123,-1.138707,0.011719,0.135258,-9.277344,3.173828,-39.978027,0,0
6804,2024 10 07,05:25:06.689,-0.66344,0.308654,0.591822,0.338123,-1.138707,0.011719,0.135258,-9.277344,3.173828,-39.978027,0,0
6805,2024 10 07,05:25:06.697,-0.662019,0.306838,0.592366,0.34159,-1.170934,0.001465,0.04883,-15.014648,5.981445,-48.400879,0,0
6806,2024 10 07,05:25:06.706,-0.660085,0.304947,0.59302,0.345865,-1.190954,0.023927,0.096194,-20.568848,4.150391,-57.312012,0,0
6807,2024 10 07,05:25:06.714,-0.657781,0.30285,0.593678,0.35093,-1.242714,0.031251,0.107913,-24.536133,6.469727,-66.589355,0,0
6808,2024 10 07,05:25:06.722,-0.655292,0.300303,0.594256,0.356749,-1.267617,0.053713,0.108402,-26.428223,10.192871,-75.866699,0,0
6809,2024 10 07,05:25:06.731,-0.652636,0.297079,0.594941,0.363118,-1.379925,0.089846,0.149907,-25.390625,12.390137,-86.669922,0,0
6810,2024 10 07,05:25:06.739,-0.652636,0.297079,0.594941,0.363118,-1.379925,0.089846,0.149907,-25.390625,12.390137,-86.669922,0,0
6811,2024 10 07,05:25:06.747,-0.649996,0.292789,0.595655,0.3701,-1.459029,0.075198,0.085452,-20.263672,20.690918,-98.571777,0,0
6812,2024 10 07,05:25:06.756,-0.647408,0.287269,0.596425,0.377645,-1.447798,0.124516,0.165532,-13.000488,27.282715,-111.38916,0,0
6813,2024 10 07,05:25:06.764,-0.644888,0.280261,0.597489,0.38546,-1.481979,0.180181,0.252449,-2.380371,32.043457,-125.305176,0,0
6814,2024 10 07,05:25:06.772,-0.642175,0.271652,0.599006,0.393711,-1.569384,0.204596,0.240242,7.8125,34.667969,-143.615723,0,0
6815,2024 10 07,05:25:06.781,-0.638739,0.26137,0.601367,0.402562,-1.802789,0.271004,0.241707,18.554688,32.043457,-167.358398,0,0
6816,2024 10 07,05:25:06.789,-0.634463,0.249002,0.604353,0.412569,-2.048891,0.254891,0.049318,23.620605,38.452148,-198.303223,0,0
6817,2024 10 07,05:25:06.797,-0.634463,0.249002,0.604353,0.412569,-2.048891,0.254891,0.049318,23.620605,38.452148,-198.303223,0,0
6818,2024 10 07,05:25:06.806,-0.629162,0.234277,0.607516,0.424493,-2.37849,0.276864,-0.136235,23.55957,48.400879,-236.51123,0,0
6819,2024 10 07,05:25:06.814,-0.622883,0.216655,0.610118,0.439128,-2.754967,0.40968,-0.241707,19.104004,71.716309,-282.714844,0,0
6820,2024 10 07,05:25:06.822,-0.61551,0.195287,0.611651,0.457049,-3.212989,0.660176,-0.353526,16.052246,100.646973,-340.270996,0,0
6821,2024 10 07,05:25:06.831,-0.605808,0.169695,0.612601,0.478457,-3.827754,0.671407,-0.74221,11.657715,115.356445,-411.682129,0,0
6822,2024 10 07,05:25:06.839,-0.593831,0.13888,0.611906,0.503635,-4.129032,0.600116,-0.315928,11.047363,161.865234,-485.412598,0,0
6823,2024 10 07,05:25:06.847,-0.593831,0.13888,0.611906,0.503635,-4.129032,0.600116,-0.315928,11.047363,161.865234,-485.412598,0,0
6824,2024 10 07,05:25:06.856,-0.581181,0.101366,0.607481,0.531903,-3.85461,0.24366,-0.690939,8.911133,218.200684,-549.865723,0,0
6825,2024 10 07,05:25:06.864,-0.565064,0.06117,0.601804,0.561064,-4.210577,0.199713,-0.056154,8.300781,213.378906,-584.960938,0,0
6826,2024 10 07,05:25:06.872,-0.547595,0.019989,0.593267,0.589723,-3.729606,0.397473,-0.182134,-2.319336,225.463867,-591.064453,0,1
6827,2024 10 07,05:25:06.881,-0.529199,-0.019067,0.582552,0.616618,-3.351177,0.76809,-0.519547,-18.310547,216.552734,-562.438965,0,0
6828,2024 10 07,05:25:06.889,-0.509518,-0.055309,0.570614,0.641663,-2.506424,1.256386,-0.956572,-32.958984,196.166992,-549.682617,0,0
6829,2024 10 07,05:25:06.897,-0.509518,-0.055309,0.570614,0.641663,-2.506424,1.256386,-0.956572,-32.958984,196.166992,-549.682617,0,0
6830,2024 10 07,05:25:06.906,-0.486627,-0.088486,0.558565,0.66586,-1.601611,1.453658,-1.471725,-42.84668,138.244629,-549.621582,0,0
6831,2024 10 07,05:25:06.914,-0.458004,-0.116421,0.547581,0.690531,-0.903836,1.416059,-1.999084,-70.800781,48.034668,-556.030273,0,0
6832,2024 10 07,05:25:06.922,-0.42449,-0.134796,0.535798,0.717328,-0.828639,0.930692,-1.230995,-148.742676,-60.302734,-541.19873,0,0
6833,2024 10 07,05:25:06.931,-0.39327,-0.143194,0.522151,0.743096,1.313028,1.888241,-0.43263,-198.425293,-93.994141,-399.963379,0,0
6834,2024 10 07,05:25:06.939,-0.382116,-0.138593,0.510422,0.757792,0.658223,3.939085,-0.131352,-158.081055,-78.613281,-64.025879,0,0
6835,2024 10 07,05:25:06.947,-0.382116,-0.138593,0.510422,0.757792,0.658223,3.939085,-0.131352,-158.081055,-78.613281,-64.025879,0,0
6836,2024 10 07,05:25:06.956,-0.39105,-0.126418,0.509996,0.755647,-0.460463,2.77401,0.320322,-20.629883,-32.714844,218.811035,0,0
6837,2024 10 07,05:25:06.964,-0.413742,-0.112628,0.515661,0.741772,-0.790551,1.742729,-0.380871,57.617188,17.822266,371.154785,0,0
6838,2024 10 07,05:25:06.972,-0.439447,-0.097891,0.524653,0.722525,-0.471694,0.910672,-0.826197,94.360352,4.638672,405.822754,0,0
6839,2024 10 07,05:25:06.981,-0.461764,-0.081085,0.534344,0.703332,-0.086917,0.686544,-1.138707,80.688477,-44.616699,382.8125,0,0
6840,2024 10 07,05:25:06.989,-0.478023,-0.061226,0.544768,0.686274,-0.208014,0.538591,-0.996124,59.326172,-115.41748,339.477539,0,0
6841,2024 10 07,05:25:06.997,-0.478023,-0.061226,0.544768,0.686274,-0.208014,0.538591,-0.996124,59.326172,-115.41748,339.477539,0,0
6842,2024 10 07,05:25:07.006,-0.488294,-0.038697,0.555811,0.671674,-0.461928,0.603046,-0.576189,39.0625,-172.302246,296.936035,0,0
6843,2024 10 07,05:25:07.014,-0.494931,-0.014512,0.566933,0.658347,-0.671896,0.744652,-0.392102,29.47998,-205.505371,277.954102,0,0
6844,2024 10 07,05:25:07.022,-0.500464,0.010995,0.578147,0.644329,-0.9429,0.830592,-0.08594,30.944824,-215.637207,287.536621,0,0
6845,2024 10 07,05:25:07.031,-0.507763,0.036723,0.588162,0.628405,-1.113315,0.815943,0.075686,35.705566,-191.467285,315.368652,0,0
6846,2024 10 07,05:25:07.039,-0.517923,0.062122,0.596093,0.610385,-1.126499,0.692892,0.082522,36.437988,-159.240723,346.435547,0,0
6847,2024 10 07,05:25:07.047,-0.517923,0.062122,0.596093,0.610385,-1.126499,0.692892,0.082522,36.437988,-159.240723,346.435547,0,0
6848,2024 10 07,05:25:07.056,-0.529863,0.087894,0.601956,0.590905,-1.036653,0.498062,0.02588,27.770996,-143.432617,369.812012,0,0
6849,2024 10 07,05:25:07.064,-0.541502,0.115252,0.606262,0.57091,-0.984405,0.369152,-0.014649,7.873535,-153.808594,381.896973,0,0
6850,2024 10 07,05:25:07.072,-0.551242,0.144882,0.609543,0.550997,-1.093783,0.290536,-0.026856,-17.63916,-178.161621,384.643555,0,0
6851,2024 10 07,05:25:07.081,-0.558448,0.17674,0.611984,0.53139,-1.343303,0.312998,0.030274,-42.724609,-203.186035,383.300781,0,0
6852,2024 10 07,05:25:07.089,-0.563934,0.209955,0.613099,0.511865,-1.624561,0.369152,0.141606,-61.706543,-209.16748,384.82666,0,0
6853,2024 10 07,05:25:07.097,-0.563934,0.209955,0.613099,0.511865,-1.624561,0.369152,0.141606,-61.706543,-209.16748,384.82666,0,0
6854,2024 10 07,05:25:07.106,-0.568933,0.24309,0.612094,0.492506,-1.898495,0.335948,0.199713,-74.035645,-195.068359,383.972168,0,0
6855,2024 10 07,05:25:07.114,-0.573414,0.275548,0.609137,0.47352,-1.980529,0.329112,0.275887,-84.899902,-182.128906,378.90625,0,0
6856,2024 10 07,05:25:07.122,-0.577091,0.307715,0.604508,0.454804,-1.92877,0.414563,0.265145,-96.801758,-178.039551,378.051758,0,0
6857,2024 10 07,05:25:07.131,-0.579061,0.340667,0.599094,0.435569,-2.058657,0.449232,0.36671,-108.886719,-196.777344,381.713867,0,0
6858,2024 10 07,05:25:07.139,-0.578608,0.3748,0.593326,0.415574,-2.244209,0.402356,0.458022,-123.22998,-221.435547,384.399414,0,0
6859,2024 10 07,05:25:07.147,-0.578608,0.3748,0.593326,0.415574,-2.244209,0.402356,0.458022,-123.22998,-221.435547,384.399414,0,0
6860,2024 10 07,05:25:07.156,-0.575286,0.409934,0.587663,0.394528,-2.551836,0.320322,0.702658,-133.239746,-253.662109,384.033203,0,0
6861,2024 10 07,05:25:07.164,-0.569981,0.444959,0.581833,0.372295,-3.262795,-0.104007,0.434095,-131.530762,-265.808105,386.59668,0,0
6862,2024 10 07,05:25:07.172,-0.565446,0.477992,0.574095,0.349584,-3.789178,-0.791528,0.883816,-115.905762,-226.135254,392.456055,0,0
6863,2024 10 07,05:25:07.181,-0.563494,0.506851,0.563198,0.329218,-3.571398,-1.608448,0.451186,-104.370117,-165.100098,376.831055,0,0
6864,2024 10 07,05:25:07.189,-0.56105,0.532215,0.552974,0.310144,-3.337504,-2.431715,0.502945,-88.684082,-161.743164,340.332031,0,0
6865,2024 10 07,05:25:07.197,-0.56105,0.532215,0.552974,0.310144,-3.337504,-2.431715,0.502945,-88.684082,-161.743164,340.332031,0,0
6866,2024 10 07,05:25:07.206,-0.557073,0.553531,0.545666,0.292441,-2.867763,-2.939543,0.657247,-67.077637,-172.973633,280.822754,0,0
6867,2024 10 07,05:25:07.214,-0.550797,0.569874,0.544344,0.274876,-2.035707,-3.042085,1.541063,-24.841309,-216.308594,199.34082,0,0
6868,2024 10 07,05:25:07.222,-0.542593,0.579811,0.551243,0.256014,-1.660207,-3.10654,2.19245,41.748047,-276.611328,104.370117,0,0
6869,2024 10 07,05:25:07.231,-0.534045,0.582324,0.566001,0.235238,-1.970763,-3.574816,2.535233,122.680664,-308.532715,21.362305,0,0
6870,2024 10 07,05:25:07.239,-0.528094,0.577944,0.583799,0.215117,-2.704672,-4.414197,2.211982,177.55127,-272.216797,-28.808594,0,0
6871,2024 10 07,05:25:07.247,-0.528094,0.577944,0.583799,0.215117,-2.704672,-4.414197,2.211982,177.55127,-272.216797,-28.808594,0,0
6872,2024 10 07,05:25:07.256,-0.526836,0.568837,0.598837,0.200654,-2.782311,-4.892239,1.681692,182.128906,-154.296875,-55.114746,0,0
6873,2024 10 07,05:25:07.264,-0.529417,0.557446,0.609118,0.1948,-2.25837,-4.369274,1.177282,144.775391,-47.546387,-85.571289,0,0
6874,2024 10 07,05:25:07.272,-0.531272,0.545355,0.618188,0.195399,-1.973205,-3.107517,1.254921,95.703125,-15.50293,-129.455566,0,0
6875,2024 10 07,05:25:07.281,-0.532328,0.532749,0.626776,0.199895,-7.973876,-0.373547,-4.532365,67.260742,7.568359,-157.226563,0,0
6876,2024 10 07,05:25:07.289,-0.5291,0.517979,0.63398,0.223203,-1.858455,-0.441908,-0.887234,97.167969,303.100586,-269.714355,0,0
6877,2024 10 07,05:25:07.297,-0.546829,0.496371,0.621568,0.261242,0.678732,2.475662,-5.781915,-9.399414,408.813477,-276.611328,1,0
6878,2024 10 07,05:25:07.306,-0.546829,0.496371,0.621568,0.261242,0.678732,2.475662,-5.781915,-9.399414,408.813477,-276.611328,0,0
6879,2024 10 07,05:25:07.314,-0.539715,0.481084,0.636597,0.268348,-2.773522,0.118168,4.781396,10.131836,-96.801758,-274.475098,0,0
6880,2024 10 07,05:25:07.322,-0.554409,0.456447,0.63209,0.291117,-1.279824,-0.249031,0.053712,56.274414,432.006836,-234.313965,0,0
6881,2024 10 07,05:25:07.331,-0.565809,0.438017,0.626611,0.308804,-1.3726,-0.718284,-0.263192,12.084961,194.274902,-159.912109,0,0
6882,2024 10 07,05:25:07.339,-0.571877,0.42701,0.621129,0.323757,-1.924375,0.320322,0.002441,-12.145996,226.501465,-109.863281,0,0
6883,2024 10 07,05:25:07.347,-0.587068,0.41115,0.613229,0.33205,-1.371136,0.024415,-0.777856,116.149902,247.131348,-61.950684,0,0
6884,2024 10 07,05:25:07.356,-0.587068,0.41115,0.613229,0.33205,-1.371136,0.024415,-0.777856,116.149902,247.131348,-61.950684,0,0
6885,2024 10 07,05:25:07.364,-0.601988,0.395701,0.607639,0.334375,-1.261757,-0.147954,0.581561,137.695313,215.454102,-34.606934,0,0
6886,2024 10 07,05:25:07.372,-0.618616,0.3801,0.599024,0.337652,-0.809595,-0.046388,-0.159185,125.671387,250.549316,-24.719238,0,0
6887,2024 10 07,05:25:07.381,-0.632285,0.366828,0.592568,0.338402,-0.718284,-0.138188,-0.228034,120.117188,172.546387,-10.192871,0,0
6888,2024 10 07,05:25:07.389,-0.642332,0.357143,0.588301,0.337283,-0.536637,-0.48732,0.565447,90.637207,124.450684,2.624512,0,0
6889,2024 10 07,05:25:07.397,-0.647795,0.35239,0.58446,0.338511,-0.649434,-0.027833,0.042482,19.592285,68.237305,-3.540039,0,0
6890,2024 10 07,05:25:07.406,-0.647795,0.35239,0.58446,0.338511,-0.649434,-0.027833,0.042482,19.592285,68.237305,-3.540039,0,0
6891,2024 10 07,05:25:07.414,-0.649028,0.350815,0.58374,0.339026,-1.078158,-0.019044,0.192877,9.643555,13.549805,-7.385254,0,0
6892,2024 10 07,05:25:07.422,-0.649957,0.349284,0.582875,0.340313,-0.95999,0.037599,0.113773,3.173828,27.038574,-13.427734,0,0
6893,2024 10 07,05:25:07.431,-0.650209,0.34814,0.582475,0.341686,-0.98001,0.045412,0.031251,-4.150391,7.202148,-15.991211,0,0
6894,2024 10 07,05:25:07.439,-0.649305,0.347658,0.583011,0.342978,-1.161168,0.086428,0.097659,-6.469727,-2.258301,-19.53125,0,0
6895,2024 10 07,05:25:07.447,-0.648964,0.346513,0.583106,0.344619,-1.158238,0.030274,-0.071291,-2.441406,10.803223,-22.216797,0,0
6896,2024 10 07,05:25:07.456,-0.648964,0.346513,0.583106,0.344619,-1.158238,0.030274,-0.071291,-2.441406,10.803223,-22.216797,0,0
6897,2024 10 07,05:25:07.464,-0.648425,0.34534,0.583178,0.346683,-1.139195,0.034669,-0.048341,-8.605957,8.789063,-26.489258,0,0
6898,2024 10 07,05:25:07.472,-0.648079,0.344028,0.582963,0.348989,-1.121128,-0.000488,-0.054201,-7.263184,17.51709,-26.184082,0,0
6899,2024 10 07,05:25:07.481,-0.648186,0.342464,0.582237,0.351531,-1.019562,0.025391,0.024415,-7.141113,23.376465,-25.512695,0,0
6900,2024 10 07,05:25:07.489,-0.648494,0.340768,0.581573,0.353703,-0.96585,0.034181,0.083499,-2.319336,22.583008,-22.949219,0,0
6901,2024 10 07,05:25:07.497,-0.648782,0.338966,0.581153,0.355592,-0.958525,0.083499,0.157231,3.540039,18.066406,-23.376465,0,0
6902,2024 10 07,05:25:07.506,-0.648782,0.338966,0.581153,0.355592,-0.958525,0.083499,0.157231,3.540039,18.066406,-23.376465,0,0
6903,2024 10 07,05:25:07.514,-0.648973,0.336848,0.581365,0.356905,-0.9429,0.059084,0.155766,8.178711,10.864258,-24.719238,0,0
6904,2024 10 07,05:25:07.522,-0.648737,0.334732,0.582283,0.357827,-1.023469,0.0,0.039064,13.305664,1.586914,-25.817871,0,0
6905,2024 10 07,05:25:07.531,-0.648086,0.332738,0.583554,0.358795,-1.058138,-0.000977,0.084475,10.803223,-1.159668,-28.381348,0,0
6906,2024 10 07,05:25:07.539,-0.647747,0.33054,0.584446,0.359987,-0.997589,0.004395,0.148442,9.765625,6.04248,-28.625488,0,0
6907,2024 10 07,05:25:07.547,-0.647518,0.328277,0.585181,0.361272,-0.970733,-0.034669,0.143071,10.192871,6.347656,-28.442383,0,0
6908,2024 10 07,05:25:07.556,-0.647518,0.328277,0.585181,0.361272,-0.970733,-0.034669,0.143071,10.192871,6.347656,-28.442383,0,0
6909,2024 10 07,05:25:07.564,-0.646954,0.326209,0.586112,0.362646,-0.992706,-0.010743,0.162603,6.04248,1.159668,-30.578613,0,0
6910,2024 10 07,05:25:07.572,-0.646087,0.324328,0.587083,0.364303,-1.046419,-0.012207,0.151372,2.563477,1.403809,-32.653809,0,0
6911,2024 10 07,05:25:07.581,-0.645328,0.322421,0.587698,0.366344,-1.022492,-0.026856,0.123539,-0.854492,7.141113,-33.569336,0,0
6912,2024 10 07,05:25:07.589,-0.64459,0.320498,0.588138,0.368618,-1.073763,-0.032716,0.073733,-2.563477,7.93457,-34.729004,0,0
6913,2024 10 07,05:25:07.597,-0.643832,0.318543,0.588416,0.371185,-1.065462,-0.039064,0.07178,-4.821777,12.390137,-36.804199,0,0
6914,2024 10 07,05:25:07.606,-0.643832,0.318543,0.588416,0.371185,-1.065462,-0.039064,0.07178,-4.821777,12.390137,-36.804199,0,0
6915,2024 10 07,05:25:07.614,-0.643206,0.316429,0.588442,0.374024,-1.065462,-0.038087,0.093265,-5.554199,15.319824,-38.452148,0,0
6916,2024 10 07,05:25:07.622,-0.642485,0.314235,0.58844,0.377104,-1.084994,-0.022462,0.127445,-8.117676,16.479492,-41.381836,0,0
6917,2024 10 07,05:25:07.631,-0.641781,0.311814,0.588338,0.380456,-1.084994,-0.024415,0.106449,-8.117676,18.798828,-44.921875,0,0
6918,2024 10 07,05:25:07.639,-0.640883,0.30921,0.588339,0.384078,-1.128452,-0.00586,0.110843,-7.751465,18.249512,-49.316406,0,0
6919,2024 10 07,05:25:07.647,-0.639865,0.306243,0.588434,0.387987,-1.154332,0.007813,0.156743,-7.507324,19.65332,-55.541992,0,0
6920,2024 10 07,05:25:07.656,-0.639865,0.306243,0.588434,0.387987,-1.154332,0.007813,0.156743,-7.507324,19.65332,-55.541992,0,0
6921,2024 10 07,05:25:07.664,-0.638664,0.302857,0.588671,0.39224,-1.181677,0.003418,0.136723,-7.324219,19.958496,-62.62207,0,0
6922,2024 10 07,05:25:07.672,-0.63709,0.299071,0.589128,0.396991,-1.179724,0.00293,0.163091,-7.324219,19.165039,-71.838379,0,0
6923,2024 10 07,05:25:07.681,-0.635075,0.294799,0.589907,0.402224,-1.242225,0.016602,0.164556,-7.263184,17.63916,-82.214355,0,0
6924,2024 10 07,05:25:07.689,-0.63257,0.289919,0.591064,0.407978,-1.316935,0.036622,0.180181,-5.737305,16.357422,-94.055176,0,0
6925,2024 10 07,05:25:07.697,-0.629574,0.284183,0.592676,0.414261,-1.389691,0.082034,0.211921,-2.01416,15.258789,-108.764648,0,0
6926,2024 10 07,05:25:07.706,-0.62603,0.277343,0.594809,0.421152,-1.499069,0.073733,0.172369,2.441406,15.930176,-125.854492,0,0
6927,2024 10 07,05:25:07.714,-0.62603,0.277343,0.594809,0.421152,-1.499069,0.073733,0.172369,2.441406,15.930176,-125.854492,0,0
6928,2024 10 07,05:25:07.722,-0.621995,0.269127,0.597286,0.428884,-1.537156,0.08594,0.135258,6.591797,20.751953,-145.568848,0,0
6929,2024 10 07,05:25:07.731,-0.617519,0.259247,0.600038,0.437511,-1.792535,0.188971,0.211921,12.268066,26.184082,-168.273926,0,0
6930,2024 10 07,05:25:07.739,-0.61187,0.247366,0.603276,0.447754,-1.990295,0.229499,0.12891,14.343262,30.700684,-204.589844,0,0
6931,2024 10 07,05:25:07.747,-0.605055,0.232833,0.606709,0.460001,-2.282784,0.327158,0.010743,15.930176,41.259766,-245.97168,0,0
6932,2024 10 07,05:25:07.756,-0.596599,0.215244,0.610204,0.474753,-2.661702,0.404797,-0.192877,15.625,56.57959,-297.485352,0,0
6933,2024 10 07,05:25:07.764,-0.596599,0.215244,0.610204,0.474753,-2.661702,0.404797,-0.192877,15.625,56.57959,-297.485352,0,0
6934,2024 10 07,05:25:07.772,-0.586739,0.193576,0.612836,0.492643,-3.066011,0.607929,-0.215339,12.084961,85.9375,-356.933594,0,0
6935,2024 10 07,05:25:07.781,-0.575166,0.166945,0.614168,0.513917,-3.339457,0.838893,-0.075198,11.291504,120.483398,-426.391602,0,0
6936,2024 10 07,05:25:07.789,-0.561071,0.135002,0.614425,0.53801,-4.085574,0.905301,0.37257,17.578125,141.296387,-497.924805,0,0
6937,2024 10 07,05:25:07.797,-0.545178,0.097021,0.612918,0.563648,-4.405896,0.738792,0.635273,37.719727,186.523438,-557.556152,0,0
6938,2024 10 07,05:25:07.806,-0.529015,0.052838,0.609411,0.588191,-4.015748,0.067385,-0.162114,72.265625,233.459473,-586.853027,0,1
6939,2024 10 07,05:25:07.814,-0.529015,0.052838,0.609411,0.588191,-4.015748,0.067385,-0.162114,72.265625,233.459473,-586.853027,0,0
6940,2024 10 07,05:25:07.822,-0.511758,0.007008,0.604058,0.610875,-3.531358,0.344737,0.077639,70.3125,246.21582,-584.472656,0,0
6941,2024 10 07,05:25:07.831,-0.49542,-0.03905,0.595312,0.631378,-2.85165,0.791528,-0.868679,63.720703,269.470215,-558.776855,0,0
6942,2024 10 07,05:25:07.839,-0.476935,-0.082451,0.586084,0.6498,-2.220771,1.110874,-0.626972,60.302734,234.619141,-554.199219,0,0
6943,2024 10 07,05:25:07.847,-0.45626,-0.123849,0.576883,0.666103,-1.695364,1.259804,-1.476119,68.359375,187.988281,-537.109375,0,0
6944,2024 10 07,05:25:07.856,-0.431071,-0.158633,0.569968,0.681286,-1.674368,1.23246,-0.987335,51.330566,102.478027,-517.272949,0,0
6945,2024 10 07,05:25:07.864,-0.431071,-0.158633,0.569968,0.681286,-1.674368,1.23246,-0.987335,51.330566,102.478027,-517.272949,0,0
6946,2024 10 07,05:25:07.872,-0.407774,-0.186862,0.561374,0.695458,-0.349132,1.603076,-1.610401,6.347656,88.684082,-433.105469,0,0
6947,2024 10 07,05:25:07.881,-0.395092,-0.205673,0.552348,0.704637,1.316446,1.792047,-0.237312,-28.198242,95.825195,-235.046387,0,0
6948,2024 10 07,05:25:07.889,-0.400311,-0.212486,0.546058,0.704572,0.686056,2.416578,-0.596698,-37.04834,114.379883,67.565918,0,0
6949,2024 10 07,05:25:07.897,-0.420717,-0.206016,0.547603,0.693315,-0.556658,1.601123,-0.560564,12.329102,95.153809,312.316895,0,0
6950,2024 10 07,05:25:07.906,-0.452188,-0.194876,0.550639,0.674052,-1.112339,0.892605,-0.747093,18.188477,158.325195,441.345215,0,0
6951,2024 10 07,05:25:07.914,-0.452188,-0.194876,0.550639,0.674052,-1.112339,0.892605,-0.747093,18.188477,158.325195,441.345215,0,0
6952,2024 10 07,05:25:07.922,-0.486684,-0.181656,0.553825,0.650705,-1.029817,0.325205,-0.972686,23.132324,144.287109,474.304199,0,0
6953,2024 10 07,05:25:07.931,-0.517493,-0.165983,0.556746,0.628239,-0.750999,0.044923,-1.04593,3.540039,103.271484,446.105957,0,0
6954,2024 10 07,05:25:07.939,-0.542934,-0.14867,0.55869,0.609086,-0.683126,-0.120609,-1.307169,-28.320313,51.513672,394.287109,0,0
6955,2024 10 07,05:25:07.947,-0.562835,-0.129316,0.560245,0.593818,-0.758324,-0.193365,-1.138218,-60.913086,4.02832,346.801758,0,0
6956,2024 10 07,05:25:07.956,-0.580022,-0.10819,0.560407,0.581217,-0.578631,-0.006348,-1.105502,-92.773438,-16.662598,329.223633,0,0
6957,2024 10 07,05:25:07.964,-0.580022,-0.10819,0.560407,0.581217,-0.578631,-0.006348,-1.105502,-92.773438,-16.662598,329.223633,0,0
6958,2024 10 07,05:25:07.972,-0.596192,-0.084044,0.560032,0.569083,-0.571306,0.253914,-0.851588,-113.830566,-40.771484,346.923828,0,0
6959,2024 10 07,05:25:07.981,-0.613035,-0.056854,0.559278,0.555125,-0.791528,0.466811,-0.678243,-120.910645,-47.912598,385.925293,0,0
6960,2024 10 07,05:25:07.989,-0.631129,-0.027683,0.557912,0.538185,-1.065462,0.529801,-0.516617,-116.210938,-43.334961,424.377441,0,0
6961,2024 10 07,05:25:07.997,-0.650251,0.001719,0.555406,0.518358,-1.203162,0.401379,-0.470229,-105.224609,-25.939941,447.570801,0,0
6962,2024 10 07,05:25:08.006,-0.669231,0.030337,0.551821,0.496692,-1.155797,0.215827,-0.515641,-94.909668,-17.822266,451.11084,0,0
6963,2024 10 07,05:25:08.014,-0.669231,0.030337,0.551821,0.496692,-1.155797,0.215827,-0.515641,-94.909668,-17.822266,451.11084,0,0
6964,2024 10 07,05:25:08.022,-0.686277,0.05832,0.548263,0.474373,-1.027375,0.115238,-0.580584,-87.524414,-32.470703,439.025879,0,0
6965,2024 10 07,05:25:08.031,-0.700091,0.086137,0.546016,0.452016,-1.018586,0.127445,-0.575701,-80.505371,-66.467285,419.311523,0,0
6966,2024 10 07,05:25:08.039,-0.710311,0.113636,0.545984,0.429473,-1.195837,0.204596,-0.465346,-66.589355,-106.140137,398.010254,0,0
6967,2024 10 07,05:25:08.047,-0.717452,0.140134,0.548365,0.406104,-1.422407,0.338878,-0.307138,-41.687012,-138.48877,381.408691,0,0
6968,2024 10 07,05:25:08.056,-0.722551,0.164857,0.552832,0.380946,-1.622608,0.46144,-0.194342,-6.469727,-161.376953,374.023438,0,0
6969,2024 10 07,05:25:08.064,-0.722551,0.164857,0.552832,0.380946,-1.622608,0.46144,-0.194342,-6.469727,-161.376953,374.023438,0,0
6970,2024 10 07,05:25:08.072,-0.726429,0.187394,0.559059,0.353042,-1.867733,0.502457,-0.150395,35.949707,-178.344727,375.915527,0,0
6971,2024 10 07,05:25:08.081,-0.729495,0.207533,0.56655,0.322162,-2.094302,0.406262,-0.253426,77.514648,-189.331055,379.638672,0,0
6972,2024 10 07,05:25:08.089,-0.731286,0.225637,0.575185,0.288913,-2.294992,0.14893,-0.451186,108.093262,-207.03125,378.723145,0,0
6973,2024 10 07,05:25:08.097,-0.73097,0.242442,0.585019,0.254279,-2.469314,-0.196295,-0.614765,121.765137,-230.773926,372.680664,0,0
6974,2024 10 07,05:25:08.106,-0.727938,0.25862,0.595932,0.219287,-2.751549,-0.514664,-0.638691,121.276855,-256.408691,362.182617,0,0
6975,2024 10 07,05:25:08.114,-0.727938,0.25862,0.595932,0.219287,-2.751549,-0.514664,-0.638691,121.276855,-256.408691,362.182617,0,0
6976,2024 10 07,05:25:08.122,-0.722459,0.274352,0.607125,0.184886,-3.047945,-0.849147,-0.526872,112.915039,-268.859863,349.42627,0,0
6977,2024 10 07,05:25:08.131,-0.715517,0.289359,0.617438,0.151913,-3.237403,-1.262246,-0.424818,102.478027,-262.207031,334.716797,0,0
6978,2024 10 07,05:25:08.139,-0.708133,0.303375,0.625995,0.121005,-3.336039,-1.675832,-0.315928,91.552734,-239.379883,318.664551,0,0
6979,2024 10 07,05:25:08.147,-0.701374,0.316038,0.632111,0.092898,-3.202246,-2.100162,-0.307627,81.298828,-201.293945,296.630859,0,0
6980,2024 10 07,05:25:08.156,-0.695139,0.327044,0.636522,0.06829,-2.746666,-2.462966,-0.334483,69.580078,-176.147461,262.573242,0,0
6981,2024 10 07,05:25:08.164,-0.687603,0.336328,0.641801,0.046659,-2.746666,-2.462966,-0.334483,69.580078,-176.147461,262.573242,0,0
6982,2024 10 07,05:25:08.172,-0.687603,0.336328,0.641801,0.046659,-2.408277,-2.666585,-0.084475,57.983398,-188.537598,222.473145,0,0
6983,2024 10 07,05:25:08.181,-0.67853,0.343592,0.648675,0.027624,-1.202673,-2.448317,1.046419,49.194336,-202.392578,177.612305,0,0
6984,2024 10 07,05:25:08.189,-0.66569,0.346901,0.660618,0.010027,-0.862819,-2.107975,1.453169,61.828613,-298.217773,104.675293,0,0
6985,2024 10 07,05:25:08.197,-0.646692,0.344029,0.68068,-0.010371,-3.230079,-2.861904,2.731529,112.976074,-400.45166,57.678223,0,0
6986,2024 10 07,05:25:08.206,-0.63637,0.336869,0.693334,-0.028977,-3.868282,-3.764763,2.583575,162.414551,-196.411133,58.532715,0,0
6987,2024 10 07,05:25:08.214,-0.642438,0.329876,0.69054,-0.040117,-2.325266,-4.815577,0.770531,154.47998,61.889648,59.753418,0,0
6988,2024 10 07,05:25:08.222,-0.642438,0.329876,0.69054,-0.040117,-2.325266,-4.815577,0.770531,154.47998,61.889648,59.753418,0,0
6989,2024 10 07,05:25:08.231,-0.649616,0.324657,0.686084,-0.043437,-1.330119,-4.669576,0.251473,72.20459,57.312012,9.216309,0,0
6990,2024 10 07,05:25:08.239,-0.651233,0.321502,0.686326,-0.038582,-7.844478,-2.104068,-3.724723,-32.958984,14.648438,-55.603027,0,0
6991,2024 10 07,05:25:08.247,-0.642053,0.30596,0.702819,-0.014208,-1.192907,-2.172918,4.102665,-47.180176,-10.742188,-350.891113,0,0
6992,2024 10 07,05:25:08.256,-0.658888,0.291933,0.692678,0.028972,1.079623,0.596698,-2.566484,-119.32373,352.050781,-397.155762,0,0
6993,2024 10 07,05:25:08.264,-0.646153,0.274154,0.710055,0.0561,-2.64803,1.877987,-0.296884,-136.352539,-250.854492,-423.706055,1,0
6994,2024 10 07,05:25:08.272,-0.646153,0.274154,0.710055,0.0561,-2.64803,1.877987,-0.296884,-136.352539,-250.854492,-423.706055,0,0
6995,2024 10 07,05:25:08.281,-0.636107,0.252433,0.724877,0.07873,-4.031373,-0.669454,1.32963,-38.879395,-8.056641,-385.009766,0,0
6996,2024 10 07,05:25:08.289,-0.649382,0.23042,0.717512,0.101912,-1.68511,-0.030274,0.103519,28.442383,285.827637,-285.400391,0,0
6997,2024 10 07,05:25:08.297,-0.663806,0.211568,0.707926,0.115934,-1.671926,-0.371593,-1.245155,53.161621,227.233887,-193.359375,0,0
6998,2024 10 07,05:25:08.306,-0.674232,0.196984,0.70157,0.120034,-1.675832,-0.30372,-0.225105,103.942871,154.907227,-92.956543,0,0
6999,2024 10 07,05:25:08.314,-0.685604,0.185383,0.693981,0.1182,-0.913602,-0.438978,0.21485,126.098633,164.428711,-30.273438,0,0
7000,2024 10 07,05:25:08.322,-0.685604,0.185383,0.693981,0.1182,-0.913602,-0.438978,0.21485,126.098633,164.428711,-30.273438,0,0
7001,2024 10 07,05:25:08.331,-0.694249,0.177904,0.687539,0.116867,-0.65041,-0.168462,-0.375011,57.861328,103.33252,-20.812988,0,0
7002,2024 10 07,05:25:08.339,-0.697389,0.173875,0.685589,0.11569,-1.265175,-0.035157,0.06885,46.691895,37.353516,-9.277344,0,0
7003,2024 10 07,05:25:08.347,-0.702704,0.169933,0.681472,0.113688,-0.978057,-0.057619,0.149419,53.527832,89.538574,3.601074,0,0
7004,2024 10 07,05:25:08.355,-0.707947,0.166798,0.677064,0.112131,-0.800806,-0.063967,-0.188482,36.132813,63.598633,3.540039,0,0
7005,2024 10 07,05:25:08.364,-0.709782,0.165307,0.675694,0.111002,-1.052767,0.013184,0.230476,20.080566,19.65332,3.479004,0,0
7006,2024 10 07,05:25:08.372,-0.709782,0.165307,0.675694,0.111002,-1.052767,0.013184,0.230476,20.080566,19.65332,3.479004,0,0
7007,2024 10 07,05:25:08.380,-0.71197,0.163966,0.673833,0.110286,-0.969756,0.025391,0.045412,17.944336,36.010742,1.89209,0,0
7008,2024 10 07,05:25:08.389,-0.713481,0.163018,0.672507,0.11002,-0.963897,0.027345,0.009278,7.873535,16.052246,-1.403809,0,0
7009,2024 10 07,05:25:08.397,-0.713778,0.162551,0.672258,0.110306,-1.058626,0.090335,0.107425,0.488281,4.943848,-6.164551,0,0
7010,2024 10 07,05:25:08.405,-0.714178,0.161878,0.671903,0.11087,-1.083529,0.067873,-0.02002,1.77002,8.178711,-9.460449,0,0
7011,2024 10 07,05:25:08.414,-0.714479,0.161098,0.671644,0.11163,-1.118686,0.057619,-0.014649,0.671387,7.385254,-11.71875,0,0
7012,2024 10 07,05:25:08.422,-0.714479,0.161098,0.671644,0.11163,-1.118686,0.057619,-0.014649,0.671387,7.385254,-11.71875,0,0
7013,2024 10 07,05:25:08.430,-0.715042,0.160324,0.67106,0.112643,-1.073275,0.025391,-0.02295,-2.258301,13.977051,-12.329102,0,0
7014,2024 10 07,05:25:08.439,-0.715692,0.159794,0.670254,0.114066,-1.037141,0.031251,-0.016602,-7.751465,15.014648,-13.244629,0,0
7015,2024 10 07,05:25:08.447,-0.716197,0.159482,0.669478,0.115871,-1.01175,0.054201,0.041993,-12.512207,14.160156,-15.74707,0,0
7016,2024 10 07,05:25:08.455,-0.716644,0.159095,0.668737,0.117906,-0.950713,0.085452,0.108402,-12.084961,13.244629,-18.005371,0,0
7017,2024 10 07,05:25:08.464,-0.717001,0.15843,0.668197,0.119673,-0.948271,0.086917,0.116703,-6.713867,10.009766,-18.249512,0,0
7018,2024 10 07,05:25:08.472,-0.717001,0.15843,0.668197,0.119673,-0.948271,0.086917,0.116703,-6.713867,10.009766,-18.249512,0,0
7019,2024 10 07,05:25:08.480,-0.717306,0.157457,0.667851,0.121055,-0.970244,0.059572,0.084475,-1.281738,8.422852,-17.76123,0,0
7020,2024 10 07,05:25:08.489,-0.717586,0.156324,0.667593,0.122282,-1.006867,0.059572,0.044435,0.12207,7.69043,-18.127441,0,0
7021,2024 10 07,05:25:08.497,-0.717851,0.154966,0.66742,0.123397,-1.035188,0.015137,-0.011719,3.78418,7.8125,-18.798828,0,0
7022,2024 10 07,05:25:08.505,-0.718239,0.153613,0.667086,0.124625,-0.995636,0.037111,0.086917,1.342773,10.986328,-18.981934,0,0
7023,2024 10 07,05:25:08.514,-0.718819,0.152219,0.666565,0.125772,-0.966826,0.041993,0.088382,3.051758,12.756348,-18.127441,0,0
7024,2024 10 07,05:25:08.522,-0.718819,0.152219,0.666565,0.125772,-0.966826,0.041993,0.088382,3.051758,12.756348,-18.127441,0,0
7025,2024 10 07,05:25:08.530,-0.719319,0.150715,0.666187,0.126727,-0.980499,0.089846,0.133305,6.04248,9.277344,-18.188477,0,0
7026,2024 10 07,05:25:08.539,-0.71979,0.148891,0.665971,0.127342,-0.995148,0.043947,0.13477,11.169434,8.789063,-18.249512,0,0
7027,2024 10 07,05:25:08.547,-0.720299,0.146937,0.665745,0.127921,-1.000519,0.023438,0.091311,11.84082,8.911133,-18.859863,0,0
7028,2024 10 07,05:25:08.555,-0.720676,0.144928,0.665667,0.128489,-1.010285,-0.016602,0.08887,14.282227,7.385254,-19.042969,0,0
7029,2024 10 07,05:25:08.564,-0.720907,0.143007,0.665689,0.129228,-1.013214,-0.023438,0.092776,11.535645,5.249023,-20.202637,0,0
7030,2024 10 07,05:25:08.572,-0.720907,0.143007,0.665689,0.129228,-1.013214,-0.023438,0.092776,11.535645,5.249023,-20.202637,0,0
7031,2024 10 07,05:25:08.580,-0.721003,0.141151,0.6658,0.130157,-1.045442,0.059084,0.10303,7.446289,3.234863,-22.216797,0,0
7032,2024 10 07,05:25:08.589,-0.721109,0.139143,0.665922,0.131108,-1.043489,0.030274,0.094729,7.751465,4.272461,-24.353027,0,0
7033,2024 10 07,05:25:08.597,-0.72106,0.137092,0.666157,0.132338,-1.078646,-0.009766,0.094241,9.216309,2.197266,-26.977539,0,0
7034,2024 10 07,05:25:08.605,-0.720702,0.134983,0.666617,0.134125,-1.094272,0.044435,0.130375,3.479004,-1.281738,-33.38623,0,0
7035,2024 10 07,05:25:08.614,-0.720269,0.132564,0.667151,0.136197,-1.139195,0.009278,0.098636,3.845215,-0.793457,-38.635254,0,0
7036,2024 10 07,05:25:08.622,-0.720269,0.132564,0.667151,0.136197,-1.139195,0.009278,0.098636,3.845215,-0.793457,-38.635254,0,0
7037,2024 10 07,05:25:08.630,-0.71955,0.130033,0.667855,0.138955,-1.193396,0.032716,0.074221,-0.671387,-3.967285,-46.081543,0,0
7038,2024 10 07,05:25:08.639,-0.718755,0.12721,0.668533,0.142384,-1.25248,0.023438,0.076662,-4.394531,-0.671387,-54.748535,0,0
7039,2024 10 07,05:25:08.647,-0.718002,0.124024,0.668995,0.146758,-1.294473,0.038575,0.069338,-8.056641,2.380371,-65.429688,0,0
7040,2024 10 07,05:25:08.655,-0.716976,0.120295,0.669582,0.152103,-1.42143,0.073244,0.071291,-11.474609,1.098633,-79.101563,0,0
7041,2024 10 07,05:25:08.664,-0.715938,0.115736,0.670009,0.158514,-1.524949,0.059572,0.054689,-12.695313,7.8125,-94.970703,0,0
7042,2024 10 07,05:25:08.672,-0.715056,0.110262,0.669976,0.166342,-1.581103,0.120121,0.076174,-16.540527,15.563965,-113.342285,0,0
7043,2024 10 07,05:25:08.680,-0.715056,0.110262,0.669976,0.166342,-1.581103,0.120121,0.076174,-16.540527,15.563965,-113.342285,0,0
7044,2024 10 07,05:25:08.689,-0.714179,0.103567,0.669646,0.175488,-1.614795,0.159673,0.122074,-18.066406,22.460938,-134.460449,0,0
7045,2024 10 07,05:25:08.697,-0.713545,0.095362,0.668761,0.185791,-1.581591,0.182623,0.15479,-12.329102,33.630371,-154.052734,0,0
7046,2024 10 07,05:25:08.705,-0.712943,0.085342,0.667612,0.196782,-1.695853,0.225593,0.166509,-2.075195,38.818359,-173.88916,0,0
7047,2024 10 07,05:25:08.714,-0.711937,0.073322,0.666429,0.208906,-1.857479,0.264657,0.122074,2.807617,42.96875,-202.514648,0,0
7048,2024 10 07,05:25:08.722,-0.711044,0.058968,0.664359,0.222635,-2.013245,0.272958,-0.096194,7.751465,60.913086,-233.459473,0,0
7049,2024 10 07,05:25:08.730,-0.711044,0.058968,0.664359,0.222635,-2.013245,0.272958,-0.096194,7.751465,60.913086,-233.459473,0,0
7050,2024 10 07,05:25:08.739,-0.709854,0.042233,0.66141,0.238454,-2.402905,0.346202,-0.224128,6.469727,73.730469,-271.484375,0,0
7051,2024 10 07,05:25:08.747,-0.708624,0.022612,0.656879,0.256614,-2.864834,0.477065,-0.240242,10.314941,101.623535,-314.27002,0,0
7052,2024 10 07,05:25:08.755,-0.708454,-0.000776,0.649073,0.277122,-3.233497,0.54152,-0.510758,14.099121,153.259277,-360.534668,0,0
7053,2024 10 07,05:25:08.764,-0.709061,-0.028304,0.637758,0.299493,-3.632435,0.404309,-0.589862,23.071289,201.23291,-405.151367,0,0
7054,2024 10 07,05:25:08.772,-0.710561,-0.059603,0.622119,0.323294,-3.861446,0.365734,-0.274422,28.442383,262.145996,-440.490723,0,0
7055,2024 10 07,05:25:08.780,-0.710561,-0.059603,0.622119,0.323294,-3.861446,0.365734,-0.274422,28.442383,262.145996,-440.490723,0,0
7056,2024 10 07,05:25:08.789,-0.713357,-0.094758,0.60149,0.346917,-3.662709,0.036622,-0.348155,42.175293,319.519043,-464.355469,0,0
7057,2024 10 07,05:25:08.797,-0.714561,-0.131405,0.578704,0.370455,-3.328715,-0.215827,-0.578631,41.931152,318.664551,-479.370117,0,1
7058,2024 10 07,05:25:08.805,-0.713596,-0.16619,0.5547,0.394296,-3.022553,0.477065,-0.487808,19.958496,307.434082,-473.999023,0,0
7059,2024 10 07,05:25:08.814,-0.711292,-0.198625,0.530044,0.416732,-3.01474,0.853542,-0.500992,13.000488,296.020508,-458.251953,0,0
7060,2024 10 07,05:25:08.822,-0.708062,-0.230713,0.503668,0.437879,-2.351634,1.130894,-1.275918,16.845703,310.668945,-455.810547,0,0
7061,2024 10 07,05:25:08.830,-0.708062,-0.230713,0.503668,0.437879,-2.351634,1.130894,-1.275918,16.845703,310.668945,-455.810547,0,0
7062,2024 10 07,05:25:08.839,-0.701239,-0.261378,0.479497,0.458289,-1.767144,1.208045,-1.367718,25.024414,245.97168,-452.880859,0,0
7063,2024 10 07,05:25:08.847,-0.691613,-0.287772,0.4573,0.479308,-0.694845,1.560106,-1.765191,-3.173828,195.983887,-433.59375,0,0
7064,2024 10 07,05:25:08.855,-0.680523,-0.308302,0.438894,0.49921,-0.06299,1.126499,-1.249062,-9.094238,117.553711,-376.831055,0,0
7065,2024 10 07,05:25:08.864,-0.670855,-0.321257,0.425874,0.515149,0.526383,1.305704,-0.10303,-32.836914,62.62207,-245.97168,0,0
7066,2024 10 07,05:25:08.872,-0.671637,-0.325024,0.418652,0.517682,0.305185,2.588458,-0.549821,-11.71875,76.049805,3.417969,0,0
7067,2024 10 07,05:25:08.880,-0.671637,-0.325024,0.418652,0.517682,0.305185,2.588458,-0.549821,-11.71875,76.049805,3.417969,0,0
7068,2024 10 07,05:25:08.889,-0.681008,-0.324015,0.420848,0.504113,-0.467299,2.12946,-0.365246,61.828613,73.303223,221.984863,0,0
7069,2024 10 07,05:25:08.897,-0.696396,-0.321659,0.428163,0.47775,-1.052278,1.306192,-0.552751,103.33252,115.966797,354.064941,0,0
7070,2024 10 07,05:25:08.905,-0.713546,-0.318471,0.436896,0.445589,-0.686544,0.842799,-0.796411,118.225098,112.548828,398.4375,0,0
7071,2024 10 07,05:25:08.914,-0.728705,-0.312768,0.447169,0.413768,-0.353038,0.642109,-1.091342,101.68457,70.983887,398.4375,0,0
7072,2024 10 07,05:25:08.922,-0.740894,-0.303813,0.45905,0.384769,-0.39259,0.399426,-1.129429,74.645996,13.85498,380.249023,0,0
7073,2024 10 07,05:25:08.930,-0.740894,-0.303813,0.45905,0.384769,-0.39259,0.399426,-1.129429,74.645996,13.85498,380.249023,0,0
7074,2024 10 07,05:25:08.939,-0.750159,-0.291719,0.472037,0.359643,-0.571795,0.204108,-1.148473,41.259766,-35.644531,353.637695,0,0
7075,2024 10 07,05:25:08.947,-0.757206,-0.27653,0.485697,0.338037,-0.634785,0.220222,-0.994171,5.981445,-73.486328,336.547852,0,0
7076,2024 10 07,05:25:08.955,-0.763208,-0.258264,0.499568,0.318191,-0.71926,0.327647,-0.778344,-23.498535,-95.76416,339.599609,0,0
7077,2024 10 07,05:25:08.964,-0.768846,-0.237154,0.513459,0.298319,-0.830592,0.429212,-0.548845,-43.334961,-104.614258,357.543945,0,0
7078,2024 10 07,05:25:08.972,-0.774644,-0.213562,0.526835,0.277062,-0.897,0.502457,-0.528336,-56.640625,-102.478027,385.070801,0,0
7079,2024 10 07,05:25:08.980,-0.774644,-0.213562,0.526835,0.277062,-0.897,0.502457,-0.528336,-56.640625,-102.478027,385.070801,0,0
7080,2024 10 07,05:25:08.989,-0.780414,-0.187814,0.539668,0.253845,-1.020051,0.461928,-0.476577,-64.025879,-99.365234,412.902832,0,0
7081,2024 10 07,05:25:08.997,-0.785629,-0.160596,0.551766,0.22924,-1.097201,0.369152,-0.429212,-68.969727,-98.510742,427.246094,0,0
7082,2024 10 07,05:25:09.005,-0.789503,-0.1327,0.563261,0.204483,-1.104526,0.293954,-0.458998,-73.120117,-105.285645,424.682617,0,0
7083,2024 10 07,05:25:09.014,-0.791213,-0.104713,0.574834,0.18051,-1.205115,0.222175,-0.448744,-74.951172,-124.084473,411.804199,0,0
7084,2024 10 07,05:25:09.022,-0.790367,-0.077117,0.586982,0.157558,-1.37553,0.255867,-0.35548,-72.44873,-146.789551,395.202637,0,0
7085,2024 10 07,05:25:09.030,-0.790367,-0.077117,0.586982,0.157558,-1.37553,0.255867,-0.35548,-72.44873,-146.789551,395.202637,0,0
7086,2024 10 07,05:25:09.039,-0.787097,-0.050367,0.599715,0.135213,-1.555223,0.351085,-0.261727,-63.537598,-167.175293,380.615234,0,0
7087,2024 10 07,05:25:09.047,-0.781532,-0.024995,0.61308,0.112766,-1.767632,0.406262,-0.149419,-45.959473,-186.645508,369.812012,0,0
7088,2024 10 07,05:25:09.055,-0.773777,-0.001232,0.627079,0.089662,-1.970763,0.408216,-0.110355,-24.719238,-205.688477,362.426758,0,0
7089,2024 10 07,05:25:09.064,-0.763763,0.021066,0.641785,0.065838,-2.182684,0.249031,-0.084964,-6.958008,-228.45459,357.116699,0,0
7090,2024 10 07,05:25:09.072,-0.751319,0.042426,0.657253,0.041685,-2.432203,-0.022462,-0.087405,0.732422,-252.380371,352.844238,0,0
7091,2024 10 07,05:25:09.080,-0.751319,0.042426,0.657253,0.041685,-2.432203,-0.022462,-0.087405,0.732422,-252.380371,352.844238,0,0
7092,2024 10 07,05:25:09.089,-0.736483,0.063225,0.673253,0.018061,-2.757897,-0.43263,-0.041993,-2.624512,-273.498535,343.322754,0,0
7093,2024 10 07,05:25:09.097,-0.719753,0.083691,0.689157,-0.003712,-3.094821,-0.95999,0.006348,-18.371582,-284.301758,326.660156,0,0
7094,2024 10 07,05:25:09.105,-0.701911,0.104239,0.704224,-0.02289,-3.551866,-1.507859,0.133793,-41.992188,-279.296875,312.194824,0,0
7095,2024 10 07,05:25:09.114,-0.68544,0.125561,0.716139,-0.03939,-3.74279,-2.08356,0.301767,-67.382813,-228.69873,306.274414,0,0
7096,2024 10 07,05:25:09.122,-0.672226,0.147546,0.723589,-0.052545,-3.349712,-2.680746,0.140629,-93.505859,-164.855957,290.405273,0,0
7097,2024 10 07,05:25:09.130,-0.660159,0.16884,0.72933,-0.061333,-2.757897,-3.042085,0.184576,-120.178223,-146.911621,249.267578,0,0
7098,2024 10 07,05:25:09.139,-0.660159,0.16884,0.72933,-0.061333,-2.757897,-3.042085,0.184576,-120.178223,-146.911621,249.267578,0,0
7099,2024 10 07,05:25:09.147,-0.647024,0.187501,0.736156,-0.065404,-1.92584,-3.075289,0.700217,-140.197754,-166.137695,186.340332,0,0
7100,2024 10 07,05:25:09.155,-0.630859,0.201847,0.746349,-0.065105,-0.437513,-2.224677,2.006897,-153.198242,-228.088379,103.759766,0,0
7101,2024 10 07,05:25:09.164,-0.607195,0.209589,0.763721,-0.064156,-1.614795,-1.872127,3.099704,-122.375488,-366.394043,32.104492,0,0
7102,2024 10 07,05:25:09.172,-0.583438,0.212301,0.781157,-0.065745,-3.71984,-2.652425,3.891232,-64.025879,-317.443848,28.808594,0,0
7103,2024 10 07,05:25:09.180,-0.577073,0.216191,0.784706,-0.066963,-3.154881,-3.756951,2.523515,-28.503418,-29.174805,69.885254,0,0
7104,2024 10 07,05:25:09.189,-0.577073,0.216191,0.784706,-0.066963,-3.154881,-3.756951,2.523515,-28.503418,-29.174805,69.885254,0,0
7105,2024 10 07,05:25:09.197,-0.579712,0.221921,0.781802,-0.058922,-8.383068,-6.607624,2.783288,-166.809082,32.714844,-17.39502,0,0
7106,2024 10 07,05:25:09.205,-0.590521,0.213674,0.777428,-0.035125,-4.649068,-3.984008,2.921964,-123.474121,304.077148,-211.975098,0,0
7107,2024 10 07,05:25:09.214,-0.624721,0.200475,0.754663,-0.004145,1.406293,-0.789575,-0.108402,-21.911621,525.268555,-263.549805,0,0
7108,2024 10 07,05:25:09.222,-0.636354,0.184307,0.748761,0.02102,-1.331583,2.318918,-0.301279,-56.030273,51.147461,-320.983887,1,0
7109,2024 10 07,05:25:09.230,-0.638832,0.16317,0.751134,0.032668,-3.527452,-0.853053,0.739769,70.556641,113.952637,-253.051758,0,0
7110,2024 10 07,05:25:09.239,-0.638832,0.16317,0.751134,0.032668,-3.527452,-0.853053,0.739769,70.556641,113.952637,-253.051758,0,0
7111,2024 10 07,05:25:09.247,-0.656056,0.145882,0.739192,0.043644,-1.263222,-0.586444,0.005371,81.848145,252.319336,-176.757813,0,0
7112,2024 10 07,05:25:09.255,-0.670006,0.132442,0.728692,0.050581,-1.328166,-0.285653,0.050295,69.396973,216.186523,-122.802734,0,0
7113,2024 10 07,05:25:09.264,-0.68384,0.120787,0.71781,0.050217,-1.063021,0.154302,-0.3296,111.38916,193.786621,-52.001953,0,0
7114,2024 10 07,05:25:09.272,-0.695248,0.109094,0.70909,0.04382,-1.095248,-0.150395,0.176275,167.724609,156.433105,-22.216797,0,0
7115,2024 10 07,05:25:09.280,-0.706702,0.09895,0.699496,0.038561,-0.761254,-0.212409,0.008301,116.333008,167.175293,-21.362305,0,0
7116,2024 10 07,05:25:09.289,-0.706702,0.09895,0.699496,0.038561,-0.761254,-0.212409,0.008301,116.333008,167.175293,-21.362305,0,0
7117,2024 10 07,05:25:09.297,-0.715444,0.092009,0.691702,0.034961,-0.952666,-0.192389,-0.197272,86.608887,117.797852,-8.300781,0,0
7118,2024 10 07,05:25:09.305,-0.721653,0.08762,0.685931,0.032225,-0.909207,-0.159185,0.315928,50.170898,93.566895,-2.563477,0,0
7119,2024 10 07,05:25:09.314,-0.726754,0.085285,0.680837,0.031862,-0.869655,0.131352,0.104495,22.216797,73.791504,-9.399414,0,0
7120,2024 10 07,05:25:09.322,-0.729765,0.082956,0.677913,0.031538,-0.869655,0.032716,0.307627,19.836426,41.931152,-12.878418,0,0
7121,2024 10 07,05:25:09.330,-0.731932,0.080949,0.675802,0.03186,-0.949736,0.055177,0.109867,18.066406,31.005859,-15.563965,0,0
7122,2024 10 07,05:25:09.339,-0.731932,0.080949,0.675802,0.03186,-0.949736,0.055177,0.109867,18.066406,31.005859,-15.563965,0,0
7123,2024 10 07,05:25:09.347,-0.733218,0.078978,0.674618,0.032305,-1.001984,0.037599,0.017579,7.69043,18.249512,-18.005371,0,0
7124,2024 10 07,05:25:09.355,-0.733914,0.077475,0.673985,0.033333,-0.950713,0.002441,0.172857,5.310059,10.986328,-19.470215,0,0
7125,2024 10 07,05:25:09.364,-0.734316,0.076174,0.673636,0.034542,-0.941923,0.029786,0.037599,0.427246,4.760742,-19.40918,0,0
7126,2024 10 07,05:25:09.372,-0.733958,0.075221,0.674058,0.035959,-1.00589,0.050295,0.091311,-4.699707,-6.958008,-19.714355,0,0
7127,2024 10 07,05:25:09.380,-0.733454,0.07437,0.674621,0.037418,-1.066927,0.011719,0.009278,-5.249023,-6.408691,-19.348145,0,0
7128,2024 10 07,05:25:09.389,-0.733454,0.07437,0.674621,0.037418,-1.066927,0.011719,0.009278,-5.249023,-6.408691,-19.348145,0,0
7129,2024 10 07,05:25:09.397,-0.732966,0.073785,0.675115,0.039199,-1.044954,0.033692,0.009278,-10.864258,-5.79834,-20.202637,0,0
7130,2024 10 07,05:25:09.405,-0.732542,0.073324,0.675513,0.041087,-1.010285,0.034669,0.147465,-11.474609,-3.723145,-19.40918,0,0
7131,2024 10 07,05:25:09.414,-0.732158,0.072769,0.675889,0.0427,-0.988311,-0.001953,0.049806,-7.019043,-6.530762,-17.883301,0,0
7132,2024 10 07,05:25:09.422,-0.731522,0.072239,0.676537,0.044213,-1.017609,0.034669,0.118656,-5.859375,-9.338379,-17.51709,0,0
7133,2024 10 07,05:25:09.430,-0.730949,0.071462,0.677153,0.045499,-1.046419,0.033692,0.04883,-3.723145,-8.239746,-17.822266,0,0
7134,2024 10 07,05:25:09.439,-0.730949,0.071462,0.677153,0.045499,-1.046419,0.033692,0.04883,-3.723145,-8.239746,-17.822266,0,0
7135,2024 10 07,05:25:09.447,-0.730352,0.070497,0.677813,0.04675,-1.046419,0.015625,0.048341,-1.708984,-8.544922,-19.104004,0,0
7136,2024 10 07,05:25:09.455,-0.729841,0.069438,0.678384,0.048021,-1.025422,0.031251,0.076662,-0.610352,-6.774902,-19.714355,0,0
7137,2024 10 07,05:25:09.464,-0.729385,0.068207,0.67891,0.049259,-0.995636,0.026368,0.116703,1.220703,-6.103516,-20.690918,0,0
7138,2024 10 07,05:25:09.472,-0.728891,0.066764,0.6795,0.050405,-1.004913,0.036134,0.101077,3.479004,-8.300781,-21.850586,0,0
7139,2024 10 07,05:25:09.480,-0.728321,0.065117,0.680194,0.051429,-1.035676,0.015137,0.076174,6.04248,-8.239746,-22.521973,0,0
7140,2024 10 07,05:25:09.489,-0.728321,0.065117,0.680194,0.051429,-1.035676,0.015137,0.076174,6.04248,-8.239746,-22.521973,0,0
7141,2024 10 07,05:25:09.497,-0.72782,0.063246,0.68083,0.052422,-1.085971,0.029298,0.093265,9.033203,-7.019043,-24.047852,0,0
7142,2024 10 07,05:25:09.505,-0.727602,0.061124,0.681177,0.053451,-1.070833,-0.00293,0.053713,8.972168,-0.671387,-26.184082,0,0
7143,2024 10 07,05:25:09.514,-0.727584,0.058973,0.681283,0.054741,-1.003937,-0.018067,0.051759,7.93457,0.976563,-27.770996,0,0
7144,2024 10 07,05:25:09.522,-0.727385,0.056914,0.681545,0.056281,-1.049837,-0.016114,0.074221,3.479004,-1.89209,-29.724121,0,0
7145,2024 10 07,05:25:09.530,-0.72724,0.054943,0.681704,0.058161,-1.066439,-0.035157,0.077151,1.586914,1.281738,-31.494141,0,0
7146,2024 10 07,05:25:09.539,-0.72724,0.054943,0.681704,0.058161,-1.066439,-0.035157,0.077151,1.586914,1.281738,-31.494141,0,0
7147,2024 10 07,05:25:09.547,-0.727331,0.053048,0.681565,0.060368,-1.041047,-0.02002,0.073244,-1.953125,4.943848,-33.325195,0,0
7148,2024 10 07,05:25:09.555,-0.727448,0.051174,0.681371,0.062728,-1.038118,-0.028809,0.082522,-3.417969,5.126953,-34.362793,0,0
7149,2024 10 07,05:25:09.564,-0.72757,0.049331,0.681137,0.065273,-1.0347,-0.035157,0.095706,-4.882813,5.981445,-35.766602,0,0
7150,2024 10 07,05:25:09.572,-0.727758,0.047392,0.68081,0.067966,-1.07767,-0.06592,0.029786,-5.004883,6.896973,-37.841797,0,0
7151,2024 10 07,05:25:09.580,-0.727814,0.045425,0.680565,0.07109,-1.11478,-0.037111,0.049318,-9.155273,5.737305,-41.992188,0,0
7152,2024 10 07,05:25:09.589,-0.72793,0.043381,0.680196,0.074628,-1.140172,-0.032228,0.073733,-11.474609,8.300781,-46.447754,0,0
7153,2024 10 07,05:25:09.597,-0.72793,0.043381,0.680196,0.074628,-1.140172,-0.032228,0.073733,-11.474609,8.300781,-46.447754,0,0
7154,2024 10 07,05:25:09.605,-0.728109,0.041115,0.679693,0.078642,-1.161168,-0.016114,0.08887,-12.756348,9.643555,-52.490234,0,0
7155,2024 10 07,05:25:09.614,-0.728273,0.038463,0.679142,0.083092,-1.156285,-0.030274,0.080081,-13.122559,10.620117,-59.448242,0,0
7156,2024 10 07,05:25:09.622,-0.728382,0.035495,0.678557,0.088093,-1.146519,-0.012696,0.103519,-15.197754,10.375977,-66.589355,0,0
7157,2024 10 07,05:25:09.630,-0.728348,0.032061,0.678054,0.093401,-1.186071,0.014161,0.154302,-11.779785,9.033203,-72.937012,0,0
7158,2024 10 07,05:25:09.639,-0.728168,0.0279,0.677647,0.098927,-1.261269,0.023438,0.146977,-7.141113,7.8125,-81.420898,0,0
7159,2024 10 07,05:25:09.647,-0.728168,0.0279,0.677647,0.098927,-1.261269,0.023438,0.146977,-7.141113,7.8125,-81.420898,0,0
7160,2024 10 07,05:25:09.655,-0.727937,0.022773,0.67722,0.104704,-1.354534,0.024903,0.099124,-1.525879,9.82666,-91.61377,0,0
7161,2024 10 07,05:25:09.664,-0.727639,0.01661,0.676709,0.111038,-1.476119,0.044923,0.142094,2.868652,11.230469,-105.895996,0,0
7162,2024 10 07,05:25:09.672,-0.727368,0.009239,0.675905,0.118336,-1.528855,0.07178,0.102542,4.455566,16.906738,-124.145508,0,0
7163,2024 10 07,05:25:09.680,-0.726957,0.000501,0.674892,0.126708,-1.646046,0.093753,0.104007,7.568359,18.249512,-145.263672,0,0
7164,2024 10 07,05:25:09.689,-0.726022,-0.009729,0.673901,0.136583,-1.871639,0.133793,-0.033204,7.324219,15.563965,-171.875,0,0
7165,2024 10 07,05:25:09.697,-0.726022,-0.009729,0.673901,0.136583,-1.871639,0.133793,-0.033204,7.324219,15.563965,-171.875,0,0
7166,2024 10 07,05:25:09.705,-0.724622,-0.021761,0.672648,0.148304,-2.117252,0.17188,-0.018555,7.507324,20.324707,-204.284668,0,0
7167,2024 10 07,05:25:09.714,-0.723299,-0.035954,0.670204,0.162399,-2.310617,0.291025,-0.112308,4.577637,35.705566,-243.408203,0,0
7168,2024 10 07,05:25:09.722,-0.721683,-0.05271,0.666525,0.179276,-2.60213,0.380871,-0.162114,2.197266,47.485352,-291.07666,0,0
7169,2024 10 07,05:25:09.730,-0.719897,-0.072655,0.660879,0.19927,-2.88583,0.540056,-0.016602,3.173828,71.289063,-345.581055,0,0
7170,2024 10 07,05:25:09.739,-0.718058,-0.096475,0.65242,0.222337,-3.277444,0.672872,-0.08301,4.882813,97.167969,-406.799316,0,0
7171,2024 10 07,05:25:09.747,-0.718058,-0.096475,0.65242,0.222337,-3.277444,0.672872,-0.08301,4.882813,97.167969,-406.799316,0,0
7172,2024 10 07,05:25:09.755,-0.715383,-0.124416,0.641251,0.248084,-3.35606,0.50441,0.032716,13.305664,126.098633,-466.247559,0,0
7173,2024 10 07,05:25:09.764,-0.711031,-0.156621,0.627493,0.275966,-3.474715,0.344737,0.252937,33.26416,136.230469,-521.606445,0,0
7174,2024 10 07,05:25:09.772,-0.704298,-0.191376,0.612054,0.304516,-3.427839,0.142094,0.229499,45.410156,139.099121,-548.583984,0,1
7175,2024 10 07,05:25:09.780,-0.695923,-0.226183,0.59493,0.332551,-2.94882,0.24366,0.117191,38.391113,144.40918,-548.522949,0,0
7176,2024 10 07,05:25:09.789,-0.686606,-0.258584,0.577021,0.358822,-2.741783,0.359386,-0.081057,36.071777,134.643555,-518.066406,0,0
7177,2024 10 07,05:25:09.797,-0.686606,-0.258584,0.577021,0.358822,-2.741783,0.359386,-0.081057,36.071777,134.643555,-518.066406,0,0
7178,2024 10 07,05:25:09.805,-0.675706,-0.288517,0.558956,0.384378,-1.794977,0.710959,-0.554704,21.30127,112.548828,-508.972168,0,0
7179,2024 10 07,05:25:09.814,-0.661798,-0.314776,0.542387,0.4108,-0.986847,1.049348,-1.000519,0.305176,52.185059,-495.056152,0,0
7180,2024 10 07,05:25:09.822,-0.643473,-0.336005,0.528879,0.439693,-0.915555,0.859401,-0.747581,-29.23584,-33.081055,-495.849609,0,0
7181,2024 10 07,05:25:09.830,-0.62399,-0.350003,0.515986,0.471055,0.604022,0.249031,-2.399487,-102.111816,-81.604004,-444.580078,0,0
7182,2024 10 07,05:25:09.839,-0.608986,-0.349334,0.507514,0.499531,0.724631,1.196814,-0.266121,-182.739258,-165.893555,-252.929688,0,0
7183,2024 10 07,05:25:09.847,-0.608986,-0.349334,0.507514,0.499531,0.724631,1.196814,-0.266121,-182.739258,-165.893555,-252.929688,0,0
7184,2024 10 07,05:25:09.855,-0.606676,-0.33614,0.50468,0.514055,-0.387707,2.227119,0.096194,-170.776367,-100.830078,16.601563,0,0
7185,2024 10 07,05:25:09.864,-0.616211,-0.318817,0.506407,0.512047,-0.635762,2.106021,-0.062014,-114.746094,-41.992188,215.515137,0,0
7186,2024 10 07,05:25:09.872,-0.631397,-0.301347,0.511923,0.49846,-0.83401,1.341349,-0.041017,-53.161621,12.695313,319.702148,0,0
7187,2024 10 07,05:25:09.880,-0.648314,-0.285639,0.517515,0.479873,-0.53029,0.770043,-0.485366,-24.475098,35.522461,336.05957,0,0
7188,2024 10 07,05:25:09.889,-0.662247,-0.270641,0.523685,0.462533,-0.046388,0.497085,-0.612323,-22.094727,2.563477,300.842285,0,0
7189,2024 10 07,05:25:09.897,-0.662247,-0.270641,0.523685,0.462533,-0.046388,0.497085,-0.612323,-22.094727,2.563477,300.842285,0,0
7190,2024 10 07,05:25:09.905,-0.671446,-0.255309,0.531367,0.449029,0.097659,0.417493,-0.542497,-26.855469,-56.45752,254.577637,0,0
7191,2024 10 07,05:25:09.914,-0.676427,-0.239072,0.540804,0.439115,-0.104007,0.514664,-0.381848,-33.630371,-106.994629,220.214844,0,0
7192,2024 10 07,05:25:09.922,-0.679073,-0.221739,0.551425,0.430838,-0.319346,0.660176,-0.201178,-38.085938,-134.765625,211.05957,0,0
7193,2024 10 07,05:25:09.930,-0.681186,-0.203185,0.562607,0.422108,-0.496597,0.726096,-0.043458,-39.367676,-143.188477,224.975586,0,0
7194,2024 10 07,05:25:09.939,-0.683719,-0.183211,0.573823,0.411934,-0.532243,0.68508,0.033692,-41.992188,-143.432617,247.86377,0,0
7195,2024 10 07,05:25:09.947,-0.683719,-0.183211,0.573823,0.411934,-0.532243,0.68508,0.033692,-41.992188,-143.432617,247.86377,0,0
7196,2024 10 07,05:25:09.955,-0.686339,-0.161457,0.585094,0.400668,-0.53029,0.632344,0.113773,-49.682617,-152.587891,267.456055,0,0
7197,2024 10 07,05:25:09.964,-0.688374,-0.137654,0.596547,0.389003,-0.610859,0.601093,0.191412,-62.072754,-168.151855,280.395508,0,0
7198,2024 10 07,05:25:09.972,-0.689467,-0.111761,0.608088,0.377325,-0.782739,0.593768,0.298349,-76.965332,-184.326172,290.039063,0,0
7199,2024 10 07,05:25:09.980,-0.689776,-0.083898,0.619238,0.36567,-0.965361,0.598163,0.385266,-93.566895,-193.786621,298.950195,0,0
7200,2024 10 07,05:25:09.989,-0.689519,-0.054248,0.629492,0.354062,-1.14066,0.577654,0.451674,-111.572266,-196.960449,307.495117,0,0
7201,2024 10 07,05:25:09.997,-0.689519,-0.054248,0.629492,0.354062,-1.14066,0.577654,0.451674,-111.572266,-196.960449,307.495117,0,0
7202,2024 10 07,05:25:10.005,-0.68891,-0.022878,0.638363,0.342596,-1.256386,0.549821,0.489273,-132.263184,-194.641113,316.40625,0,0
7203,2024 10 07,05:25:10.014,-0.687965,0.010185,0.645549,0.33146,-1.357463,0.505387,0.477554,-155.212402,-190.979004,324.279785,0,0
7204,2024 10 07,05:25:10.022,-0.686401,0.044868,0.65103,0.320937,-1.454146,0.475112,0.495621,-179.870605,-188.171387,328.186035,0,0
7205,2024 10 07,05:25:10.030,-0.683799,0.080941,0.654945,0.311312,-1.584521,0.505387,0.525407,-203.491211,-189.758301,328.00293,0,0
7206,2024 10 07,05:25:10.039,-0.679883,0.118161,0.657538,0.302393,-1.675832,0.612323,0.604511,-222.229004,-193.847656,327.880859,0,0
7207,2024 10 07,05:25:10.047,-0.674573,0.156411,0.658985,0.293642,-1.757866,0.643574,0.661641,-236.999512,-199.462891,332.03125,0,0
7208,2024 10 07,05:25:10.055,-0.674573,0.156411,0.658985,0.293642,-1.757866,0.643574,0.661641,-236.999512,-199.462891,332.03125,0,0
7209,2024 10 07,05:25:10.064,-0.667859,0.195603,0.659323,0.284598,-2.050844,0.482437,0.565447,-247.131348,-205.505371,340.576172,0,0
7210,2024 10 07,05:25:10.072,-0.660074,0.235367,0.658123,0.27528,-2.300363,0.181646,0.497085,-258.056641,-201.904297,346.069336,0,0
7211,2024 10 07,05:25:10.080,-0.650506,0.275068,0.655729,0.266833,-2.412671,-0.201178,0.397961,-274.719238,-205.810547,335.266113,0,0
7212,2024 10 07,05:25:10.089,-0.638207,0.314381,0.653015,0.259668,-2.670003,-0.676778,0.421888,-290.222168,-222.106934,317.077637,0,0
7213,2024 10 07,05:25:10.097,-0.62315,0.352455,0.650462,0.253688,-2.924894,-1.09183,0.761742,-296.569824,-235.412598,291.748047,0,0
7214,2024 10 07,05:25:10.105,-0.62315,0.352455,0.650462,0.253688,-2.924894,-1.09183,0.761742,-296.569824,-235.412598,291.748047,0,0
7215,2024 10 07,05:25:10.114,-0.606361,0.387716,0.648267,0.2485,-3.064058,-1.345256,1.288614,-281.677246,-239.624023,259.643555,0,0
7216,2024 10 07,05:25:10.122,-0.589551,0.417877,0.646947,0.24345,-2.82577,-1.49028,2.006897,-238.464355,-232.421875,214.84375,0,0
7217,2024 10 07,05:25:10.130,-0.573727,0.44122,0.647667,0.238095,-2.221747,-1.516648,2.666097,-176.147461,-226.196289,157.043457,0,0
7218,2024 10 07,05:25:10.139,-0.559085,0.457414,0.651628,0.231466,-1.87994,-1.724174,3.037202,-102.722168,-231.201172,100.769043,0,0
7219,2024 10 07,05:25:10.147,-0.546507,0.467511,0.658124,0.222795,-2.011292,-2.193426,3.183203,-32.409668,-221.435547,68.725586,0,0
7220,2024 10 07,05:25:10.155,-0.546507,0.467511,0.658124,0.222795,-2.011292,-2.193426,3.183203,-32.409668,-221.435547,68.725586,0,0
7221,2024 10 07,05:25:10.164,-0.538641,0.472725,0.663993,0.213332,-2.223212,-2.846278,2.96054,24.841309,-161.010742,59.448242,0,0
7222,2024 10 07,05:25:10.172,-0.536756,0.473553,0.667273,0.205881,-2.070376,-3.491318,2.425855,57.189941,-73.791504,41.07666,0,0
7223,2024 10 07,05:25:10.180,-0.537736,0.470372,0.669811,0.202345,-1.693899,-3.5421,2.078677,60.60791,-26.855469,-7.995605,0,0
7224,2024 10 07,05:25:10.189,-0.526087,0.464391,0.680823,0.20989,-5.862483,0.421888,13.361736,-109.191895,-152.709961,-248.474121,1,0
7225,2024 10 07,05:25:10.197,-0.555442,0.443566,0.659652,0.244115,2.040101,3.010346,-7.907467,-222.473145,625.183105,-174.743652,0,0
7226,2024 10 07,05:25:10.205,-0.555442,0.443566,0.659652,0.244115,2.040101,3.010346,-7.907468,-222.473145,625.183105,-174.743652,0,0
7227,2024 10 07,05:25:10.214,-0.555533,0.432348,0.667803,0.241861,-3.621692,0.060549,4.022096,164.611816,-46.142578,-122.86377,0,0
7228,2024 10 07,05:25:10.222,-0.566492,0.420675,0.65938,0.259495,-0.911161,1.084994,-0.184576,-10.803223,204.956055,-136.169434,0,0
7229,2024 10 07,05:25:10.230,-0.576352,0.405906,0.657057,0.267086,-1.794977,-0.182135,0.703635,42.602539,191.101074,-127.563477,0,0
7230,2024 10 07,05:25:10.239,-0.588705,0.391802,0.649639,0.279081,-0.904324,-0.455092,-0.428236,62.866211,216.674805,-101.501465,0,0
7231,2024 10 07,05:25:10.247,-0.599394,0.379523,0.644462,0.285232,-0.867702,0.156255,0.336436,77.880859,185.302734,-64.453125,0,0
7232,2024 10 07,05:25:10.255,-0.599394,0.379523,0.644462,0.285232,-0.867702,0.156255,0.336436,77.880859,185.302734,-64.453125,0,0
7233,2024 10 07,05:25:10.264,-0.60981,0.367369,0.640838,0.287226,-0.993194,-0.178716,0.070803,101.989746,129.150391,-52.79541,0,0
7234,2024 10 07,05:25:10.272,-0.617521,0.357968,0.637313,0.290447,-0.839381,-0.096683,0.357921,45.776367,130.187988,-48.706055,0,0
7235,2024 10 07,05:25:10.280,-0.624283,0.350913,0.633155,0.293677,-0.927763,-0.123539,-0.219245,47.058105,102.966309,-29.11377,0,0
7236,2024 10 07,05:25:10.289,-0.629481,0.345565,0.630248,0.295172,-0.954619,-0.102054,0.097659,34.057617,82.214355,-17.333984,0,0
7237,2024 10 07,05:25:10.297,-0.633897,0.341838,0.626789,0.297417,-0.881863,0.009766,0.008789,13.061523,73.120117,-13.122559,0,0
7238,2024 10 07,05:25:10.305,-0.633897,0.341838,0.626789,0.297417,-0.881863,0.009766,0.008789,13.061523,73.120117,-13.122559,0,0
7239,2024 10 07,05:25:10.314,-0.636924,0.339214,0.624513,0.298738,-0.907254,0.038575,0.193365,13.061523,46.386719,-7.629395,0,0
7240,2024 10 07,05:25:10.322,-0.639135,0.337124,0.622932,0.299682,-0.982452,0.100589,-0.004395,12.023926,34.118652,-9.094238,0,0
7241,2024 10 07,05:25:10.330,-0.640529,0.335238,0.622186,0.300371,-1.021027,0.059084,0.043947,10.681152,22.033691,-11.962891,0,0
7242,2024 10 07,05:25:10.339,-0.641488,0.33348,0.621753,0.301176,-1.050813,0.059572,0.008301,8.850098,17.944336,-14.099121,0,0
7243,2024 10 07,05:25:10.347,-0.642183,0.33175,0.621484,0.302159,-1.066927,0.052248,-0.045412,7.080078,16.723633,-16.601563,0,0
7244,2024 10 07,05:25:10.355,-0.642183,0.33175,0.621484,0.302159,-1.066927,0.052248,-0.045412,7.080078,16.723633,-16.601563,0,0
7245,2024 10 07,05:25:10.364,-0.64281,0.33002,0.621231,0.303241,-1.04593,0.016114,-0.01709,6.04248,17.089844,-16.906738,0,0
7246,2024 10 07,05:25:10.372,-0.643495,0.328448,0.620756,0.304463,-1.038606,0.012207,-0.027833,3.479004,18.859863,-15.50293,0,0
7247,2024 10 07,05:25:10.380,-0.644285,0.326994,0.620073,0.305745,-1.043001,0.021973,-0.029786,1.831055,21.606445,-13.916016,0,0
7248,2024 10 07,05:25:10.389,-0.645238,0.325569,0.619185,0.307055,-1.017609,0.033204,-0.009278,1.464844,24.047852,-12.878418,0,0
7249,2024 10 07,05:25:10.397,-0.646301,0.324131,0.61821,0.308302,-0.992218,0.034181,0.02002,2.563477,24.597168,-11.901855,0,0
7250,2024 10 07,05:25:10.405,-0.646301,0.324131,0.61821,0.308302,-0.992218,0.034181,0.02002,2.563477,24.597168,-11.901855,0,0
7251,2024 10 07,05:25:10.414,-0.647401,0.322694,0.617238,0.309447,-0.989288,0.026368,0.006348,3.051758,24.108887,-10.925293,0,0
7252,2024 10 07,05:25:10.422,-0.64835,0.321349,0.616395,0.310539,-0.998077,0.025391,0.01709,2.990723,21.30127,-11.169434,0,0
7253,2024 10 07,05:25:10.430,-0.649161,0.320047,0.615633,0.3117,-1.004913,0.037111,0.013184,1.281738,20.141602,-12.512207,0,0
7254,2024 10 07,05:25:10.439,-0.649826,0.318791,0.614953,0.312939,-0.993683,0.039064,0.060549,0.12207,18.310547,-13.48877,0,0
7255,2024 10 07,05:25:10.447,-0.65045,0.317498,0.614331,0.314178,-1.009796,0.015137,0.020508,1.220703,18.554688,-13.916016,0,0
7256,2024 10 07,05:25:10.455,-0.65045,0.317498,0.614331,0.314178,-1.009796,0.015137,0.020508,1.220703,18.554688,-13.916016,0,0
7257,2024 10 07,05:25:10.464,-0.651108,0.31612,0.613699,0.315436,-1.014679,0.009278,0.011231,2.380371,19.165039,-14.587402,0,0
7258,2024 10 07,05:25:10.472,-0.651837,0.314643,0.613041,0.316683,-1.014679,0.028809,0.042482,2.502441,20.080566,-14.892578,0,0
7259,2024 10 07,05:25:10.480,-0.652634,0.313068,0.612356,0.317927,-1.015656,0.014161,0.058596,2.990723,21.30127,-15.075684,0,0
7260,2024 10 07,05:25:10.489,-0.653551,0.31142,0.611507,0.319292,-1.023957,-0.015137,-0.000488,2.868652,24.597168,-15.50293,0,0
7261,2024 10 07,05:25:10.497,-0.654404,0.309831,0.610589,0.320844,-1.013214,0.011719,0.052736,0.0,24.169922,-16.601563,0,0
7262,2024 10 07,05:25:10.505,-0.655241,0.308289,0.609572,0.322551,-0.997589,0.02295,0.051271,-1.525879,25.817871,-17.089844,0,0
7263,2024 10 07,05:25:10.514,-0.655241,0.308289,0.609572,0.322551,-0.997589,0.02295,0.051271,-1.525879,25.817871,-17.089844,0,0
7264,2024 10 07,05:25:10.522,-0.656061,0.306753,0.608518,0.324334,-0.990753,0.015137,0.089358,-2.13623,24.841309,-17.822266,0,0
7265,2024 10 07,05:25:10.530,-0.656823,0.305157,0.607594,0.326025,-0.991241,0.067385,0.132328,0.061035,23.620605,-17.76123,0,0
7266,2024 10 07,05:25:10.539,-0.657648,0.303342,0.606817,0.3275,-1.00882,0.04883,0.131352,3.78418,22.338867,-18.798828,0,0
7267,2024 10 07,05:25:10.547,-0.658375,0.301292,0.606338,0.328815,-1.075716,0.010743,0.052736,7.507324,20.141602,-20.751953,0,0
7268,2024 10 07,05:25:10.555,-0.658906,0.299065,0.606073,0.330272,-1.121128,-0.008301,0.012696,7.263184,19.348145,-24.658203,0,0
7269,2024 10 07,05:25:10.564,-0.658906,0.299065,0.606073,0.330272,-1.121128,-0.008301,0.012696,7.263184,19.348145,-24.658203,0,0
7270,2024 10 07,05:25:10.572,-0.659171,0.296719,0.605885,0.332197,-1.182653,0.040529,0.13184,3.78418,19.287109,-31.25,0,0
7271,2024 10 07,05:25:10.580,-0.659381,0.293879,0.605646,0.33473,-1.161656,0.009766,0.068361,3.112793,23.071289,-39.672852,0,0
7272,2024 10 07,05:25:10.589,-0.659062,0.290827,0.605803,0.337727,-1.214881,-0.022462,0.068361,1.831055,17.333984,-47.790527,0,0
7273,2024 10 07,05:25:10.597,-0.658243,0.287479,0.606245,0.341378,-1.253945,0.050783,0.129887,-2.258301,16.113281,-57.983398,0,0
7274,2024 10 07,05:25:10.605,-0.657172,0.283711,0.606717,0.345726,-1.252968,0.06592,0.160649,-4.272461,18.493652,-67.565918,0,0
7275,2024 10 07,05:25:10.614,-0.657172,0.283711,0.606717,0.345726,-1.252968,0.06592,0.160649,-4.272461,18.493652,-67.565918,0,0
7276,2024 10 07,05:25:10.622,-0.655721,0.279435,0.607448,0.350647,-1.320841,0.092288,0.164068,-3.112793,16.113281,-78.613281,0,0
7277,2024 10 07,05:25:10.630,-0.653831,0.274399,0.608592,0.356127,-1.388226,0.085452,0.150395,-1.098633,16.357422,-91.918945,0,0
7278,2024 10 07,05:25:10.639,-0.65153,0.268461,0.610065,0.362294,-1.485397,0.081545,0.098636,1.037598,16.235352,-106.628418,0,0
7279,2024 10 07,05:25:10.647,-0.648695,0.261463,0.611912,0.369319,-1.610889,0.106937,0.04883,1.953125,18.310547,-124.938965,0,0
7280,2024 10 07,05:25:10.655,-0.645349,0.253185,0.61405,0.377311,-1.780816,0.164068,0.075198,4.882813,20.507813,-145.019531,0,0
7281,2024 10 07,05:25:10.664,-0.645349,0.253185,0.61405,0.377311,-1.780816,0.164068,0.075198,4.882813,20.507813,-145.019531,0,0
7282,2024 10 07,05:25:10.672,-0.640984,0.243457,0.616679,0.386749,-2.072329,0.225593,0.045412,3.601074,21.728516,-175.231934,0,0
7283,2024 10 07,05:25:10.680,-0.635711,0.231553,0.619417,0.398217,-2.372631,0.296396,-0.118656,4.150391,30.273438,-212.768555,0,0
7284,2024 10 07,05:25:10.689,-0.628987,0.216879,0.622436,0.412204,-2.884854,0.519059,-0.019044,3.479004,41.015625,-262.390137,0,0
7285,2024 10 07,05:25:10.697,-0.621516,0.198073,0.624565,0.429422,-3.046968,0.711936,-0.259285,1.586914,73.364258,-320.922852,0,0
7286,2024 10 07,05:25:10.705,-0.612374,0.174817,0.626321,0.44962,-3.471297,0.947295,-0.165532,11.230469,90.270996,-384.94873,0,0
7287,2024 10 07,05:25:10.714,-0.612374,0.174817,0.626321,0.44962,-3.471297,0.947295,-0.165532,11.230469,90.270996,-384.94873,0,0
7288,2024 10 07,05:25:10.722,-0.601652,0.145984,0.627185,0.472591,-3.883419,0.980499,-0.069338,25.268555,125.305176,-455.444336,0,0
7289,2024 10 07,05:25:10.730,-0.589089,0.111081,0.626541,0.498078,-3.649037,0.681173,-0.26368,35.339355,154.663086,-523.498535,0,0
7290,2024 10 07,05:25:10.739,-0.573508,0.072624,0.624803,0.52482,-3.48204,0.315928,0.070315,36.621094,159.362793,-564.63623,0,0
7291,2024 10 07,05:25:10.747,-0.555441,0.033987,0.620997,0.551989,-2.75985,0.304697,-0.109378,16.296387,148.254395,-571.838379,0,1
7292,2024 10 07,05:25:10.755,-0.536613,-0.001428,0.61509,0.577675,-2.356517,0.552751,-0.292489,-7.8125,141.052246,-534.301758,0,0
7293,2024 10 07,05:25:10.764,-0.536613,-0.001428,0.61509,0.577675,-2.356517,0.552751,-0.292489,-7.8125,141.052246,-534.301758,0,0
7294,2024 10 07,05:25:10.772,-0.517199,-0.033651,0.60804,0.601382,-1.310587,0.572283,-0.753441,-19.226074,113.28125,-505.065918,0,0
7295,2024 10 07,05:25:10.780,-0.494518,-0.060294,0.601276,0.624726,-0.333995,0.635762,-1.105502,-50.292969,40.344238,-482.055664,0,0
7296,2024 10 07,05:25:10.789,-0.4691,-0.079052,0.59452,0.64826,0.131352,0.676778,-1.040071,-104.919434,-31.738281,-441.52832,0,0
7297,2024 10 07,05:25:10.797,-0.447059,-0.089032,0.584643,0.671122,1.964416,1.253456,-3.021577,-190.429688,-46.447754,-326.721191,0,0
7298,2024 10 07,05:25:10.805,-0.428964,-0.080913,0.577503,0.689879,-0.852565,1.621632,1.458052,-234.741211,-195.129395,-136.84082,0,0
7299,2024 10 07,05:25:10.814,-0.428964,-0.080913,0.577503,0.689879,-0.852565,1.621632,1.458052,-234.741211,-195.129395,-136.84082,0,0
7300,2024 10 07,05:25:10.822,-0.427002,-0.066409,0.565612,0.702383,-0.329112,2.588458,-1.188024,-236.877441,-51.208496,37.231445,0,0
7301,2024 10 07,05:25:10.830,-0.431388,-0.04915,0.558658,0.706675,-0.258797,2.007385,0.269539,-146.606445,-79.040527,134.94873,0,0
7302,2024 10 07,05:25:10.839,-0.438321,-0.033434,0.554857,0.706322,0.184088,1.535691,-0.336436,-88.07373,-70.129395,150.57373,0,0
7303,2024 10 07,05:25:10.847,-0.441574,-0.017947,0.556174,0.703819,0.491226,1.469283,-0.336924,-39.123535,-122.253418,130.554199,0,0
7304,2024 10 07,05:25:10.855,-0.441359,-0.001681,0.562202,0.699377,0.145512,1.418012,-0.049318,7.080078,-173.76709,123.046875,0,0
7305,2024 10 07,05:25:10.864,-0.441359,-0.001681,0.562202,0.699377,0.145512,1.418012,-0.049318,7.080078,-173.76709,123.046875,0,0
7306,2024 10 07,05:25:10.872,-0.440322,0.015429,0.571264,0.692485,-0.069826,1.439985,0.011719,41.564941,-193.847656,138.549805,0,0
7307,2024 10 07,05:25:10.880,-0.440458,0.033676,0.582239,0.68254,-0.335459,1.313028,0.163579,68.908691,-202.026367,173.64502,0,0
7308,2024 10 07,05:25:10.889,-0.442849,0.0533,0.593608,0.669831,-0.493179,1.107456,0.228523,80.444336,-198.669434,213.867188,0,0
7309,2024 10 07,05:25:10.897,-0.447288,0.074699,0.604273,0.65514,-0.625996,0.881375,0.262215,76.35498,-196.838379,250.915527,0,0
7310,2024 10 07,05:25:10.905,-0.452872,0.098139,0.613221,0.639715,-0.655782,0.542985,0.200201,53.466797,-196.838379,275.756836,0,0
7311,2024 10 07,05:25:10.914,-0.452872,0.098139,0.613221,0.639715,-0.655782,0.542985,0.200201,53.466797,-196.838379,275.756836,0,0
7312,2024 10 07,05:25:10.922,-0.458042,0.124219,0.619708,0.625084,-0.733421,0.267098,0.163091,10.131836,-208.496094,288.330078,0,0
7313,2024 10 07,05:25:10.930,-0.46171,0.15348,0.623294,0.612187,-1.013703,0.209479,0.267586,-44.067383,-224.121094,294.555664,0,0
7314,2024 10 07,05:25:10.939,-0.464229,0.18552,0.623429,0.601174,-1.337443,0.310068,0.422376,-97.045898,-226.501465,302.490234,0,0
7315,2024 10 07,05:25:10.947,-0.467004,0.21912,0.619558,0.591643,-1.57036,0.419935,0.545427,-139.587402,-205.505371,316.162109,0,0
7316,2024 10 07,05:25:10.955,-0.471086,0.25298,0.611432,0.583292,-1.723685,0.43556,0.545915,-172.363281,-170.410156,330.078125,0,0
7317,2024 10 07,05:25:10.964,-0.476154,0.286342,0.599559,0.576034,-1.724174,0.383312,0.454115,-198.669434,-138.305664,335.81543,0,0
7318,2024 10 07,05:25:10.972,-0.476154,0.286342,0.599559,0.576034,-1.724174,0.383312,0.454115,-198.669434,-138.305664,335.81543,0,0
7319,2024 10 07,05:25:10.980,-0.480896,0.319229,0.585005,0.569737,-1.613819,0.345225,0.307138,-221.191406,-125.0,332.763672,0,0
7320,2024 10 07,05:25:10.989,-0.484012,0.352177,0.569,0.563864,-1.508835,0.377453,0.208014,-238.830566,-130.371094,325.683594,0,0
7321,2024 10 07,05:25:10.997,-0.484832,0.38564,0.55256,0.557581,-1.603076,0.475112,0.222175,-249.145508,-151.062012,318.603516,0,0
7322,2024 10 07,05:25:11.005,-0.483629,0.419365,0.5362,0.550205,-1.788629,0.508805,0.261727,-250.0,-169.433594,313.171387,0,0
7323,2024 10 07,05:25:11.014,-0.480829,0.452626,0.52,0.541786,-1.968322,0.318857,0.1377,-247.131348,-181.45752,304.260254,0,0
7324,2024 10 07,05:25:11.022,-0.480829,0.452626,0.52,0.541786,-1.968322,0.318857,0.1377,-247.131348,-181.45752,304.260254,0,0
7325,2024 10 07,05:25:11.030,-0.475847,0.485113,0.504639,0.532518,-2.291085,-0.025391,0.039552,-244.384766,-199.707031,285.522461,0,0
7326,2024 10 07,05:25:11.039,-0.468183,0.516426,0.490519,0.522973,-2.528398,-0.430189,0.031251,-244.32373,-215.148926,257.141113,0,0
7327,2024 10 07,05:25:11.047,-0.457584,0.545993,0.478242,0.513608,-2.524003,-0.904324,0.10596,-241.455078,-231.079102,217.102051,0,0
7328,2024 10 07,05:25:11.055,-0.44315,0.573069,0.469667,0.504602,-2.544023,-1.6021,0.202155,-229.919434,-259.887695,151.794434,0,0
7329,2024 10 07,05:25:11.064,-0.423538,0.596586,0.4679,0.495753,-2.629475,-2.199774,0.589862,-202.392578,-305.480957,52.856445,0,0
7330,2024 10 07,05:25:11.072,-0.423538,0.596586,0.4679,0.495753,-2.629475,-2.199774,0.589862,-202.392578,-305.480957,52.856445,0,0
7331,2024 10 07,05:25:11.080,-0.398795,0.615072,0.474867,0.486981,-2.361888,-2.439039,1.286172,-159.057617,-346.801758,-62.927246,0,0
7332,2024 10 07,05:25:11.089,-0.371239,0.62793,0.489721,0.477555,-1.859432,-2.428297,1.906796,-101.44043,-371.765137,-151.916504,0,0
7333,2024 10 07,05:25:11.097,-0.344261,0.635977,0.509765,0.466001,-1.486373,-2.560625,2.429762,-33.447266,-376.647949,-192.138672,0,0
7334,2024 10 07,05:25:11.105,-0.320874,0.640562,0.53097,0.452538,-1.387738,-2.647542,2.922452,21.850586,-348.144531,-181.213379,0,0
7335,2024 10 07,05:25:11.114,-0.30545,0.641432,0.549247,0.439991,-1.396527,-2.815027,2.791589,75.256348,-244.689941,-139.770508,0,0
7336,2024 10 07,05:25:11.122,-0.30545,0.641432,0.549247,0.439991,-1.396527,-2.815027,2.791589,75.256348,-244.689941,-139.770508,0,0
7337,2024 10 07,05:25:11.130,-0.298727,0.637396,0.564117,0.43158,-1.398968,-3.511338,2.322336,104.248047,-123.718262,-125.183105,0,0
7338,2024 10 07,05:25:11.139,-0.29652,0.630456,0.578659,0.423974,-8.535905,-5.684256,0.693381,181.884766,-118.896484,-101.074219,0,0
7339,2024 10 07,05:25:11.147,-0.327251,0.618089,0.56696,0.435233,-3.213965,-1.640675,5.57683,110.229492,746.154785,130.432129,0,0
7340,2024 10 07,05:25:11.155,-0.392946,0.574661,0.532632,0.481311,1.219275,-0.887722,-13.640553,268.554688,896.118164,179.992676,0,0
7341,2024 10 07,05:25:11.164,-0.397488,0.584428,0.525554,0.473539,-0.456069,2.829676,12.140507,-230.041504,-177.91748,136.59668,0,0
7342,2024 10 07,05:25:11.172,-0.397488,0.584428,0.525554,0.473539,-0.456069,2.829676,12.140507,-230.041504,-177.91748,136.59668,0,0
7343,2024 10 07,05:25:11.180,-0.421116,0.574326,0.512246,0.480014,-0.017579,-0.222663,-0.456069,51.208496,383.972168,92.651367,0,0
7344,2024 10 07,05:25:11.189,-0.435456,0.562906,0.50303,0.490384,-1.16068,-0.970733,1.159703,33.569336,242.858887,19.65332,0,0
7345,2024 10 07,05:25:11.197,-0.446364,0.554238,0.487503,0.505885,-0.107913,-0.247078,1.169469,-68.237305,277.404785,49.133301,0,0
7346,2024 10 07,05:25:11.205,-0.453012,0.550727,0.471063,0.519212,-0.809595,0.891629,0.441908,-126.953125,205.688477,45.959473,0,0
7347,2024 10 07,05:25:11.214,-0.457596,0.547122,0.46301,0.526199,-1.156285,0.052248,0.411145,-12.817383,109.313965,13.793945,0,0
7348,2024 10 07,05:25:11.222,-0.457596,0.547122,0.46301,0.526199,-1.156285,0.052248,0.411145,-12.817383,109.313965,13.793945,0,0
7349,2024 10 07,05:25:11.230,-0.460885,0.543408,0.458031,0.531508,-0.888211,0.236824,0.144536,-15.869141,89.294434,0.0,0,0
7350,2024 10 07,05:25:11.239,-0.463439,0.540242,0.45565,0.534552,-0.938505,0.057619,0.070803,1.89209,58.59375,-4.211426,0,0
7351,2024 10 07,05:25:11.247,-0.465557,0.537644,0.453959,0.536765,-1.062044,-0.044923,-0.067873,5.79834,46.203613,-1.037598,0,0
7352,2024 10 07,05:25:11.255,-0.46745,0.535303,0.452225,0.538919,-1.040559,0.04883,-0.021485,2.258301,47.912598,-2.380371,0,0
7353,2024 10 07,05:25:11.264,-0.4691,0.532898,0.450962,0.540923,-0.929716,0.042482,0.107425,5.249023,40.100098,-6.164551,1,0
7354,2024 10 07,05:25:11.272,-0.4691,0.532898,0.450962,0.540923,-0.929716,0.042482,0.107425,5.249023,40.100098,-6.164551,0,0
7355,2024 10 07,05:25:11.280,-0.470526,0.530724,0.450197,0.542457,-0.943388,-0.011231,0.047365,8.544922,32.226563,-5.859375,0,0
7356,2024 10 07,05:25:11.289,-0.471901,0.528876,0.449549,0.543605,-0.96292,-0.023927,-0.001953,8.422852,28.137207,-2.258301,0,0
7357,2024 10 07,05:25:11.297,-0.473251,0.52739,0.448819,0.544477,-0.975616,-0.021485,0.016602,7.446289,24.780273,1.525879,0,0
7358,2024 10 07,05:25:11.305,-0.474705,0.526096,0.448015,0.545124,-1.012726,-0.006348,-0.02002,7.324219,24.108887,4.699707,0,0
7359,2024 10 07,05:25:11.314,-0.476187,0.524935,0.447115,0.54569,-1.010285,0.014161,0.029298,6.347656,23.4375,5.981445,0,0
7360,2024 10 07,05:25:11.322,-0.476187,0.524935,0.447115,0.54569,-1.010285,0.014161,0.029298,6.347656,23.4375,5.981445,0,0
7361,2024 10 07,05:25:11.330,-0.477777,0.523775,0.446145,0.546208,-1.002472,0.001953,0.051759,6.896973,23.742676,7.263184,0,0
7362,2024 10 07,05:25:11.339,-0.479406,0.522654,0.445152,0.546665,-0.989776,0.001465,0.04883,7.507324,23.376465,8.422852,0,0
7363,2024 10 07,05:25:11.347,-0.481022,0.521595,0.444136,0.547083,-1.003449,0.016114,0.044435,7.324219,23.010254,8.361816,0,0
7364,2024 10 07,05:25:11.355,-0.482614,0.520537,0.443103,0.547525,-1.038118,0.027345,0.027833,6.469727,23.071289,8.056641,0,0
7365,2024 10 07,05:25:11.364,-0.484185,0.519388,0.442132,0.548015,-1.041047,0.022462,0.046876,7.263184,24.108887,6.713867,0,0
7366,2024 10 07,05:25:11.372,-0.484185,0.519388,0.442132,0.548015,-1.041047,0.022462,0.046876,7.263184,24.108887,6.713867,0,0
7367,2024 10 07,05:25:11.380,-0.485746,0.518101,0.441213,0.548591,-1.020539,0.018067,0.043947,8.056641,24.719238,5.310059,0,0
7368,2024 10 07,05:25:11.389,-0.487259,0.516744,0.440379,0.5492,-1.02591,0.020997,0.032228,8.239746,24.841309,3.967285,0,0
7369,2024 10 07,05:25:11.397,-0.48868,0.515343,0.439563,0.549907,-1.035676,0.037599,0.027833,6.896973,25.268555,2.380371,0,0
7370,2024 10 07,05:25:11.405,-0.490044,0.513803,0.438798,0.550744,-1.024934,0.022462,-0.019532,8.422852,26.428223,-0.488281,0,0
7371,2024 10 07,05:25:11.414,-0.491274,0.512219,0.438096,0.551683,-1.00296,-0.026856,0.051759,8.544922,26.306152,-1.464844,0,0
7372,2024 10 07,05:25:11.422,-0.492433,0.510622,0.437356,0.552716,-1.00296,-0.026856,0.051759,8.544922,26.306152,-1.464844,0,0
7373,2024 10 07,05:25:11.430,-0.492433,0.510622,0.437356,0.552716,-0.979522,0.034669,0.097171,5.615234,25.939941,-1.953125,0,0
7374,2024 10 07,05:25:11.439,-0.49361,0.509036,0.436766,0.553595,-0.996612,0.022462,0.077639,7.507324,24.353027,-2.258301,0,0
7375,2024 10 07,05:25:11.447,-0.494804,0.507404,0.436251,0.554432,-0.959014,-0.016114,0.104984,8.911133,23.376465,-2.01416,0,0
7376,2024 10 07,05:25:11.455,-0.496021,0.505876,0.435659,0.555206,-0.958525,-0.019532,0.090823,8.422852,23.803711,-0.427246,0,0
7377,2024 10 07,05:25:11.464,-0.497179,0.50447,0.43506,0.555918,-0.956572,-0.018067,0.095706,7.629395,21.911621,0.427246,0,0
7378,2024 10 07,05:25:11.472,-0.498272,0.503215,0.434434,0.556567,-0.993194,0.035157,0.094241,5.249023,20.751953,0.915527,0,0
7379,2024 10 07,05:25:11.480,-0.498272,0.503215,0.434434,0.556567,-0.993194,0.035157,0.094241,5.249023,20.751953,0.915527,0,0
7380,2024 10 07,05:25:11.489,-0.499301,0.502057,0.433771,0.557207,-1.022004,0.065432,0.105472,3.173828,19.470215,0.793457,0,0
7381,2024 10 07,05:25:11.497,-0.500325,0.500855,0.433171,0.557837,-1.084018,0.021973,0.073244,5.79834,20.202637,-0.427246,0,0
7382,2024 10 07,05:25:11.505,-0.50128,0.499478,0.432626,0.558637,-1.05179,0.016602,0.039552,5.737305,22.338867,-2.746582,0,0
7383,2024 10 07,05:25:11.514,-0.502043,0.498076,0.432038,0.559657,-1.082064,0.0459,0.10889,2.197266,22.460938,-4.882813,0,0
7384,2024 10 07,05:25:11.522,-0.502787,0.496506,0.431431,0.560851,-1.090365,0.006836,0.095706,2.258301,24.902344,-7.629395,0,0
7385,2024 10 07,05:25:11.530,-0.502787,0.496506,0.431431,0.560851,-1.090365,0.006836,0.095706,2.258301,24.902344,-7.629395,0,0
7386,2024 10 07,05:25:11.539,-0.503316,0.494778,0.43097,0.562257,-1.135289,0.044923,0.064943,2.380371,25.085449,-11.779785,0,0
7387,2024 10 07,05:25:11.547,-0.503754,0.492709,0.430658,0.563918,-1.14066,0.039552,0.030763,4.943848,28.259277,-17.150879,0,0
7388,2024 10 07,05:25:11.555,-0.503935,0.490376,0.430424,0.565964,-1.165075,-0.049318,-0.082522,4.02832,30.517578,-22.155762,0,0
7389,2024 10 07,05:25:11.564,-0.503527,0.488089,0.430138,0.568516,-1.077181,-0.029786,0.046876,-5.432129,29.785156,-27.770996,0,0
7390,2024 10 07,05:25:11.572,-0.502832,0.485697,0.42979,0.571435,-1.052278,-0.092776,-0.004883,-8.056641,30.700684,-32.531738,0,0
7391,2024 10 07,05:25:11.580,-0.502832,0.485697,0.42979,0.571435,-1.052278,-0.092776,-0.004883,-8.056641,30.700684,-32.531738,0,0
7392,2024 10 07,05:25:11.589,-0.50102,0.483798,0.429518,0.574833,-1.109409,0.064943,0.251473,-20.812988,23.925781,-41.442871,0,0
7393,2024 10 07,05:25:11.597,-0.498372,0.481762,0.429002,0.579214,-0.994659,0.093265,0.277352,-30.822754,26.550293,-53.283691,0,0
7394,2024 10 07,05:25:11.605,-0.494339,0.479911,0.429567,0.58377,-1.39555,0.260262,0.427747,-29.47998,8.544922,-70.861816,0,0
7395,2024 10 07,05:25:11.614,-0.488749,0.477479,0.431491,0.589028,-1.616749,0.272958,0.279794,-29.846191,6.835938,-98.937988,0,0
7396,2024 10 07,05:25:11.622,-0.480947,0.474358,0.435726,0.594826,-2.188055,0.451674,0.249031,-23.071289,-17.822266,-135.803223,0,0
7397,2024 10 07,05:25:11.630,-0.480947,0.474358,0.435726,0.594826,-2.188055,0.451674,0.249031,-23.071289,-17.822266,-135.803223,0,0
7398,2024 10 07,05:25:11.639,-0.470925,0.469571,0.442779,0.601397,-2.621174,0.454115,0.230476,-9.460449,-15.563965,-182.434082,0,0
7399,2024 10 07,05:25:11.647,-0.458858,0.461801,0.451424,0.610251,-2.440504,0.347667,-0.057131,-6.347656,-4.150391,-232.666016,0,0
7400,2024 10 07,05:25:11.655,-0.444696,0.451732,0.461278,0.620811,-2.003967,0.073244,-0.284677,-8.178711,6.958008,-270.690918,0,0
7401,2024 10 07,05:25:11.664,-0.428423,0.440395,0.471921,0.632295,-1.697806,-0.101077,-0.213385,-14.404297,0.976563,-297.363281,0,0
7402,2024 10 07,05:25:11.672,-0.410108,0.428554,0.48241,0.644541,-1.368206,-0.321787,-0.659688,-32.348633,-1.586914,-315.246582,0,0
7403,2024 10 07,05:25:11.680,-0.410108,0.428554,0.48241,0.644541,-1.368206,-0.321787,-0.659688,-32.348633,-1.586914,-315.246582,0,0
7404,2024 10 07,05:25:11.689,-0.388889,0.418256,0.492897,0.656415,-1.564013,-0.301279,-0.614765,-46.630859,-37.841797,-321.350098,0,1
7405,2024 10 07,05:25:11.697,-0.366997,0.409991,0.501105,0.667918,-1.376507,-0.171392,-0.864772,-83.496094,-34.729004,-294.067383,0,0
7406,2024 10 07,05:25:11.705,-0.345562,0.404537,0.505152,0.679528,-0.783715,-0.287606,-1.346721,-122.680664,-43.640137,-255.859375,0,0
7407,2024 10 07,05:25:11.714,-0.323118,0.404598,0.504651,0.690813,-0.715842,0.357921,-1.18363,-193.908691,-74.951172,-200.622559,0,0
7408,2024 10 07,05:25:11.722,-0.303476,0.409093,0.496988,0.70253,-0.789087,0.575701,-1.144078,-257.873535,-50.231934,-121.21582,0,0
7409,2024 10 07,05:25:11.730,-0.303476,0.409093,0.496988,0.70253,-0.789087,0.575701,-1.144078,-257.873535,-50.231934,-121.21582,0,0
7410,2024 10 07,05:25:11.739,-0.287207,0.41542,0.481117,0.716564,-0.732444,0.772485,-0.924833,-326.23291,-7.080078,-61.706543,0,0
7411,2024 10 07,05:25:11.747,-0.273328,0.421882,0.459142,0.732459,-0.408704,0.982452,-0.737815,-360.534668,31.982422,-22.094727,0,0
7412,2024 10 07,05:25:11.755,-0.260529,0.428834,0.435257,0.747514,0.022462,1.038118,-0.80813,-363.28125,16.662598,-6.591797,0,0
7413,2024 10 07,05:25:11.764,-0.245919,0.43803,0.413044,0.759636,0.122074,1.129429,-0.516129,-344.726563,-34.667969,-13.671875,0,0
7414,2024 10 07,05:25:11.772,-0.229749,0.449367,0.393864,0.768216,0.057619,1.315958,-0.281747,-310.546875,-91.186523,-22.399902,0,0
7415,2024 10 07,05:25:11.780,-0.229749,0.449367,0.393864,0.768216,0.057619,1.315958,-0.281747,-310.546875,-91.186523,-22.399902,0,0
7416,2024 10 07,05:25:11.789,-0.213226,0.462906,0.378377,0.772712,-0.15186,1.39848,0.073733,-263.427734,-139.526367,-22.583008,0,0
7417,2024 10 07,05:25:11.797,-0.197473,0.477837,0.36638,0.77359,-0.345714,1.242225,0.192877,-217.102051,-175.720215,-19.775391,0,0
7418,2024 10 07,05:25:11.805,-0.182238,0.493992,0.357025,0.771553,-0.472671,1.062044,0.299814,-185.546875,-204.528809,-17.456055,0,0
7419,2024 10 07,05:25:11.814,-0.167154,0.511499,0.348968,0.767235,-0.629414,0.978545,0.419935,-170.959473,-231.994629,-11.169434,0,0
7420,2024 10 07,05:25:11.822,-0.152542,0.530334,0.340651,0.761205,-0.930204,0.969756,0.695822,-168.395996,-247.619629,6.04248,0,0
7421,2024 10 07,05:25:11.830,-0.152542,0.530334,0.340651,0.761205,-0.930204,0.969756,0.695822,-168.395996,-247.619629,6.04248,0,0
7422,2024 10 07,05:25:11.839,-0.139393,0.549273,0.330659,0.754674,-1.179235,0.865261,0.941435,-174.194336,-236.999512,31.677246,0,0
7423,2024 10 07,05:25:11.847,-0.127775,0.5668,0.317953,0.749211,-1.217322,0.620624,0.996124,-193.481445,-205.810547,53.222656,0,0
7424,2024 10 07,05:25:11.855,-0.11611,0.583235,0.302302,0.744963,-1.356975,0.511246,1.063021,-225.708008,-188.293457,65.063477,0,0
7425,2024 10 07,05:25:11.864,-0.103907,0.597983,0.28305,0.742632,-1.374065,0.563494,1.108921,-265.563965,-152.526855,77.026367,0,0
7426,2024 10 07,05:25:11.872,-0.09138,0.610631,0.260057,0.742395,-1.233924,0.729514,1.155797,-302.490234,-120.788574,90.332031,0,0
7427,2024 10 07,05:25:11.880,-0.09138,0.610631,0.260057,0.742395,-1.233924,0.729514,1.155797,-302.490234,-120.788574,90.332031,0,0
7428,2024 10 07,05:25:11.889,-0.078443,0.621758,0.234018,0.743303,-1.144078,0.880398,1.195837,-330.505371,-99.79248,101.318359,0,0
7429,2024 10 07,05:25:11.897,-0.065346,0.631462,0.205846,0.744723,-1.118686,0.980499,1.192419,-347.351074,-84.350586,109.680176,0,0
7430,2024 10 07,05:25:11.905,-0.052331,0.639645,0.176314,0.746344,-1.055696,0.972686,1.100131,-356.201172,-68.115234,115.661621,0,0
7431,2024 10 07,05:25:11.914,-0.039346,0.646506,0.145965,0.747781,-1.003449,0.924345,0.988311,-361.206055,-59.997559,119.018555,0,0
7432,2024 10 07,05:25:11.922,-0.026304,0.652484,0.115212,0.748531,-1.02591,0.938505,0.96878,-362.731934,-57.617188,120.117188,0,0
7433,2024 10 07,05:25:11.930,-0.013458,0.657548,0.084535,0.748534,-1.048372,0.989288,0.974639,-357.727051,-55.175781,119.995117,0,0
7434,2024 10 07,05:25:11.939,-0.013458,0.657548,0.084535,0.748534,-1.048372,0.989288,0.974639,-357.727051,-55.175781,119.995117,0,0
7435,2024 10 07,05:25:11.947,-0.001346,0.661739,0.054465,0.747752,-1.042512,0.998077,1.001007,-344.238281,-52.91748,121.520996,0,0
7436,2024 10 07,05:25:11.955,0.009527,0.665117,0.025327,0.746249,-1.033235,0.96878,0.953154,-325.378418,-51.513672,125.183105,0,0
7437,2024 10 07,05:25:11.964,0.018915,0.668181,-0.002719,0.743753,-1.113315,0.896512,0.974639,-304.260254,-56.884766,129.760742,0,0
7438,2024 10 07,05:25:11.972,0.026947,0.670768,-0.029594,0.740586,-1.194372,0.761742,0.953642,-284.973145,-56.091309,132.324219,0,0
7439,2024 10 07,05:25:11.980,0.034061,0.672788,-0.05534,0.736976,-1.24955,0.595233,0.938994,-270.019531,-54.443359,131.530762,0,0
7440,2024 10 07,05:25:11.989,0.034061,0.672788,-0.05534,0.736976,-1.24955,0.595233,0.938994,-270.019531,-54.443359,131.530762,0,0
7441,2024 10 07,05:25:11.997,0.040742,0.674135,-0.080105,0.733121,-1.273965,0.367687,0.875515,-260.375977,-49.743652,128.90625,0,0
7442,2024 10 07,05:25:12.005,0.047229,0.6746,-0.104237,0.729259,-1.432661,0.126957,0.711447,-255.371094,-39.916992,128.295898,0,0
7443,2024 10 07,05:25:12.014,0.054195,0.673859,-0.127722,0.725716,-1.283242,-0.027345,0.575213,-255.554199,-26.062012,119.567871,0,0
7444,2024 10 07,05:25:12.022,0.062295,0.673116,-0.150347,0.721408,-1.265664,-0.176763,0.563005,-258.911133,-35.27832,102.355957,0,0
7445,2024 10 07,05:25:12.030,0.071634,0.672678,-0.172278,0.716026,-1.363323,-0.268075,0.667013,-265.319824,-40.283203,87.585449,0,0
7446,2024 10 07,05:25:12.039,0.071634,0.672678,-0.172278,0.716026,-1.363323,-0.268075,0.667013,-265.319824,-40.283203,87.585449,0,0
7447,2024 10 07,05:25:12.047,0.08214,0.671734,-0.193637,0.710303,-1.409711,-0.329112,0.824732,-269.592285,-35.15625,75.134277,0,0
7448,2024 10 07,05:25:12.055,0.093629,0.670011,-0.213889,0.704677,-1.395062,-0.38966,0.948271,-267.150879,-24.475098,60.058594,0,0
7449,2024 10 07,05:25:12.064,0.105822,0.667589,-0.232473,0.699344,-1.345744,-0.479995,1.04593,-257.568359,-14.099121,43.945313,0,0
7450,2024 10 07,05:25:12.072,0.118258,0.664685,-0.249047,0.694395,-1.301798,-0.580096,1.09476,-241.271973,-5.126953,29.296875,0,0
7451,2024 10 07,05:25:12.080,0.130374,0.66151,-0.263423,0.689939,-1.244179,-0.660665,1.142125,-218.994141,2.258301,18.188477,0,0
7452,2024 10 07,05:25:12.089,0.130374,0.66151,-0.263423,0.689939,-1.244179,-0.660665,1.142125,-218.994141,2.258301,18.188477,0,0
7453,2024 10 07,05:25:12.097,0.141569,0.658142,-0.275657,0.686164,-1.168493,-0.698264,1.174841,-192.138672,8.850098,12.512207,0,0
7454,2024 10 07,05:25:12.105,0.15135,0.654699,-0.285675,0.683266,-1.105991,-0.760765,1.215857,-160.217285,15.014648,8.972168,0,0
7455,2024 10 07,05:25:12.114,0.159564,0.651246,-0.293287,0.681469,-1.076693,-0.85696,1.193884,-125.488281,22.460938,5.310059,0,0
7456,2024 10 07,05:25:12.122,0.166362,0.647862,-0.298297,0.680894,-1.025422,-0.918485,1.107944,-90.087891,31.799316,-1.586914,0,0
7457,2024 10 07,05:25:12.130,0.171875,0.644748,-0.30048,0.681521,-0.913114,-0.912625,0.941923,-53.588867,39.489746,-11.59668,0,0
7458,2024 10 07,05:25:12.139,0.171875,0.644748,-0.30048,0.681521,-0.913114,-0.912625,0.941923,-53.588867,39.489746,-11.59668,0,0
7459,2024 10 07,05:25:12.147,0.175926,0.642183,-0.299983,0.683126,-0.697775,-0.813501,0.72219,-17.51709,42.114258,-19.042969,0,0
7460,2024 10 07,05:25:12.155,0.179388,0.642369,-0.297483,0.683144,-4.319468,-1.191931,2.03766,-11.291504,-13.73291,-63.232422,0,0
7461,2024 10 07,05:25:12.164,0.190622,0.638038,-0.290382,0.687204,-1.221229,0.628925,-1.35551,-57.067871,205.993652,-102.355957,1,0
7462,2024 10 07,05:25:12.172,0.19596,0.636851,-0.285134,0.688999,-2.197333,-0.175298,1.073763,26.550293,6.04248,-56.518555,0,0
7463,2024 10 07,05:25:12.180,0.199388,0.629211,-0.279883,0.69714,-0.228523,0.205573,-0.690451,20.202637,179.321289,-13.427734,0,0
7464,2024 10 07,05:25:12.189,0.199388,0.629211,-0.279883,0.69714,-0.228523,0.205573,-0.690451,20.202637,179.321289,-13.427734,0,0
7465,2024 10 07,05:25:12.197,0.200163,0.626426,-0.275033,0.701343,-1.297891,-0.096683,0.814478,63.598633,35.400391,-25.085449,0,0
7466,2024 10 07,05:25:12.205,0.200901,0.622994,-0.269506,0.706317,-0.813013,0.047365,-0.319834,42.236328,80.993652,-20.080566,0,0
7467,2024 10 07,05:25:12.214,0.199971,0.622197,-0.265568,0.708771,-1.035676,-0.010743,0.233894,40.710449,19.470215,-9.82666,0,0
7468,2024 10 07,05:25:12.222,0.199207,0.62099,-0.262292,0.71126,-1.020051,-0.011231,-0.181646,35.461426,38.146973,-7.202148,0,0
7469,2024 10 07,05:25:12.230,0.199409,0.619995,-0.259944,0.712932,-0.909696,0.023438,0.142582,16.113281,21.911621,-11.59668,0,0
7470,2024 10 07,05:25:12.239,0.199409,0.619995,-0.259944,0.712932,-0.909696,0.023438,0.142582,16.113281,21.911621,-11.59668,0,0
7471,2024 10 07,05:25:12.247,0.199722,0.619193,-0.258218,0.714167,-0.916532,-0.02588,0.102054,13.427734,19.65332,-7.446289,0,0
7472,2024 10 07,05:25:12.255,0.199687,0.618713,-0.257272,0.714934,-0.983428,0.02588,0.061525,6.774902,8.483887,-1.281738,0,0
7473,2024 10 07,05:25:12.264,0.199601,0.618485,-0.256924,0.715281,-1.010285,0.052248,0.072756,3.78418,4.699707,0.183105,0,0
7474,2024 10 07,05:25:12.272,0.199572,0.618389,-0.256725,0.715443,-1.001495,0.06299,0.064943,1.098633,1.647949,-0.12207,0,0
7475,2024 10 07,05:25:12.280,0.199599,0.618333,-0.256685,0.715498,-1.033235,0.027833,0.030763,-0.366211,1.586914,0.244141,0,0
7476,2024 10 07,05:25:12.289,0.199599,0.618333,-0.256685,0.715498,-1.033235,0.027833,0.030763,-0.366211,1.586914,0.244141,0,0
7477,2024 10 07,05:25:12.297,0.199839,0.618226,-0.256862,0.715459,-1.018586,0.060549,0.047853,-4.394531,0.732422,-0.12207,0,0
7478,2024 10 07,05:25:12.305,0.200192,0.618179,-0.257148,0.715299,-1.006378,0.076174,0.086917,-5.67627,-0.183105,-1.159668,0,0
7479,2024 10 07,05:25:12.314,0.200618,0.618259,-0.257423,0.715012,-0.992706,0.076662,0.077151,-6.225586,-3.173828,-2.563477,0,0
7480,2024 10 07,05:25:12.322,0.201103,0.618609,-0.257715,0.714467,-1.003937,0.079104,0.093753,-6.591797,-6.286621,-4.394531,0,0
7481,2024 10 07,05:25:12.330,0.201706,0.619048,-0.257951,0.713831,-0.992706,0.066897,0.060549,-7.446289,-7.324219,-6.286621,0,0
7482,2024 10 07,05:25:12.339,0.201706,0.619048,-0.257951,0.713831,-0.992706,0.066897,0.060549,-7.446289,-7.324219,-6.286621,0,0
7483,2024 10 07,05:25:12.347,0.202411,0.619576,-0.258257,0.713063,-1.00882,0.052736,0.058596,-9.094238,-8.178711,-6.774902,0,0
7484,2024 10 07,05:25:12.355,0.203233,0.620043,-0.258653,0.712279,-1.024934,0.056642,0.045412,-10.742188,-7.507324,-6.713867,0,0
7485,2024 10 07,05:25:12.364,0.20412,0.620412,-0.259104,0.71154,-1.027375,0.061037,0.034669,-11.657715,-5.981445,-6.469727,0,0
7486,2024 10 07,05:25:12.372,0.205087,0.620661,-0.259566,0.710876,-1.039582,0.067873,0.031251,-11.962891,-4.211426,-6.713867,0,0
7487,2024 10 07,05:25:12.380,0.206121,0.620734,-0.259931,0.71038,-1.033723,0.067873,0.028321,-11.474609,-0.671387,-7.019043,0,0
7488,2024 10 07,05:25:12.389,0.207178,0.620697,-0.260186,0.710011,-1.019562,0.066408,0.062014,-10.498047,0.793457,-7.385254,0,0
7489,2024 10 07,05:25:12.397,0.207178,0.620697,-0.260186,0.710011,-1.019562,0.066408,0.062014,-10.498047,0.793457,-7.385254,0,0
7490,2024 10 07,05:25:12.405,0.208242,0.620558,-0.260334,0.709767,-1.012238,0.064943,0.046876,-9.58252,2.746582,-7.629395,0,0
7491,2024 10 07,05:25:12.414,0.209319,0.62037,-0.260394,0.709593,-1.017609,0.06885,0.054201,-8.972168,3.90625,-7.995605,0,0
7492,2024 10 07,05:25:12.422,0.210389,0.620138,-0.260359,0.709492,-1.00589,0.053713,0.052248,-8.056641,4.821777,-8.361816,0,0
7493,2024 10 07,05:25:12.430,0.211505,0.619855,-0.260287,0.709433,-1.006378,0.046388,0.041505,-8.056641,5.737305,-8.666992,0,0
7494,2024 10 07,05:25:12.439,0.212706,0.619514,-0.260162,0.709418,-1.020051,0.064455,0.051759,-8.239746,7.385254,-9.643555,0,0
7495,2024 10 07,05:25:12.447,0.212706,0.619514,-0.260162,0.709418,-1.020051,0.064455,0.051759,-8.239746,7.385254,-9.643555,0,0
7496,2024 10 07,05:25:12.455,0.21392,0.619076,-0.259892,0.709534,-1.010285,0.053713,0.053713,-6.835938,9.277344,-10.131836,0,0
7497,2024 10 07,05:25:12.464,0.215149,0.61857,-0.259528,0.709737,-0.995636,0.043458,0.06299,-6.408691,10.620117,-10.314941,0,0
7498,2024 10 07,05:25:12.472,0.216385,0.618012,-0.25916,0.709982,-0.996124,0.041017,0.06006,-6.347656,11.047363,-9.94873,0,0
7499,2024 10 07,05:25:12.480,0.217636,0.617429,-0.25882,0.710232,-1.010773,0.042482,0.052248,-6.835938,11.413574,-10.009766,0,0
7500,2024 10 07,05:25:12.489,0.218911,0.616821,-0.258412,0.710517,-1.01175,0.051759,0.053224,-6.04248,12.207031,-10.559082,0,0
7501,2024 10 07,05:25:12.497,0.218911,0.616821,-0.258412,0.710517,-1.01175,0.051759,0.053224,-6.04248,12.207031,-10.559082,0,0
7502,2024 10 07,05:25:12.505,0.220151,0.616214,-0.257887,0.710851,-1.00589,0.04883,0.061525,-5.004883,12.573242,-11.047363,0,0
7503,2024 10 07,05:25:12.514,0.221359,0.615659,-0.257306,0.711167,-0.998077,0.037599,0.063967,-3.90625,11.59668,-11.291504,0,0
7504,2024 10 07,05:25:12.522,0.222554,0.615242,-0.256728,0.711363,-1.001007,0.043458,0.064943,-4.150391,9.58252,-12.023926,0,0
7505,2024 10 07,05:25:12.530,0.22371,0.614929,-0.256127,0.711488,-1.001007,0.038575,0.084475,-3.662109,8.239746,-12.268066,0,0
7506,2024 10 07,05:25:12.539,0.224863,0.614669,-0.25548,0.711582,-1.001495,0.048341,0.062014,-3.051758,7.8125,-12.817383,0,0
7507,2024 10 07,05:25:12.547,0.224863,0.614669,-0.25548,0.711582,-1.001495,0.048341,0.062014,-3.051758,7.8125,-12.817383,0,0
7508,2024 10 07,05:25:12.555,0.225988,0.614542,-0.254788,0.711583,-1.024934,0.050783,0.067385,-2.685547,6.04248,-13.793945,0,0
7509,2024 10 07,05:25:12.564,0.227071,0.61439,-0.253952,0.711669,-1.039582,0.031739,0.062502,-0.12207,7.873535,-14.038086,0,0
7510,2024 10 07,05:25:12.572,0.228156,0.614175,-0.252917,0.711876,-1.016633,0.037111,0.073244,1.403809,9.643555,-14.831543,0,0
7511,2024 10 07,05:25:12.580,0.229195,0.613989,-0.251703,0.712133,-1.033235,0.046876,0.063967,2.929688,9.94873,-15.991211,0,0
7512,2024 10 07,05:25:12.589,0.230241,0.613745,-0.250345,0.712484,-1.049837,0.034181,0.057619,4.760742,11.71875,-16.479492,0,0
7513,2024 10 07,05:25:12.597,0.230241,0.613745,-0.250345,0.712484,-1.049837,0.034181,0.057619,4.760742,11.71875,-16.479492,0,0
7514,2024 10 07,05:25:12.605,0.23136,0.613519,-0.248822,0.71285,-1.049837,0.041505,0.079104,4.821777,12.145996,-18.493652,0,0
7515,2024 10 07,05:25:12.614,0.232567,0.613299,-0.247115,0.713239,-1.036653,0.034669,0.0918,6.164551,12.634277,-20.812988,0,0
7516,2024 10 07,05:25:12.622,0.233905,0.613219,-0.24524,0.713518,-1.047884,0.038575,0.099124,6.103516,11.230469,-23.864746,0,0
7517,2024 10 07,05:25:12.630,0.235464,0.613247,-0.243155,0.713695,-1.066439,0.041505,0.076662,6.774902,11.169434,-27.770996,0,0
7518,2024 10 07,05:25:12.639,0.237218,0.613546,-0.240817,0.71365,-1.083041,0.045412,0.089846,7.263184,7.69043,-33.38623,0,0
7519,2024 10 07,05:25:12.647,0.237218,0.613546,-0.240817,0.71365,-1.083041,0.045412,0.089846,7.263184,7.69043,-33.38623,0,0
7520,2024 10 07,05:25:12.655,0.23926,0.614253,-0.238186,0.713243,-1.113804,0.037111,0.130375,8.544922,3.356934,-40.222168,0,0
7521,2024 10 07,05:25:12.664,0.241791,0.615433,-0.235151,0.712379,-1.251991,0.089358,0.18067,6.530762,-2.624512,-50.65918,0,0
7522,2024 10 07,05:25:12.672,0.245293,0.616916,-0.231634,0.71105,-1.276894,0.062014,0.158208,2.685547,-1.586914,-64.819336,0,0
7523,2024 10 07,05:25:12.680,0.249671,0.618794,-0.227548,0.709211,-1.355022,0.04004,0.06299,1.708984,-7.263184,-78.430176,0,0
