frame,date,time,quaternion_x_left,quaternion_y_left,quaternion_z_left,quaternion_w_left,accel_x_left,accel_y_left,accel_z_left,gyro_x_left,gyro_y_left,gyro_z_left,HS_left,TO_left,filtered_quaternion_x_left,filtered_quaternion_y_left,filtered_quaternion_z_left,filtered_quaternion_w_left,filtered_accel_x_left,filtered_accel_y_left,filtered_accel_z_left,filtered_gyro_x_left,filtered_gyro_y_left,filtered_gyro_z_left,quaternion_x_right,quaternion_y_right,quaternion_z_right,quaternion_w_right,accel_x_right,accel_y_right,accel_z_right,gyro_x_right,gyro_y_right,gyro_z_right,HS_right,TO_right,filtered_quaternion_x_right,filtered_quaternion_y_right,filtered_quaternion_z_right,filtered_quaternion_w_right,filtered_accel_x_right,filtered_accel_y_right,filtered_accel_z_right,filtered_gyro_x_right,filtered_gyro_y_right,filtered_gyro_z_right
13781,2024 10 17,09:01:54.828,-0.537108,0.464611,0.517409,0.477431,-1.26957,0.221198,0.050783,13.244629,18.737793,-103.271484,0,0,-0.537108,0.464611,0.517409,0.477431,-1.26957,0.221198,0.050783,13.244629,18.737793,-103.271484,0.721647,0.35343,-0.549094,0.229801,-1.575732,0.252449,0.199713,-52.856445,-140.563965,319.702148,0,0,0.721647,0.35343,-0.549094,0.229801,-1.575732,0.252449,0.199713,-52.856445,-140.563965,319.702148
13782,2024 10 17,09:01:54.837,-0.541312,0.469824,0.514503,0.470673,-1.215369,0.151372,0.045412,15.930176,22.155762,-114.929199,0,0,-0.5373182000000001,0.4648716499999999,0.5172637,0.4770931,-1.2668599500000002,0.2177067,0.0505144499999999,13.37890635,18.90869145,-103.85436975,0.709661,0.337257,-0.568718,0.243308,-1.648,0.244636,0.216803,-50.90332,-140.441895,321.472168,0,0,0.7210477,0.35262135,-0.5500751999999999,0.23047635,-1.5793453999999998,0.25205835,0.2005674999999999,-52.75878875,-140.5578615,319.79064900000003
13783,2024 10 17,09:01:54.845,-0.545832,0.475376,0.51173,0.462836,-1.194372,0.158696,0.078616,21.606445,30.395508,-123.413086,0,0,-0.53774389,0.4653968674999999,0.516987015,0.476380245,-1.2632355525,0.214756165,0.0519195274999999,13.7902832825,19.4830322775,-104.8323055625,0.696823,0.320926,-0.587863,0.256634,-1.744682,0.229011,0.211921,-48.950195,-143.432617,321.594238,0,0,0.7198364649999999,0.3510365824999999,-0.5519645899999999,0.2317842325,-1.5876122299999995,0.2509059824999999,0.2011351749999999,-52.5683590625,-140.70159927499998,319.88082845
13784,2024 10 17,09:01:54.853,-0.545832,0.475376,0.51173,0.462836,-1.194372,0.158696,0.078616,21.606445,30.395508,-123.413086,0,0,-0.5381482955,0.4658958241249998,0.51672416425,0.47570303275,-1.2597923748750002,0.2119531567499999,0.0532543511249999,14.181091368374998,20.028656063625,-105.76134458437498,0.696823,0.320926,-0.587863,0.256634,-1.744682,0.229011,0.211921,-48.950195,-143.432617,321.594238,0,0,0.7186857917499998,0.3495310533749999,-0.5537595104999998,0.2330267208749999,-1.5954657185,0.2498112333749999,0.2016744662499999,-52.387450859375,-140.83815016124998,319.9664989275
13785,2024 10 17,09:01:54.862,-0.550413,0.48129,0.509242,0.453958,-1.158238,0.108402,0.159673,29.23584,38.391113,-130.859375,0,0,-0.538761530725,0.4666655329187498,0.5163500560375,0.4746157811124999,-1.25471465613125,0.2067755989125,0.0585752835687499,14.933828799956247,20.946778910443744,-107.01624610515624,0.683074,0.304559,-0.606555,0.269711,-1.863826,0.192877,0.222175,-46.081543,-146.728516,321.472168,0,0,0.7169052021624998,0.3472824507062499,-0.5563992849749998,0.2348609348312499,-1.6088837325749998,0.2469645217062499,0.2026994929374999,-52.07215546640624,-141.13266845318748,320.041782381125
13786,2024 10 17,09:01:54.870,-0.555049,0.487292,0.5072,0.444089,-1.130894,0.025391,0.151372,36.132813,47.180176,-134.033203,0,0,-0.53957590418875,0.4676968562728123,0.515892553235625,0.4730894420568749,-1.2485236233246877,0.197706368966875,0.0632151193903124,15.993778009958437,22.25844876492156,-108.3670939498984,0.668453,0.288119,-0.624706,0.282667,-1.993225,0.112308,0.244148,-42.602539,-148.803711,323.120117,0,0,0.7144825920543747,0.3443242781709374,-0.5598146207262498,0.2372512380896874,-1.62810079594625,0.2402316956209374,0.2047719182906249,-51.59867464308593,-141.51622058052808,320.1956991120687
13787,2024 10 17,09:01:54.878,-0.55981,0.493011,0.506017,0.433013,-1.145543,0.021485,0.21778,50.90332,57.128906,-135.620117,0,0,-0.5405876089793125,0.4689625634591717,0.5153987755738437,0.4710856199540311,-1.2433745921584531,0.1888953005185312,0.0709433634207968,17.739255109460515,24.00197162667548,-109.72974510240348,0.653044,0.271562,-0.642157,0.295672,-2.131413,-0.026856,0.234382,-38.085938,-148.071289,325.805664,0,0,0.711410662451656,0.3406861642623905,-0.5639317396899373,0.2401722761852031,-1.6532664061489375,0.2268773108398905,0.2062524223760937,-50.923037810931625,-141.8439740015017,320.47619735646526
13788,2024 10 17,09:01:54.887,-0.564663,0.498474,0.50535,0.421072,-1.208045,0.04883,0.218268,61.706543,61.645508,-137.756348,0,0,-0.5417913785303469,0.4704381352862131,0.5148963367951516,0.4685849389563296,-1.2416081125505305,0.1818920354926047,0.078309595249757,19.93761950398749,25.8841484453417,-111.1310752472833,0.636978,0.255007,-0.658721,0.308733,-2.267159,-0.255379,0.21778,-32.775879,-146.118164,326.416016,0,0,0.7076890293290731,0.336402206049271,-0.5686712027054404,0.2436003123759429,-1.6839610358414905,0.202764495297896,0.206828801257289,-50.01567987038504,-142.0576835014266,320.773188288642
13789,2024 10 17,09:01:54.895,-0.569871,0.503324,0.504727,0.408855,-1.291055,0.264168,0.091311,69.396973,56.030273,-136.291504,0,0,-0.5431953596038295,0.4720824285219024,0.514387869955394,0.4655984420085131,-1.244080456923004,0.1860058337179744,0.0789596654872691,22.41058717878812,27.391454673074616,-112.38909668491914,0.620384,0.238718,-0.67434,0.321563,-2.391675,-0.589862,0.196295,-27.954102,-145.324707,322.875977,0,0,0.7033237778626195,0.3315179957468074,-0.5739546425701683,0.2474984467571457,-1.719346734049416,0.1631331705330012,0.2063021111944245,-48.91260097686579,-142.22103467635526,320.8783277242099
13790,2024 10 17,09:01:54.903,-0.569871,0.503324,0.504727,0.408855,-1.291055,0.264168,0.091311,69.396973,56.030273,-136.291504,0,0,-0.544529141623638,0.4736445070958073,0.5139048264576243,0.4627612699080874,-1.2464291840768538,0.1899139420320757,0.0795772322129057,24.75990646984871,28.823395589420883,-113.58421705067316,0.620384,0.238718,-0.67434,0.321563,-2.391675,-0.589862,0.196295,-27.954102,-145.324707,322.875977,0,0,0.6991767889694884,0.3268779959594671,-0.5789739104416598,0.2512016744192885,-1.7529631473469451,0.1254834120063511,0.2058017556347033,-47.8646760280225,-142.3762182925375,320.97821018799937
13791,2024 10 17,09:01:54.912,-0.575917,0.506091,0.503765,0.39801,-1.281777,0.576189,0.005371,73.181152,23.498535,-117.126465,0,0,-0.546098534542456,0.4752668317410169,0.513397835134743,0.459523706412683,-1.248196574873011,0.2092276949304719,0.0758669206022604,27.18096874635627,28.55715255994984,-113.76132944813952,0.60347,0.222915,-0.688962,0.333863,-2.473708,-1.006378,0.165532,-24.047852,-143.981934,315.490723,0,0,0.694391449521014,0.3216798461614937,-0.5844733149195768,0.255334740698324,-1.789000389979598,0.0688903414060335,0.2037882678529681,-46.67383482662138,-142.4565040779106,320.7038358285994
13792,2024 10 17,09:01:54.920,-0.582603,0.505866,0.501804,0.39098,-1.22074,0.607929,0.140141,71.533203,-22.583008,-83.251953,0,0,-0.5479237578153332,0.4767967901539661,0.5128181433780058,0.4560965210920488,-1.2468237461293603,0.2291627601839483,0.0790806245721474,29.398580459038456,26.000144531952344,-112.23586062573251,0.586443,0.207813,-0.702616,0.345294,-2.47615,-1.470748,0.146489,-22.949219,-143.676758,303.833008,0,0,0.6889940270449633,0.315986503853419,-0.5903804491735979,0.2598327036634079,-1.823357870480618,-0.0080915756642681,0.2009233044603197,-45.48760403529031,-142.51751677401506,319.8602944371694
13793,2024 10 17,09:01:54.928,-0.589618,0.503056,0.499474,0.387054,-0.910672,0.787133,0.160161,75.744629,-53.283691,-51.330566,0,0,-0.5500084699245665,0.4781097506462677,0.5121509362091055,0.4526443950374463,-1.2300161588228924,0.2570612721747509,0.08313464334354,31.715882886086533,22.035952755354728,-109.19059589444588,0.569458,0.193796,-0.7155,0.355275,-2.337474,-1.876522,0.225105,-24.658203,-147.521973,283.569336,0,0,0.6830172256927151,0.3098769786607481,-0.596636426714918,0.2646048184802375,-1.849063676956587,-0.1015130968810547,0.2021323892373037,-44.4461339835258,-142.7677395853143,318.0457465153109
13794,2024 10 17,09:01:54.937,-0.596162,0.498337,0.497829,0.385251,-0.697287,0.686544,0.203131,72.20459,-59.692383,-23.071289,0,0,-0.5523161464283382,0.4791211131139543,0.5114348393986502,0.449274725285574,-1.2033797008817475,0.2785354085660133,0.089134461176363,33.740318241782205,17.94953596758699,-104.8846305497236,0.552467,0.182038,-0.727927,0.362994,-2.176824,-2.250069,0.453627,-25.939941,-162.658691,247.497559,0,0,0.6764897144080794,0.3034850297277107,-0.6032009553791721,0.2695242775562256,-1.8654516931087572,-0.208940892037002,0.2147071197754385,-43.52082433434951,-143.76228715604856,314.5183371395454
13795,2024 10 17,09:01:54.945,-0.602066,0.49304,0.497236,0.383647,-0.625996,0.740745,0.255867,76.538086,-50.90332,-12.756348,0,0,-0.5548036391069213,0.4798170574582566,0.5107248974287176,0.4459933390212953,-1.1745105158376603,0.3016458881377126,0.0974710881175448,35.8802066296931,14.506893169207638,-100.27821642223742,0.535543,0.1738,-0.739977,0.367997,-2.064028,-2.608966,0.796411,-23.925781,-181.945801,199.279785,0,0,0.6694423786876754,0.2970007782413251,-0.6100397576102135,0.2744479136784143,-1.87538050845332,-0.3289421474351519,0.2437923137866666,-42.54107216763202,-145.6714628482461,308.7564095325681
13796,2024 10 17,09:01:54.953,-0.602066,0.49304,0.497236,0.383647,-0.625996,0.740745,0.255867,76.538086,-50.90332,-12.756348,0,0,-0.5571667571515753,0.4804782045853437,0.5100504525572818,0.4428760220702305,-1.1470847900457772,0.323600843730827,0.1053908837116676,37.913100598208445,11.236382510747257,-95.90212300112556,0.535543,0.1738,-0.739977,0.367997,-2.064028,-2.608966,0.796411,-23.925781,-181.945801,199.279785,0,0,0.6627474097532916,0.2908407393292588,-0.6165366197297028,0.2791253679944935,-1.8848128830306536,-0.4429433400633943,0.2714232480973332,-41.61030760925042,-147.4851797558338,303.2825783059397
13797,2024 10 17,09:01:54.962,-0.60737,0.487798,0.497321,0.381872,-0.563982,0.803247,0.27784,76.782227,-41.748047,-8.911133,0,0,-0.5596769192939965,0.4808441943560765,0.5094139799294176,0.4398258209667189,-1.117929650543488,0.3475831515442857,0.1140133395260842,39.856556918298025,8.587161035209892,-91.55257350106926,0.518969,0.169423,-0.751471,0.370485,-1.971252,-2.856533,1.202185,-19.470215,-197.20459,150.45166,0,0,0.655558489265627,0.2847698523627958,-0.6232833387432175,0.2836933495947689,-1.889134838879121,-0.5636228230602246,0.3179613356924666,-40.5033029787879,-149.9711502680421,295.6410323906427
13798,2024 10 17,09:01:54.970,-0.611787,0.48278,0.498128,0.380143,-0.546892,0.883816,0.242683,71.533203,-30.578613,-0.915527,0,0,-0.5622824233292967,0.4809409846382727,0.5088496809329467,0.4368416799183829,-1.0893777680163137,0.3743947939670714,0.12044682254978,41.440389222383125,6.628872333449396,-87.0207211760158,0.503519,0.16845,-0.761806,0.37114,-1.88287,-3.003998,1.580615,-11.59668,-196.350098,105.285645,0,0,0.6479565148023456,0.278953859744656,-0.6302094718060566,0.2880656821150304,-1.8888215969351647,-0.6856415819072134,0.3810940189078432,-39.057971829848505,-152.29009765463996,286.1232630211106
13799,2024 10 17,09:01:54.978,-0.615032,0.478032,0.499562,0.379023,-0.545427,0.939482,0.219245,60.974121,-22.521973,10.742188,0,0,-0.5649199021628318,0.4807955354063591,0.5083852968862994,0.4339507459224637,-1.062180229615498,0.4026491542687178,0.125386731422291,42.41707581126396,5.171330066776926,-82.132575717215,0.49014,0.169926,-0.770347,0.370747,-2.107975,-3.160253,1.77398,-3.662109,-177.429199,68.237305,0,0,0.6400656890622283,0.2735024667574232,-0.6372163482157537,0.2921997480092789,-1.8997792670884064,-0.8093721528118526,0.450738317962451,-37.28817868835608,-153.54705272190796,275.228965120055
13800,2024 10 17,09:01:54.987,-0.616987,0.473718,0.501432,0.378793,-0.559587,0.952666,0.200201,46.936035,-14.831543,21.911621,0,0,-0.5675232570546902,0.4804416586360411,0.5080376320419844,0.4311928586263405,-1.037050568134723,0.4301499965552819,0.1291274448511764,42.64302377070076,4.17118641343808,-76.93036588135425,0.48056,0.17251,-0.77626,0.369759,-2.547441,-3.287698,1.908261,0.183105,-126.525879,35.949707,0,0,0.6320904046091169,0.268452843419552,-0.6441685308049659,0.2960777106088149,-1.932162353733986,-0.93328844517126,0.5236144520643284,-35.414614503938274,-152.19599403581256,263.26500221405223
13801,2024 10 17,09:01:54.995,-0.617673,0.470029,0.503558,0.37945,-0.577166,0.932646,0.186529,31.37207,-8.056641,31.005859,0,0,-0.5700307442019557,0.479921025704239,0.5078136504398851,0.4286057156950234,-1.014056339727987,0.4552747967275178,0.1319975226086176,42.07947608216572,3.5597950427661758,-71.53355463728653,0.478622,0.174237,-0.777555,0.368743,-2.482986,-3.150487,1.77984,-1.159668,-16.662598,2.502441,0,0,0.624416984378661,0.2637420512485744,-0.6508378542647176,0.2997109750783742,-1.9597035360472868,-1.044148372912697,0.5864257294611119,-33.70186717874136,-145.41932423402193,250.2268741533496
13802,2024 10 17,09:01:55.003,-0.617673,0.470029,0.503558,0.37945,-0.577166,0.932646,0.186529,31.37207,-8.056641,31.005859,0,0,-0.5724128569918578,0.479426424419027,0.5076008679178908,0.4261479299102722,-0.9922118227415876,0.4791433568911419,0.1347240964781867,41.54410577805744,2.978973240627866,-66.40658395542219,0.478622,0.174237,-0.777555,0.368743,-2.482986,-3.150487,1.77984,-1.159668,-16.662598,2.502441,0,0,0.6171272351597279,0.2592667986861457,-0.6571737115514817,0.3031625763244555,-1.9858676592449225,-1.1494653042670622,0.6460964429880562,-32.07475721980429,-138.9814879223208,237.8406524956821
13803,2024 10 17,09:01:55.012,-0.617147,0.466984,0.505946,0.380885,-0.557634,0.894559,0.185064,17.150879,0.427246,39.672852,0,0,-0.574649564142265,0.4788043031980756,0.5075181245219963,0.4238847834147586,-0.970482931604508,0.4999141390465848,0.1372410916542773,40.32444443915456,2.851386878596472,-61.10261215765107,0.484334,0.174885,-0.774361,0.367695,-1.823298,-2.651936,1.434614,-2.929688,68.908691,-30.212402,0,0,0.6104875734017414,0.2550477087518384,-0.6630330759739076,0.3063891975082327,-1.977739176282676,-1.224588839053709,0.6855223208386534,-30.617503758814077,-128.58697897620476,224.437999770898
13804,2024 10 17,09:01:55.020,-0.615282,0.464602,0.508886,0.382894,-0.592303,0.868679,0.200201,4.760742,12.390137,49.01123,0,0,-0.5766811859351517,0.4780941880381718,0.5075865182958964,0.4218352442440207,-0.9515739350242828,0.5183523820942555,0.1403890870715634,38.54625931719683,3.3283243846666486,-55.59692004976852,0.49263,0.17616,-0.769331,0.366624,-1.587451,-1.907285,1.239784,5.371094,86.303711,-51.513672,0,0,0.6045946947316544,0.2511033233142465,-0.6683479721752121,0.309400937632821,-1.9582247674685425,-1.2587236471010237,0.7132354047967207,-28.81807387087337,-117.84244447739452,210.64041618235305
13805,2024 10 17,09:01:55.028,-0.612118,0.462816,0.512389,0.385448,-0.642598,0.832545,0.184576,-6.591797,23.132324,58.044434,0,0,-0.578453026638394,0.4773302786362632,0.5078266423811015,0.4200158820318196,-0.9361251382730684,0.5340620129895427,0.1425984327179853,36.28935650133699,4.318524365433316,-49.914852347280096,0.50114,0.179169,-0.763041,0.366776,-1.824763,-0.828639,0.9888,36.193848,93.322754,-66.162109,0,0,0.5994219599950716,0.2475066071485341,-0.6730826235664515,0.3122696907511799,-1.9515516790951148,-1.2372194147459723,0.7270136345568846,-25.5674777773297,-107.2841845535248,196.8002899232354
13806,2024 10 17,09:01:55.037,-0.607842,0.461466,0.516346,0.388542,-0.678732,0.784204,0.193365,-16.174316,31.494141,66.711426,0,0,-0.5799224753064743,0.4765370647044501,0.5082526102620465,0.4184421879302287,-0.923255481359415,0.5465691123400656,0.145136761082086,33.66617287627014,5.677305197161649,-44.08353842991609,0.512482,0.188011,-0.763082,0.346004,-1.011261,3.717399,3.669546,-141.296387,37.231445,-285.888672,0,0,0.5950749619953181,0.2445318267911074,-0.6775825923881289,0.3139564062136209,-1.904537145140359,-0.9894884940086736,0.8741402528290403,-31.353923238463214,-100.05840307584856,172.66584182707362
13807,2024 10 17,09:01:55.045,-0.602549,0.460394,0.520809,0.392084,-0.732444,0.724631,0.203131,-23.254395,40.039063,75.866699,0,0,-0.5810538015411506,0.4757299114692276,0.5088804297489442,0.4171242785337172,-0.9137149072914444,0.5554722067230623,0.1480364730279817,30.82014448245663,7.395393087303566,-38.08602655842028,0.542964,0.189214,-0.745496,0.33708,0.323252,3.235939,-5.063632,-123.413086,369.812012,-257.69043,0,0,0.5924694138955521,0.241765935451552,-0.6809782627687225,0.3151125859029398,-1.793147687883341,-0.7782171193082399,0.5772516401875882,-35.95688137654005,-76.56488232205612,151.14802823571992
13808,2024 10 17,09:01:55.053,-0.602549,0.460394,0.520809,0.392084,-0.732444,0.724631,0.203131,-23.254395,40.039063,75.866699,0,0,-0.582128561464093,0.4749631158957662,0.509476858261497,0.4158722646070313,-0.904651361926872,0.5639301463869092,0.1507911993765826,28.1164175083338,9.027576582938387,-32.38839028049926,0.542964,0.189214,-0.745496,0.33708,0.323252,3.235939,-5.063631,-123.413086,369.812012,-257.69043,0,0,0.5899941432007744,0.2391383386789744,-0.6842041496302864,0.3162109566077928,-1.687327703489174,-0.5775093133428278,0.2952075081782088,-40.32969160771305,-54.24603760595331,130.7061053239339
13809,2024 10 17,09:01:55.062,-0.596344,0.459371,0.52585,0.396022,-0.806177,0.674825,0.212409,-27.160645,46.75293,85.998535,0,0,-0.5828393333908883,0.4741835101009778,0.5102955153484222,0.4148797513766798,-0.8997276438305284,0.5694748890675636,0.1538720894077535,25.352564382917105,10.913844253791469,-26.46904401647429,0.547758,0.207219,-0.743172,0.323599,-1.684133,0.41847,0.666036,4.516602,-133.544922,-282.104492,0,0,0.5878823360407357,0.2375423717450257,-0.6871525421487721,0.3165803587774031,-1.6871679683147154,-0.5277103476756865,0.3137489327692983,-38.08737692732739,-58.21098182565565,110.0655754577372
13810,2024 10 17,09:01:55.070,-0.589524,0.458087,0.531296,0.400428,-0.876492,0.617695,0.20069,-29.23584,48.217773,95.825195,0,0,-0.5831735667213438,0.4733786845959289,0.5113455395810012,0.4141571638078458,-0.8985658616390019,0.5718858946141854,0.1562129849373658,22.62314416377125,12.779040691101894,-20.35433206565057,0.562169,0.226418,-0.73019,0.315473,-1.695853,-0.274911,1.287149,114.074707,231.750488,-294.311523,1,0,0.5865966692386988,0.2369861531577744,-0.6893044150413334,0.316524990838533,-1.6876022198989795,-0.5150703802919021,0.3624189361308334,-30.47927273096101,-43.71290833437287,89.84672053485035
13811,2024 10 17,09:01:55.078,-0.582385,0.456355,0.536989,0.40523,-0.912137,0.551286,0.225593,-28.381348,47.790527,103.820801,0,0,-0.5831341383852766,0.4725275003661325,0.5126277126019511,0.4137108056174535,-0.8992444185570517,0.5708558998834761,0.1596819856904975,20.072919555582686,14.5296150065468,-14.145575412368045,0.580482,0.2435,-0.709313,0.317213,-1.350139,-1.23246,-0.754906,157.287598,157.897949,-225.524902,0,0,0.5862909357767638,0.2373118454998856,-0.6903048442892668,0.3165593912966063,-1.6707290589040305,-0.550939861277307,0.3065526893242917,-21.09092919441296,-33.632365467654225,74.07813940810783
13812,2024 10 17,09:01:55.087,-0.575041,0.454137,0.543052,0.4101,-0.962432,0.50148,0.233406,-24.230957,49.194336,110.229492,0,0,-0.5827294814660128,0.4716079753478258,0.5141489269718534,0.4135302653365807,-0.9024037976291992,0.5673871048893023,0.1633681864059726,17.85772572780355,16.26285105621946,-7.92682204174964,0.588872,0.255603,-0.698707,0.315761,-2.22663,-0.098636,1.789117,67.810059,121.704102,-143.005371,0,0,0.5864199889879256,0.2382264032248914,-0.6907249520748034,0.3165194717317759,-1.6985241059588287,-0.5283246682134417,0.3806809048580771,-16.645879784692312,-25.86554209427151,63.22396388770243
13813,2024 10 17,09:01:55.095,-0.56759,0.451383,0.549505,0.414897,-1.02298,0.474136,0.227546,-18.554688,49.926758,115.722656,0,0,-0.5819725073927121,0.4705967265804345,0.5159167306232607,0.4135986020697517,-0.908432607747739,0.5627245496448372,0.166577077085674,16.037105041413373,17.946046403408488,-1.744348139662157,0.604464,0.25992,-0.681476,0.320399,-0.79104,-0.009278,-0.789575,91.674805,230.773926,-100.036621,0,0,0.5873221895385293,0.2393110830636468,-0.6902625044710633,0.3167134481451871,-1.6531499006608872,-0.5023723348027695,0.3221681096151733,-11.229845545457696,-13.033568689557931,55.06093464331731
13814,2024 10 17,09:01:55.103,-0.56759,0.451383,0.549505,0.414897,-1.02298,0.474136,0.227546,-18.554688,49.926758,115.722656,0,0,-0.5812533820230765,0.4696360402514127,0.5175961440920976,0.413663521966264,-0.914159977360352,0.5582951221625954,0.1696255232313903,14.307515389342704,19.545081983238063,4.129002067320952,0.604464,0.25992,-0.681476,0.320399,-0.79104,-0.009278,-0.789575,91.674805,230.773926,-100.036621,0,0,0.5881792800616028,0.2403415289104644,-0.6898231792475101,0.3168977257379278,-1.610044405627843,-0.4777176180626311,0.2665809541344145,-6.08461301818481,-0.8431939550800358,47.30605686115144
13815,2024 10 17,09:01:55.112,-0.560137,0.448006,0.556244,0.419678,-1.069857,0.459975,0.239753,-13.366699,48.400879,121.276855,0,0,-0.5801975629219227,0.4685545382388421,0.5195285368874927,0.4139642458679508,-0.9219448284923344,0.5533791160544655,0.1731318970698208,12.923804669875569,20.98787183407616,9.986394713954905,0.610497,0.26675,-0.672021,0.323304,-1.102573,-0.293954,0.193854,77.392578,60.852051,-76.843262,0,0,0.5892951660585227,0.2416619524649412,-0.6889330702851346,0.3172180394510314,-1.5846708353464505,-0.4685294371594994,0.2629446064276938,-1.910753467275569,2.2415682926739664,41.09859091809386
13816,2024 10 17,09:01:55.120,-0.552693,0.444007,0.563177,0.424524,-1.093783,0.433607,0.24659,-9.033203,46.386719,126.708984,0,0,-0.5788223347758266,0.4673271613268999,0.521710960043118,0.4144922335745532,-0.9305367370677176,0.5473905102517422,0.1768048022163297,11.825954286381789,22.25781419237235,15.822524178257158,0.614597,0.271558,-0.665417,0.325186,-1.139195,-0.064943,0.256355,57.617188,78.491211,-51.635742,0,0,0.5905602577555965,0.2431567548416941,-0.6877572667708778,0.3176164374784798,-1.5623970435791277,-0.4483501153015244,0.2626151261063091,1.0656436060882095,6.054050428040268,36.46187427218917
13817,2024 10 17,09:01:55.128,-0.545165,0.4395,0.570297,0.429413,-1.114292,0.403333,0.244636,-5.92041,45.715332,131.896973,0,0,-0.5771394680370352,0.4659358032605549,0.5241402620409621,0.4152382718958255,-0.9397245002143316,0.5401876347391551,0.1801963621055132,10.938636072062696,23.43069008275373,21.6262466193443,0.619876,0.274259,-0.658458,0.327061,-0.844264,-0.046388,-0.448256,34.729004,75.073242,-48.64502,0,0,0.5920260448678166,0.2447118670996094,-0.6862923034323338,0.3180886656045558,-1.526490391400171,-0.4282520095364482,0.2270715698009937,2.7488116257838,9.505010006638257,32.20652955857971
13818,2024 10 17,09:01:55.137,-0.537585,0.434544,0.577525,0.434325,-1.126987,0.378918,0.261238,-3.356934,44.067383,135.681152,0,0,-0.5751617446351834,0.4643662130975272,0.5268094989389139,0.4161926083010342,-0.9490876252036152,0.5321241530021973,0.1842484440002376,10.22385756845956,24.46252472861604,27.32899188837709,0.623442,0.276978,-0.65393,0.327077,-1.188513,0.033204,0.024415,27.282715,50.598145,-45.471191,0,0,0.5935968426244258,0.2463251737446289,-0.6846741882607171,0.318538082324328,-1.5095915218301623,-0.4051792090596258,0.2169387413109439,3.9755067944946094,11.559666756306342,28.322643530650723
13819,2024 10 17,09:01:55.145,-0.529961,0.42923,0.584751,0.439283,-1.126987,0.358898,0.265145,-1.77002,42.419434,138.61084,0,0,-0.5729017074034243,0.4626094024426508,0.5297065739919682,0.4173471278859825,-0.9579825939434344,0.5234628453520874,0.1882932718002257,9.624163690036582,25.36037019218524,32.89308429395823,0.627666,0.278749,-0.64797,0.329346,-1.036653,-0.127934,-0.178716,40.527344,80.26123,-26.062012,0,0,0.5953003004932045,0.2479463650573974,-0.6828389788476812,0.3190784782081116,-1.4859445957386543,-0.3913169486066445,0.1971560042453967,5.80309865476988,14.994744918491026,25.603410754118183
13820,2024 10 17,09:01:55.153,-0.529961,0.42923,0.584751,0.439283,-1.126987,0.358898,0.265145,-1.77002,42.419434,138.61084,0,0,-0.5707546720332531,0.4609404323205183,0.5324587952923698,0.4184439214916833,-0.9664328142462624,0.515234603084483,0.1921358582102144,9.054454505534752,26.21332338257597,38.17897207926032,0.630934,0.279656,-0.643331,0.331422,-0.915067,-0.013184,0.10596,23.376465,52.856445,-16.540527,0,0,0.5970819854685443,0.2495318468045275,-0.6808635799052971,0.319695654297706,-1.4574007159517215,-0.3724103011763123,0.1925962040331269,6.681766972031386,16.887829922566475,23.496213866412276
13821,2024 10 17,09:01:55.162,-0.522234,0.423646,0.591994,0.444229,-1.089389,0.331065,0.278817,-0.488281,42.785645,141.113281,0,0,-0.5683286384315904,0.4590757107044923,0.5354355555277514,0.4197331754170992,-0.9725806235339494,0.5060261229302588,0.1964699152997036,8.577317730258013,27.04193946344717,43.3256875252973,0.630934,0.279656,-0.643331,0.331422,-0.915067,-0.013184,0.10596,23.376465,52.856445,-16.540527,0,0,0.5987745861951171,0.2510380544643012,-0.6789869509100322,0.3202819715828207,-1.4302840301541353,-0.3544489861174967,0.1882643938314706,7.516501873429816,18.686260676438152,21.494376823091656
13822,2024 10 17,09:01:55.170,-0.514175,0.41802,0.599396,0.449007,-1.106479,0.306162,0.255867,-0.305176,47.302246,142.883301,0,0,-0.565620956510011,0.4570229251692677,0.5386335777513638,0.4211968666462442,-0.979275542357252,0.4960329167837458,0.1994397695347184,8.133193043745113,28.054954790274813,48.303568199032426,0.633366,0.28027,-0.640118,0.332484,-1.022492,0.055177,-0.010743,15.625,40.527344,-16.235352,0,0,0.6005041568853613,0.2524996517410861,-0.6770435033645307,0.3208920730036796,-1.4098944286464286,-0.3339676868116218,0.178314024139897,7.921926779758325,19.778314842616243,19.60789038193707
13823,2024 10 17,09:01:55.178,-0.505855,0.412489,0.606748,0.453673,-1.145543,0.28663,0.255379,-2.319336,48.950195,142.39502,0,0,-0.5626326586845104,0.4547962289108043,0.5420392988637955,0.4228206733139319,-0.9875889152393892,0.4855627709445585,0.2022367310579825,7.610566591557857,29.099716800761072,53.008140789080805,0.635369,0.280983,-0.637377,0.333324,-1.053255,0.046876,-0.034181,15.563965,32.531738,-15.258789,0,0,0.6022473990410931,0.2539238191540318,-0.675060178196304,0.3215136693534957,-1.3920624572141072,-0.3149255024710407,0.1676892729329022,8.304028690770409,20.41598600048543,17.864556412840216
13824,2024 10 17,09:01:55.187,-0.497461,0.407142,0.613752,0.458341,-1.173376,0.247078,0.224616,-5.79834,48.156738,139.526367,0,0,-0.5593740757502849,0.4524135174652641,0.5456249339206057,0.4245966896482353,-0.9968782694774198,0.4736385323973305,0.2033556945050834,6.940121261979964,30.052567860723016,57.33405209962676,0.637082,0.281743,-0.634934,0.334075,-1.027863,0.059572,0.038087,13.61084,29.968262,-14.587402,0,0,0.6039891290890385,0.2553147781963302,-0.6730538692864888,0.3221417358858209,-1.3738524843534017,-0.2962006273474887,0.1612091592862571,8.569369256231887,20.89359980046116,16.241958492198204
13825,2024 10 17,09:01:55.195,-0.489091,0.402121,0.620265,0.462989,-1.215369,0.183111,0.205573,-10.314941,47.302246,134.70459,0,0,-0.5558599219627706,0.4498988915920008,0.5493569372245755,0.4265163051658235,-1.0078028060035489,0.459112155777464,0.2034665597798292,6.077368148880966,30.915051767686865,61.20257899464542,0.638688,0.282469,-0.632743,0.334553,-1.020539,0.057619,-0.019532,10.742188,24.597168,-15.319824,0,0,0.6057240726345865,0.2566724892865136,-0.6710383258221644,0.3227622990915298,-1.3561868101357315,-0.2785096459801142,0.1521721013219442,8.678010193420294,21.0787782104381,14.663869367588292
13826,2024 10 17,09:01:55.203,-0.489091,0.402121,0.620265,0.462989,-1.215369,0.183111,0.205573,-10.314941,47.302246,134.70459,0,0,-0.552521475864632,0.4475099970124008,0.5529023403633466,0.4283399399075324,-1.018181115703371,0.4453120979885908,0.2035718817908377,5.2577526914369175,31.73441147930252,64.87767954491315,0.639987,0.283299,-0.631001,0.334657,-0.996612,0.075686,0.043458,7.385254,18.066406,-16.174316,0,0,0.6074372190028571,0.2580038148221879,-0.6690364595310562,0.3233570341369533,-1.338208069628945,-0.2607998636811085,0.146736396255847,8.61337238374928,20.928159599916192,13.121960099208875
13827,2024 10 17,09:01:55.212,-0.4809,0.397507,0.626141,0.467622,-1.275429,0.114261,0.181646,-15.075684,44.250488,127.990723,0,0,-0.5489404020714003,0.4450098471617807,0.5565642733451792,0.4303040429121557,-1.0310435099182025,0.4287595430891612,0.2024755877012958,4.241080856865072,32.36021530533739,68.0333317176675,0.639987,0.283299,-0.631001,0.334657,-0.996612,0.075686,0.043458,7.385254,18.066406,-16.174316,0,0,0.6090647080527142,0.2592685740810785,-0.6671346865545034,0.3239220324301056,-1.3211282661474977,-0.2439755704970531,0.1415724764430546,8.551966464561815,20.785071919920384,11.657146294248433
13828,2024 10 17,09:01:55.220,-0.473236,0.39315,0.631183,0.472323,-1.294473,0.044435,0.136235,-18.249512,34.729004,120.117188,0,0,-0.5451551819678302,0.4424168548036917,0.5602952096779202,0.4324049907665479,-1.0442149844222923,0.4095433159347031,0.199163558316231,3.116551214021818,32.478654740070525,70.63752453178412,0.64106,0.284207,-0.629538,0.33459,-1.001007,0.02295,0.027833,7.93457,13.305664,-16.113281,0,0,0.6106644726500784,0.2605154953770245,-0.6652548522267782,0.3244554308086003,-1.3051222028401226,-0.2306292919722004,0.1358855026209019,8.521096641333724,20.41110152392437,10.26862492953601
13829,2024 10 17,09:01:55.228,-0.466406,0.388677,0.635303,0.477269,-1.161168,-0.066408,0.176275,-20.019531,23.620605,115.05127,0,0,-0.5412177228694386,0.439729862063507,0.5640455991940242,0.4346481912282205,-1.0500626352011777,0.3857457501379679,0.1980191304004195,1.959747103320727,32.035752253066995,72.85821180519491,0.641931,0.285146,-0.628442,0.33418,-1.052767,0.044435,0.002441,5.554199,8.728027,-16.601563,0,0,0.6122277990175744,0.2617470206081733,-0.6634142096154392,0.3249416592681702,-1.2925044426981165,-0.2168760773735904,0.1292132774898568,8.372751759267038,19.826947797728145,8.92511553305921
13830,2024 10 17,09:01:55.237,-0.459782,0.384299,0.639332,0.48184,-1.095737,-0.155278,0.131352,-17.76123,25.57373,112.060547,0,0,-0.5371459367259667,0.4369583189603317,0.5678099192343229,0.4370077816668095,-1.0523463534411188,0.3586945626310696,0.1946857738803985,0.9736982481546904,31.712651140413644,74.81832856493517,0.642761,0.2861,-0.627385,0.333756,-1.04593,0.035157,-0.010254,4.821777,9.399414,-16.662598,0,0,0.6137544590666957,0.2629646695777646,-0.6616127491346672,0.3253823763047617,-1.2801757205632105,-0.2042744235049108,0.1222399136153639,8.195203021303685,19.30557110784174,7.645729856406247
13831,2024 10 17,09:01:55.245,-0.453086,0.38013,0.643538,0.485873,-1.079134,-0.209479,0.118168,-13.122559,32.836914,109.069824,0,0,-0.5329429398896683,0.4341169030123151,0.5715963232726067,0.439451042583469,-1.0536857357690628,0.330285884499516,0.1908598851863786,0.2688853857469558,31.76886428339296,76.53090333668841,0.643616,0.287,-0.626373,0.333236,-1.003937,0.031251,-0.007324,3.540039,7.93457,-16.845703,0,0,0.6152475361133609,0.2641664360988764,-0.6598507616779338,0.3257750574895235,-1.26636378453505,-0.1924981523296653,0.1157617179345957,7.962444820238501,18.73702105244965,6.421158213585934
13832,2024 10 17,09:01:55.253,-0.446275,0.376355,0.647863,0.489356,-1.142613,-0.287606,0.041505,-11.413574,37.353516,104.370117,0,0,-0.5286095428951849,0.4312288078616993,0.5754096571089763,0.4419462904542955,-1.0581320989806096,0.2993912902745402,0.1833921409270597,-0.315237583540392,32.04809686922331,77.92286401985399,0.644283,0.287969,-0.625603,0.332556,-1.011261,0.041017,0.025391,2.868652,3.90625,-17.333984,0,0,0.6166993093076929,0.2653565642939325,-0.658138373594037,0.3261141046150474,-1.2536086453082975,-0.180822394713182,0.1112431820378659,7.707755179226575,17.995482499827165,5.233401102906637
13833,2024 10 17,09:01:55.262,-0.446275,0.376355,0.647863,0.489356,-1.142613,-0.287606,0.041505,-11.413574,37.353516,104.370117,0,0,-0.5244928157504256,0.4284851174686143,0.5790323242535275,0.4443167759315807,-1.062356144031579,0.2700414257608132,0.1762977838807067,-0.8701544043633725,32.31336782576214,79.24522666886129,0.644283,0.287969,-0.625603,0.332556,-1.011261,0.041017,0.025391,2.868652,3.90625,-17.333984,0,0,0.6180784938423083,0.2664871860792359,-0.6565116049143351,0.3264361993842951,-1.2414912630428827,-0.1697304249775229,0.1069505729359726,7.465800020265246,17.291020874835805,4.105031847761304
13834,2024 10 17,09:01:55.270,-0.439703,0.372803,0.652011,0.492505,-1.14066,-0.382336,-0.022462,-10.131836,37.231445,99.54834,0,0,-0.5202533249629043,0.4257010115951836,0.582681258040851,0.4467261871350016,-1.06627133683,0.2374225544727725,0.1663597946866713,-1.333238484145204,32.559271684474034,80.26038233541823,0.644957,0.289008,-0.624803,0.331851,-1.014679,0.035157,0.021973,3.417969,5.065918,-18.188477,0,0,0.6194224191501928,0.2676132267752741,-0.6549261746686184,0.3267069394150803,-1.2301506498907384,-0.1594860537286468,0.102701694289174,7.263408469251984,16.679765731094015,2.9903564053732388
13835,2024 10 17,09:01:55.278,-0.433397,0.36934,0.655986,0.495417,-1.13773,-0.466323,-0.047853,-9.277344,35.766602,96.618652,0,0,-0.5159105087147591,0.4228829610154244,0.5863464951388084,0.4491607277782515,-1.0698442699884998,0.2022352767491339,0.1556491549523378,-1.7304437599379436,32.71963820025033,81.0782958186473,0.645689,0.290109,-0.623874,0.331214,-0.994659,0.026368,0.010743,5.004883,6.164551,-18.310547,0,0,0.6207357481926832,0.2687380154365104,-0.6533735659351874,0.3269322924443262,-1.2183760673962016,-0.1501933510422144,0.0981037595747153,7.150482195789385,16.154004994539314,1.9253112351045765
13836,2024 10 17,09:01:55.287,-0.42742,0.365937,0.65964,0.498274,-1.164586,-0.57033,-0.126469,-9.399414,31.433105,92.590332,0,0,-0.5114859832790211,0.4200356629646531,0.5900111703818679,0.4516163913893389,-1.0745813564890747,0.1636070129116772,0.1415432472047209,-2.1138922719410465,32.65531154023781,81.65389762771494,0.646415,0.291251,-0.622865,0.330697,-0.981964,0.023438,0.048341,6.835938,6.958008,-18.005371,0,0,0.622019710783049,0.2698636646646848,-0.651848137638428,0.3271205278221099,-1.2065554640263916,-0.1415117834901037,0.0956156215959795,7.134754985999916,15.694205144812347,0.9287771233493476
13837,2024 10 17,09:01:55.295,-0.422289,0.362556,0.662667,0.501097,-1.106479,-0.703635,-0.139164,-8.911133,21.972656,84.228516,0,0,-0.5070261341150699,0.4171616798164205,0.5936439618627745,0.4540904218198719,-1.076176238664621,0.1202449122660933,0.1275078848444848,-2.453754308343994,32.12117876322592,81.78262854632919,0.647097,0.292485,-0.621803,0.33027,-0.979034,0.026856,0.047365,7.8125,6.103516,-18.249512,0,0,0.6232735752438965,0.2709947314314506,-0.6503458807565066,0.3272780014310044,-1.195179390825072,-0.1330933943155985,0.0932030905161805,7.168642236699919,15.21467068757173,-0.0301373328181199
13838,2024 10 17,09:01:55.303,-0.418107,0.359588,0.66508,0.503539,-1.105991,-0.862819,-0.207038,-7.629395,16.662598,70.678711,0,0,-0.5025801774093164,0.4142829958255994,0.5972157637696357,0.4565628507288783,-1.0776669767313898,0.0710917166527886,0.1107805906022605,-2.712536342926794,31.348249725064623,81.22743266901273,0.647715,0.293835,-0.620736,0.329869,-0.989776,0.013184,0.0459,9.277344,6.103516,-18.676758,0,0,0.6244956464817016,0.2721367448598781,-0.6488653867186812,0.3274075513594542,-1.184909221283818,-0.1257795245998186,0.0908379359903715,7.2740773248649235,14.759112953193142,-0.962468366177214
13839,2024 10 17,09:01:55.312,-0.418107,0.359588,0.66508,0.503539,-1.105991,-0.862819,-0.207038,-7.629395,16.662598,70.678711,0,0,-0.4983565185388505,0.4115482460343194,0.6006089755811539,0.4589116581924343,-1.0790831778948202,0.0243961808201492,0.0948896610721475,-2.9583792757804543,30.61396713881139,80.69999658556209,0.647715,0.293835,-0.620736,0.329869,-0.989776,0.013184,0.0459,9.277344,6.103516,-18.676758,0,0,0.6256566141576165,0.2732216576168841,-0.6474589173827471,0.3275306237914815,-1.175152560219627,-0.1188313483698276,0.0885910391908529,7.374240658621677,14.326333105533486,-1.8481828478683533
13840,2024 10 17,09:01:55.320,-0.41506,0.357152,0.666895,0.505389,-1.134312,-1.034211,-0.263192,-3.601074,10.498047,55.541992,0,0,-0.494191692611908,0.4088284337326033,0.6039232768020962,0.4612355252828126,-1.0818446190000792,-0.0285341782208582,0.0769855780185401,-2.9905140119914315,29.60817113187082,79.44209635628398,0.648374,0.295192,-0.619609,0.32948,-0.992218,0.014161,0.02588,9.70459,6.713867,-19.042969,0,0,0.6267924834497357,0.2743201747360399,-0.6460664215136097,0.3276280926019074,-1.1660058322086455,-0.1121817309513363,0.0854554872313103,7.4907581256905935,13.945709800256813,-2.7079221554749355
13841,2024 10 17,09:01:55.328,-0.41335,0.354998,0.66808,0.506742,-1.162145,-1.15482,-0.290048,0.183105,0.244141,41.931152,0,0,-0.4901496079813126,0.4061369120459731,0.6071311129619914,0.463510849018672,-1.0858596380500751,-0.0848484693098153,0.0586338991176131,-2.83183306139186,28.13996962527728,77.56654913846978,0.649021,0.296606,-0.618452,0.329112,-0.986847,0.020508,0.058596,10.253906,6.958008,-19.165039,0,0,0.6279039092772489,0.2754344659992379,-0.6446857004379292,0.327702287971812,-1.1570478905982136,-0.1055472444037694,0.0841125128697447,7.628915519406063,13.59632471024397,-3.530777997701189
13842,2024 10 17,09:01:55.337,-0.413209,0.353102,0.668399,0.50776,-1.18656,-1.22367,-0.311533,2.563477,-13.977051,25.268555,0,0,-0.486302577582247,0.4034851664436744,0.6101945073138918,0.4657233065677384,-1.0908946561475714,-0.1417895458443245,0.0401255541617324,-2.5620675583222665,26.03411859401341,74.9516494315463,0.649684,0.298073,-0.617226,0.328779,-0.987335,-0.004395,0.062014,10.742188,7.263184,-19.836426,0,0,0.6289929138133864,0.276566392699276,-0.6433127154160326,0.3277561235732213,-1.1485622460683027,-0.100489632183581,0.0830075872262575,7.78457914343576,13.27966767473177,-4.346060397816129
13843,2024 10 17,09:01:55.345,-0.414781,0.351754,0.667632,0.508422,-1.135777,-1.243202,-0.305673,2.990723,-26.489258,4.394531,0,0,-0.4827264987031346,0.4008986081214907,0.6130663819481972,0.4678582412393515,-1.0931387733401927,-0.1968601685521083,0.0228356264536458,-2.2844280304061533,23.40794976431274,71.42379350996899,0.650448,0.299461,-0.615947,0.328405,-0.972686,-0.006836,0.043458,10.375977,8.850098,-19.714355,0,0,0.630065668122717,0.2777111230643121,-0.641944429645231,0.3277885673945603,-1.1397684337648877,-0.0958069505744019,0.0810301078649446,7.9141490362639715,13.05818919099518,-5.114475127925322
13844,2024 10 17,09:01:55.353,-0.41798,0.352798,0.667369,0.505416,-4.737449,-1.894589,-0.747581,54.748535,20.446777,-60.058594,0,0,-0.4794891737679778,0.3984935777154161,0.6157815128507873,0.4697361291773839,-1.275354284673183,-0.2817466101245029,-0.0156852048690364,0.5672201211141545,23.259891126097106,64.84967413447053,0.651163,0.30084,-0.614733,0.328003,-0.987335,0.0,0.072268,9.58252,6.835938,-19.775391,0,0,0.6311205347165811,0.2788675669110965,-0.6405838581629695,0.3277992890248323,-1.132146762076643,-0.0910166030456818,0.0805920024716974,7.997567584450772,12.747076631445422,-5.847520921529056
13845,2024 10 17,09:01:55.362,-0.41798,0.352798,0.667369,0.505416,-4.737449,-1.894589,-0.747581,54.748535,20.446777,-60.058594,0,0,-0.4764137150795789,0.3962087988296452,0.6183608872082479,0.4715201227185147,-1.4484590204395236,-0.3623887296182777,-0.0522799946255846,3.2762858650584468,23.119235419792247,58.604260727747,0.651163,0.30084,-0.614733,0.328003,-0.987335,0.0,0.072268,9.58252,6.835938,-19.775391,0,0,0.632122657980752,0.2799661885655417,-0.639291315254821,0.3278094745735906,-1.1249061739728108,-0.0864657728933977,0.0801758023481125,8.076815205228234,12.45151969987315,-6.543914425452603
13846,2024 10 17,09:01:55.370,-0.428751,0.360973,0.662834,0.49651,-1.704154,-0.685079,-0.566424,36.254883,-109.924316,-166.381836,0,0,-0.4740305793256,0.394447008888163,0.6205845428478355,0.4727696165825889,-1.4612437694175473,-0.3785232431373638,-0.0779871948943053,4.925215721805524,16.467057848802632,47.35495589135965,0.651932,0.302187,-0.613468,0.327604,-0.997101,-0.006836,0.086917,9.70459,9.033203,-19.40918,0,0,0.6331131250817144,0.2810772291372646,-0.6380001494920798,0.3277992008449111,-1.1185159152741702,-0.0824842842487278,0.0805128622307069,8.158203944966822,12.280603864879494,-7.187177704179972
13847,2024 10 17,09:01:55.378,-0.445119,0.368542,0.650314,0.49309,0.193854,-0.692892,-0.729514,-12.695313,-116.210938,-216.003418,0,0,-0.47258500035932,0.3931517584437548,0.6220710157054438,0.4737856357534595,-1.3784888809466698,-0.3942416809804956,-0.1105635351495901,4.044189285715247,9.8331580563625,34.187037196791664,0.652876,0.30338,-0.612014,0.327341,-1.012238,-0.014161,0.031251,9.521484,12.939453,-18.615723,0,0,0.6341012688276286,0.2821923676804013,-0.6367008420174759,0.3277762908026655,-1.1132020195104615,-0.0790681200362914,0.0780497691191715,8.22636794771848,12.31354632163552,-7.758604968970974
13848,2024 10 17,09:01:55.387,-0.4581,0.377548,0.64352,0.483202,-1.231971,0.959014,0.614277,32.470703,-10.070801,-218.383789,1,0,-0.471860750341354,0.392371570521567,0.6231434649201716,0.4742564539657865,-1.3711629868993362,-0.3265788969314708,-0.0743215083921106,5.465514971429485,8.837960103544374,21.55849588695208,0.6539,0.304446,-0.610479,0.327175,-0.997101,-0.019044,0.06006,8.483887,14.648438,-17.578125,0,0,0.6350912053862472,0.2833050492963813,-0.635389749916602,0.3277462262625322,-1.1073969685349383,-0.0760669140344768,0.077150280663213,8.239243900332555,12.430290905553743,-8.249580970522425
13849,2024 10 17,09:01:55.395,-0.465559,0.389368,0.634351,0.478796,-2.089419,0.215339,-0.210944,-66.955566,-38.94043,-189.941406,0,0,-0.4715456628242863,0.3922213919954886,0.6237038416741629,0.4744834312674972,-1.4070757875543694,-0.2994830020848972,-0.081152632972505,1.8444609228580109,6.449040598367155,10.98350079260447,0.655049,0.305361,-0.608857,0.327047,-1.015656,0.001953,0.046876,8.300781,16.906738,-17.150879,0,0,0.6360890951169349,0.2844078468315621,-0.634063112420772,0.3277112649494056,-1.1028099201081911,-0.072165918332753,0.0756365666300523,8.242320755315927,12.654113260276056,-8.694645871996302
13850,2024 10 17,09:01:55.403,-0.476279,0.398141,0.621583,0.477783,-1.763726,0.179205,-0.10303,-57.556152,-108.459473,-181.213379,0,0,-0.471782329683072,0.3925173723957142,0.6235977995904547,0.4746484097041223,-1.4249082981766508,-0.2755486019806524,-0.0822465013238798,-1.12556972328489,0.703614918448797,1.3736568029742455,0.656112,0.306343,-0.60724,0.327003,-1.029817,-0.013672,0.037111,8.850098,15.075684,-17.089844,0,0,0.6370902403610881,0.285504604489984,-0.6327219567997333,0.3276758517019353,-1.0991602741027815,-0.0692412224161154,0.0737102882985497,8.27270961755013,12.775191797262252,-9.114405778396486
13851,2024 10 17,09:01:55.412,-0.476279,0.398141,0.621583,0.477783,-1.763726,0.179205,-0.10303,-57.556152,-108.459473,-181.213379,0,0,-0.4720071631989183,0.3927985537759285,0.6234970596109319,0.4748051392189162,-1.4418491832678182,-0.2528109218816197,-0.0832856762576858,-3.9470988371206457,-4.754539477473643,-7.755694987174467,0.656112,0.306343,-0.60724,0.327003,-1.029817,-0.013672,0.037111,8.850098,15.075684,-17.089844,0,0,0.6380413283430336,0.2865465242654848,-0.6314478589597466,0.3276422091168385,-1.0956931103976426,-0.0664627612953096,0.0718803238836222,8.301579036672623,12.89021640739914,-9.51317768947666
13852,2024 10 17,09:01:55.420,-0.489037,0.403217,0.606542,0.479964,-1.238807,-0.28077,-0.230964,-60.424805,-158.325195,-152.709961,0,0,-0.4728586550389724,0.393319476087132,0.6226493066303853,0.4750630822579704,-1.4316970741044273,-0.2542088757875387,-0.0906695924448015,-6.770984145264613,-12.433072253599962,-15.003408287815745,0.657222,0.307346,-0.605558,0.326951,-1.073275,-0.002441,0.050783,10.192871,17.76123,-17.51709,0,0,0.6390003619258818,0.2875864980522106,-0.6301533660117592,0.3276076486609966,-1.0945722048777604,-0.0632616732305441,0.0708254576894411,8.39614363483899,13.13376708702918,-9.913373305002828
13853,2024 10 17,09:01:55.428,-0.499036,0.40586,0.595391,0.481404,-1.250038,-0.120609,-0.027345,-38.818359,-111.755371,-99.42627,0,0,-0.4741675222870238,0.3939465022827754,0.6212863912988661,0.4753801281450719,-1.4226141203992058,-0.2475288819981618,-0.0875033628225614,-8.373352888001381,-17.39918719091996,-19.22455137342496,0.658462,0.308393,-0.603666,0.32697,-1.063021,-0.000488,0.042482,10.375977,18.981934,-19.104004,0,0,0.6399734438295877,0.2886268231496,-0.6288289977111712,0.3275757662279467,-1.0929946446338723,-0.0601229895690169,0.069408284804969,8.49513530309704,13.426175432677722,-10.372904839752689
13854,2024 10 17,09:01:55.437,-0.505655,0.406952,0.586396,0.484605,-0.934599,0.033692,0.107913,-49.560547,-101.5625,-58.166504,0,0,-0.4757418961726726,0.3945967771686366,0.6195418717339227,0.4758413717378183,-1.3982133643792454,-0.2334678378982537,-0.0777325446814333,-10.432712593601313,-21.60735283137396,-21.17164900475371,0.659712,0.309624,-0.601766,0.326789,-1.036653,-0.012696,0.067385,10.620117,17.578125,-22.216797,0,0,0.6409603716381082,0.28967668199212,-0.6274758478256125,0.3275364279165494,-1.0901775624021788,-0.057751640090566,0.0693071205647206,8.601384387942188,13.633772911043836,-10.965099447765052
13855,2024 10 17,09:01:55.445,-0.510095,0.407997,0.579113,0.487822,-0.927763,0.069826,-0.279305,-44.921875,-77.758789,-44.494629,0,0,-0.4774595513640389,0.3952667883102048,0.6175204281472265,0.4764404031509274,-1.3746908461602831,-0.218303146003341,-0.0878111674473617,-12.157170713921246,-24.414924639805264,-22.337798004516024,0.661034,0.310992,-0.5999,0.326249,-1.122105,0.009278,0.069338,8.483887,16.174316,-26.123047,0,0,0.6419640530562027,0.290742447892514,-0.6260970554343318,0.3274720565207219,-1.0917739342820698,-0.0544001580860377,0.0693086645364845,8.595509518545079,13.760800065491642,-11.722996825376798
13856,2024 10 17,09:01:55.453,-0.514619,0.408316,0.57263,0.490449,-0.858425,0.074221,-0.023438,-30.090332,-73.974609,-41.320801,0,0,-0.479317523795837,0.3959192488946945,0.6152759067398652,0.477140832993381,-1.348877553852269,-0.2036769387031739,-0.0845925090749936,-13.053828778225183,-26.892908857815,-23.286948154290226,0.662575,0.312543,-0.597889,0.325331,-1.129429,0.003906,0.04883,7.507324,17.456055,-32.287598,0,0,0.6429946004033926,0.2918324754978882,-0.6246866526626152,0.3273650036946858,-1.0936566875679663,-0.0514848501817358,0.0682847313096603,8.541100242617825,13.94556281221706,-12.751226884107956
13857,2024 10 17,09:01:55.462,-0.514619,0.408316,0.57263,0.490449,-0.858425,0.074221,-0.023438,-30.090332,-73.974609,-41.320801,0,0,-0.4810825976060452,0.3965390864499597,0.613143611402872,0.4778062413437119,-1.3243549261596554,-0.1897820417680152,-0.0815347836212439,-13.905653939313924,-29.24699386492425,-24.18864079657571,0.662575,0.312543,-0.597889,0.325331,-1.129429,0.003906,0.04883,7.507324,17.456055,-32.287598,0,0,0.643973620383223,0.2928680017229938,-0.6233467700294845,0.3272633035099515,-1.095445303189568,-0.048715307672649,0.0673119947441773,8.489411430486934,14.121087421606203,-13.72804543990256
13858,2024 10 17,09:01:55.470,-0.517728,0.408633,0.567371,0.493018,-0.997101,0.117191,0.040529,-35.949707,-59.448242,-23.803711,0,0,-0.4829148677257429,0.3971437821274617,0.6108549808327284,0.4785668292765264,-1.3079922298516724,-0.1744333896796145,-0.0754315944401817,-15.007856592348228,-30.75705627167803,-24.169394306746923,0.664377,0.314292,-0.595727,0.323933,-1.132359,0.004395,0.043458,5.249023,17.578125,-38.94043,0,0,0.6449937893640618,0.2939392016368441,-0.6219657815280102,0.3270967883344539,-1.0972909880300896,-0.0460597922890166,0.0661192950069684,8.327392008962587,14.293939300525894,-14.98866466790743
13859,2024 10 17,09:01:55.478,-0.519476,0.408858,0.562677,0.496361,-0.957549,0.126469,-0.033204,-42.358398,-52.67334,-10.864258,0,0,-0.4847429243394557,0.3977294930210886,0.6084460817910919,0.4794565378127,-1.2904700683590888,-0.1593882701956337,-0.0733202147181726,-16.375383662730815,-31.852870458094127,-23.504137491409576,0.66636,0.31634,-0.593492,0.321964,-1.199744,0.015137,0.076174,2.990723,15.197754,-46.936035,0,0,0.6460620998958586,0.2950592415550019,-0.6205420924516096,0.3268401489177311,-1.102413638628585,-0.0429999526745657,0.06662203025662,8.060558558514456,14.3391300354996,-16.586033184512058
13860,2024 10 17,09:01:55.487,-0.52105,0.408815,0.558312,0.499665,-0.823267,0.096683,-0.158696,-36.315918,-50.048828,-9.521484,0,0,-0.4865582781224829,0.3982837683700341,0.6059393777015374,0.480466960922065,-1.2671099149411342,-0.146584706685852,-0.077589003982264,-17.372410379594275,-32.76266833518942,-22.80500481683909,0.668532,0.318813,-0.591237,0.319158,-1.301309,0.010254,0.044435,-0.12207,12.878418,-57.250977,0,0,0.6471855949010656,0.2962469294772518,-0.6190768378290291,0.3264560414718446,-1.1123584066971557,-0.0403372550408374,0.065512678743789,7.651427130588733,14.266094433724618,-18.61928037528645
13861,2024 10 17,09:01:55.495,-0.522215,0.408863,0.555151,0.501927,-0.834986,0.080569,-0.153813,-24.536133,-30.700684,-7.263184,0,0,-0.4883411142163588,0.3988127299515324,0.6033999588164605,0.4815399628759617,-1.2455037191940774,-0.1352270213515594,-0.0814002037831508,-17.73059651061456,-32.65956911842994,-22.02791377599714,0.67114,0.321695,-0.588859,0.315164,-1.376995,-0.013184,0.074221,-7.446289,10.009766,-73.181152,0,0,0.6483833151560123,0.2975193330033892,-0.6175659459375776,0.3258914393982523,-1.1255902363622978,-0.0389795922887956,0.0659480948065995,6.896541324059296,14.053278012038389,-21.34737395652213
13862,2024 10 17,09:01:55.503,-0.522848,0.408944,0.55332,0.503222,-0.859401,0.117191,-0.158696,-12.695313,-17.150879,-4.455566,0,0,-0.4900664585055408,0.3993192934539558,0.6008959608756373,0.4826240647321636,-1.2261985832343736,-0.1226061202839814,-0.0852649935939932,-17.47883233508383,-31.884134612508443,-21.14929638719728,0.67438,0.324943,-0.586028,0.310152,-1.328166,0.030763,0.061037,-9.94873,14.343262,-86.242676,0,0,0.6496831493982116,0.2988905163532196,-0.6159890486406988,0.3251044674283397,-1.1357190245441828,-0.0354924626743558,0.0657025400662695,6.0542777578563305,14.067777211436468,-24.592139058696024
13863,2024 10 17,09:01:55.512,-0.522848,0.408944,0.55332,0.503222,-0.859401,0.117191,-0.158696,-12.695313,-17.150879,-4.455566,0,0,-0.4917055355802637,0.399800528781258,0.5985171628318554,0.4836539614955554,-1.207858704072655,-0.1106162642697824,-0.0889365439142936,-17.239656368329637,-31.14747183188302,-20.31460986783742,0.67438,0.324943,-0.586028,0.310152,-1.328166,0.030763,0.061037,-9.94873,14.343262,-86.242676,0,0,0.650917991928301,0.3001931405355587,-0.6144909962086639,0.3243568440569227,-1.1453413733169735,-0.032179689540638,0.0654692630629561,5.254127369963514,14.081551450864644,-27.674665905761223
13864,2024 10 17,09:01:55.520,-0.523381,0.408973,0.552457,0.503591,-0.926298,0.184576,-0.018555,-3.295898,-6.958008,-5.126953,0,0,-0.4932893088012505,0.4002591523421951,0.5962141546902626,0.4846508134207776,-1.1937806688690222,-0.0958566510562932,-0.0854174667185789,-16.542468449913155,-29.937998640288868,-19.555227024445543,0.677827,0.328911,-0.582819,0.304449,-1.383343,0.110355,0.15186,-8.300781,11.657715,-99.060059,0,0,0.6522634423318859,0.3016290335087807,-0.6129073963982306,0.3233614518540765,-1.157241454651125,-0.0250529550636061,0.0697887999098082,4.576381951465338,13.960359628321411,-31.24393556047316
13865,2024 10 17,09:01:55.528,-0.5239,0.409131,0.551948,0.503482,-0.953642,0.17481,-0.077151,-0.183105,-5.737305,-7.568359,0,0,-0.494819843361188,0.4007027447250854,0.5940008469557495,0.4855923727497386,-1.181773735425571,-0.0823233185034786,-0.08500414338265,-15.724500277417496,-28.727963958274422,-18.95588362322327,0.681338,0.333987,-0.579183,0.297958,-1.431196,0.111332,0.264168,-2.685547,9.460449,-116.333008,0,0,0.6537171702152916,0.3032469318333416,-0.6112211765783191,0.3220912792613727,-1.1709391819185686,-0.0182337073104258,0.0795077599143178,4.213285503892071,13.73536409690534,-35.4983891824495
13866,2024 10 17,09:01:55.537,-0.524713,0.409213,0.551568,0.502985,-0.922391,0.199713,-0.051759,6.164551,-2.868652,-11.047363,0,0,-0.4963145011931286,0.4011282574888311,0.5918792046079621,0.4864620041122517,-1.1688045986542923,-0.0682215025783046,-0.0833418862135175,-14.63004771354662,-27.434998360360705,-18.560457592062104,0.685279,0.340112,-0.574401,0.291171,-1.498581,0.103519,0.050783,6.713867,17.700195,-130.859375,0,0,0.655295261704527,0.3050901852416746,-0.6093801677494031,0.320545265298304,-1.18732127282264,-0.0121460719449045,0.0780715219186019,4.338314578697467,13.933605642060074,-40.26643847332702
13867,2024 10 17,09:01:55.545,-0.52554,0.409455,0.551465,0.502037,-0.9429,0.199713,-0.061037,8.789063,0.305176,-13.549805,0,0,-0.4977757761334721,0.4015445946143895,0.5898584943775639,0.487240753906639,-1.1575093687215778,-0.0548247774493894,-0.0822266419028416,-13.45909217786929,-26.047989642342667,-18.309924962459,0.689371,0.347437,-0.568904,0.283556,-1.633351,0.110843,0.088382,10.742188,16.662598,-149.902344,0,0,0.6569990486193007,0.3072075259795909,-0.6073563593619329,0.3186958020333889,-1.209622759181508,-0.0059966183476593,0.0785870458226718,4.658508249762594,14.07005525995707,-45.74823374966067
13868,2024 10 17,09:01:55.553,-0.526419,0.409847,0.551434,0.500829,-0.961455,0.174322,-0.052736,8.544922,2.868652,-15.869141,0,0,-0.4992079373267985,0.40195971488367,0.5879372696586856,0.4879201662113071,-1.147706650285499,-0.0433674385769199,-0.0807521098076995,-12.358891468975823,-24.60215756022553,-18.18788576433605,0.694223,0.35575,-0.562205,0.274631,-1.815485,0.131352,0.044435,9.521484,25.146484,-176.269531,0,0,0.6588602461883356,0.3096346496806113,-0.6050987913938363,0.3164925619317194,-1.2399158712224323,0.0008708125697236,0.0768794435315382,4.901657037274465,14.623876696959217,-52.27429861217763
13869,2024 10 17,09:01:55.562,-0.526419,0.409847,0.551434,0.500829,-0.961455,0.174322,-0.052736,8.544922,2.868652,-15.869141,0,0,-0.5005684904604586,0.4023540791394864,0.5861121061757513,0.4885656079007417,-1.138394067771224,-0.0324829666480739,-0.0793513043173145,-11.313700795527032,-23.228617082214253,-18.071948526119247,0.699922,0.365136,-0.554326,0.263642,-1.86578,0.181646,-0.06885,3.479004,24.353027,-209.04541,0,0,0.6609133338789188,0.3124097171965808,-0.6025601518241445,0.3138500338351334,-1.2712090776613107,0.0099095719412374,0.0695929713549613,4.830524385410741,15.110334212111256,-60.11285418156875
13870,2024 10 17,09:01:55.570,-0.52731,0.410307,0.551361,0.499592,-0.936064,0.189459,-0.069826,8.422852,2.258301,-15.991211,0,0,-0.5019055659374356,0.4027517251825121,0.5843745508669637,0.4891169275057047,-1.1282775643826626,-0.0213858683156702,-0.0788750391014488,-10.326873155750684,-21.95427117810354,-17.96791164981328,0.699922,0.365136,-0.554326,0.263642,-1.86578,0.181646,-0.06885,3.479004,24.353027,-209.04541,0,0,0.6628637671849729,0.3150460313367517,-0.6001484442329372,0.3113396321433767,-1.300937623778245,0.0184963933441756,0.0626708227872132,4.762948366140204,15.572468851505691,-67.55948197249032
13871,2024 10 17,09:01:55.578,-0.528044,0.410822,0.551314,0.498446,-0.963897,0.179205,-0.037111,7.629395,3.967285,-14.831543,0,0,-0.5032124876405638,0.4031552389233864,0.5827215233236155,0.4895833811304194,-1.1200585361635294,-0.0113563248998867,-0.0767868371463763,-9.429059747963148,-20.65819336919836,-17.811093217322618,0.705989,0.376053,-0.545696,0.249758,-2.14069,0.276376,-0.037111,-2.441406,17.700195,-248.962402,0,0,0.6650200288257242,0.3180963797699141,-0.5974258220212904,0.3082605505362078,-1.3429252425893328,0.0313903736769668,0.0576817316478525,4.402730647833194,15.678855158930409,-76.6296279738658
13872,2024 10 17,09:01:55.587,-0.528831,0.411276,0.551246,0.49731,-0.974639,0.183599,-0.041993,7.446289,1.831055,-15.197754,0,0,-0.5044934132585356,0.4035612769772171,0.5811477471574348,0.4899697120738984,-1.112787559355353,-0.0016085586548924,-0.0750471452890575,-8.585292310564991,-19.53373095073844,-17.680426256456485,0.713198,0.388328,-0.534916,0.233268,-2.408277,0.445326,-0.008789,-4.699707,30.273438,-294.372559,0,0,0.6674289273844379,0.3216079607814184,-0.5943003309202258,0.3045109230093974,-1.396192830459866,0.0520871549931184,0.0543581950654599,3.9476087654415344,16.408584300983886,-87.5167745251725
13873,2024 10 17,09:01:55.595,-0.529706,0.411686,0.551032,0.496275,-0.966338,0.187506,-0.054201,7.080078,0.183105,-15.319824,0,0,-0.5057540425956087,0.4039675131283562,0.579641959799563,0.4902849764702035,-1.1054650813875853,0.0078471692778522,-0.0740048380246046,-7.802023795036741,-18.54788915320152,-17.56239614363366,0.721387,0.402628,-0.521302,0.213858,-2.815027,0.675802,0.206549,0.366211,43.762207,-349.914551,0,0,0.670126831015216,0.3256589627423475,-0.5906504143742145,0.2999782768589275,-1.4671345389368726,0.0832728972434625,0.0619677353121869,3.7685388771694575,17.77626543593469,-100.63666334891386
13874,2024 10 17,09:01:55.603,-0.530608,0.412097,0.550691,0.495349,-0.977569,0.170904,-0.017579,5.249023,-1.647949,-15.441895,0,0,-0.5069967404658282,0.4043739874719383,0.5781944118095849,0.4905381776466933,-1.099070277318206,0.0160000108139595,-0.0711835461233744,-7.149471455284903,-17.70289214554144,-17.456371086451977,0.73079,0.41921,-0.503472,0.191638,-3.066988,0.711447,0.04883,5.79834,64.880371,-414.245605,0,0,0.6731599894644551,0.3303365146052301,-0.5862914936555038,0.2945612630159811,-1.547127211990029,0.1146816023812894,0.0613108485465776,3.870028933310985,20.131470714137954,-116.31711043146817
13875,2024 10 17,09:01:55.612,-0.530608,0.412097,0.550691,0.495349,-0.977569,0.170904,-0.017579,5.249023,-1.647949,-15.441895,0,0,-0.5081773034425368,0.4047601380983414,0.5768192412191057,0.4907787187643587,-1.0929952134522956,0.0237452102732616,-0.0685033188172057,-6.529546732520657,-16.900144988264366,-17.35564728212938,0.740834,0.437913,-0.481473,0.166072,-3.234474,0.59328,0.183599,11.962891,87.402344,-476.013184,0,0,0.6765436899912323,0.3357153388749685,-0.5810505689727286,0.2881367998651821,-1.6314945513905277,0.1386115222622249,0.0674252561192487,4.274672036645435,23.49501437843105,-134.30191410989477
13876,2024 10 17,09:01:55.620,-0.531603,0.412442,0.550221,0.494516,-0.941435,0.170904,-0.063967,4.821777,-3.90625,-15.319824,0,0,-0.5093485882704099,0.4051442311934243,0.5754893291581503,0.4909655828261408,-1.085417202779681,0.0311031497595985,-0.0682765028763454,-5.961980545894624,-16.250450238851148,-17.253856118022906,0.740834,0.437913,-0.481473,0.166072,-3.234474,0.59328,0.183599,11.962891,87.402344,-476.013184,0,0,0.6797582054916705,0.3408252219312201,-0.5760716905240921,0.282033559871923,-1.711643523821001,0.1613449461491136,0.0732339433132863,4.659082984813163,26.6903808595095,-151.38747760440003
13877,2024 10 17,09:01:55.628,-0.532554,0.412783,0.549692,0.493796,-0.933134,0.167974,-0.059084,3.601074,-3.417969,-14.648438,0,0,-0.5105088588568893,0.405526169633753,0.5741994627002428,0.4911071036848337,-1.0778030426406966,0.0379466922716186,-0.0678168777325281,-5.4838278185998925,-15.608826176908588,-17.123585212121757,0.750947,0.458438,-0.454874,0.137854,-3.405377,0.328135,0.415052,23.31543,108.337402,-529.846191,0,0,0.6833176452170869,0.3467058608346591,-0.5700118059978875,0.2748245818783268,-1.796330197629951,0.1696844488416579,0.0903248461476219,5.591900335572505,30.772731916534024,-170.31041327418
13878,2024 10 17,09:01:55.637,-0.533394,0.413168,0.549188,0.493129,-0.941923,0.165532,-0.045412,2.807617,-2.868652,-13.85498,0,0,-0.5116531159140448,0.4059082611520654,0.5729488895652307,0.491208198500592,-1.0710090405086616,0.0443259576580376,-0.0666966338459017,-5.069255577669898,-14.971817468063158,-16.96015495151567,0.759922,0.480451,-0.424279,0.108035,-3.546007,0.063478,0.061037,38.391113,123.413086,-566.650391,0,0,0.6871478629562325,0.3533931177929261,-0.5627251656979931,0.2664851027844104,-1.8838140377484531,0.164374126399575,0.0888604538402408,7.23186096879388,35.40474962070732,-190.127412160471
13879,2024 10 17,09:01:55.645,-0.534194,0.413578,0.548661,0.492506,-0.942412,0.159673,-0.043947,2.075195,-3.112793,-13.85498,0,0,-0.5127801601183425,0.4062917480944621,0.5717344950869692,0.4912730885755624,-1.0645791884832283,0.0500933097751358,-0.0655591521536066,-4.712033048786402,-14.37886624466,-16.804896203939883,0.767189,0.502176,-0.391452,0.077497,-3.556749,-0.011231,0.100101,41.381836,132.446289,-574.34082,0,1,0.6911499198084209,0.3608322619032798,-0.5541615074130936,0.2570356976451899,-1.9674607858610305,0.1555938700795963,0.0894224811482288,8.939359720354187,40.25682658967196,-209.33808255244745
13880,2024 10 17,09:01:55.653,-0.535015,0.413985,0.548078,0.49192,-0.930692,0.163091,-0.061037,1.220703,-3.540039,-13.977051,0,0,-0.5138919021124253,0.406676410689739,0.5705516703326207,0.4913054341467843,-1.057884829059067,0.055743194286379,-0.0653330445459263,-4.415396246347082,-13.836924882427,-16.66350394374289,0.774293,0.520886,-0.35623,0.047417,-3.096774,0.514176,-0.353038,13.85498,157.897949,-570.129395,0,0,0.6953070738179997,0.3688349488081158,-0.5442649320424389,0.2465547627629304,-2.023926446567979,0.1735229765756165,0.0672994570908173,9.185140734336478,46.13888271018836,-227.37764817482508
13881,2024 10 17,09:01:55.662,-0.535746,0.414526,0.54755,0.491258,-0.933134,0.170415,-0.06299,1.098633,-0.854492,-14.648438,0,0,-0.514984607006804,0.407068890155252,0.5694015868159896,0.491303062439445,-1.0516472876061136,0.06147678457206,-0.0652158923186299,-4.139694784029727,-13.187803238305648,-16.56275064655574,0.779852,0.537407,-0.320502,0.017405,-3.137791,1.066927,-0.141118,9.399414,159.545898,-566.28418,0,0,0.6995343201270997,0.37726355136771,-0.5330767854403169,0.2350972746247838,-2.07961967423958,0.2181931777468356,0.0568785842362764,9.195854397619652,51.80923347467895,-244.32297476608383
13882,2024 10 17,09:01:55.670,-0.535746,0.414526,0.54755,0.491258,-0.933134,0.170415,-0.06299,1.098633,-0.854492,-14.648438,0,0,-0.5160226766564638,0.4074417456474895,0.5683090074751902,0.4913008093174728,-1.045721623225808,0.066923695343457,-0.0651045977026984,-3.877778394828241,-12.571137676390364,-16.467035014227953,0.779852,0.537407,-0.320502,0.017405,-3.137791,1.066927,-0.141118,9.399414,159.545898,-566.28418,0,0,0.7035502041207448,0.3852707237993245,-0.522448046168301,0.2242126608935446,-2.1325282405276007,0.2606298688594938,0.0469787550244626,9.20603237773867,57.196066700945,-260.4210350277796
13883,2024 10 17,09:01:55.678,-0.536407,0.41517,0.546949,0.49066,-0.921415,0.170904,-0.066408,-0.671387,-1.281738,-14.770508,0,0,-0.5170418928236407,0.407828158365115,0.5672410071014307,0.4912687688515991,-1.0395062920645175,0.0721227105762842,-0.0651697678175635,-3.717458825086828,-12.006667692570844,-16.382208663516554,0.783657,0.552742,-0.28322,-0.011989,-1.77691,1.401898,-1.102573,12.390137,165.527344,-561.279297,0,0,0.7075555439147074,0.3936442876093582,-0.510486643859886,0.2124025778488674,-2.114747328501221,0.3176932754165191,-0.0104988327267604,9.365237608851736,62.61263056589775,-275.4639481263906
13884,2024 10 17,09:01:55.687,-0.536909,0.416006,0.546365,0.490054,-0.931181,0.155766,-0.070803,-2.746582,1.953125,-15.075684,0,0,-0.5180352481824586,0.4082370504468592,0.5661972067463591,0.4912080304090191,-1.0340900274612916,0.0763048750474699,-0.0654514294266853,-3.668914983832487,-11.308678057942302,-16.316882430340726,0.78396,0.566428,-0.250729,-0.041242,-2.182195,0.997101,-0.913602,15.869141,93.933105,-514.831543,0,0,0.711375766718972,0.4022834732288903,-0.4974987616668916,0.199720348956424,-2.11811971207616,0.3516636616456932,-0.0556539910904224,9.69043277840915,64.17865428760285,-287.4323278700711
13885,2024 10 17,09:01:55.695,-0.537305,0.416958,0.545792,0.48945,-0.928251,0.155766,-0.077639,-3.78418,2.380371,-15.075684,0,0,-0.5189987357733357,0.4086730979245162,0.5651769464090411,0.4911201288885681,-1.0287980760882272,0.0802779312950964,-0.0660608079553511,-3.6746782346408624,-10.624225605045186,-16.25482250882369,0.78313,0.576194,-0.222131,-0.073254,-0.946318,1.431684,-1.568407,-27.893066,46.020508,-514.221191,0,0,0.7149634783830233,0.4109789995674457,-0.483730373583547,0.1860716315086028,-2.059529626472352,0.4056646785634085,-0.1312916415359013,7.811257839488691,63.27074697322271,-298.77177102656754
13886,2024 10 17,09:01:55.703,-0.537614,0.418022,0.545193,0.488869,-0.940947,0.146001,-0.064455,-5.310059,3.723145,-15.197754,0,0,-0.5199294989846689,0.4091405430282904,0.5641777490885891,0.4910075724441397,-1.0244055222838158,0.0835640847303416,-0.0659805175575835,-3.756447272908819,-9.906857074792926,-16.201969083382505,0.784451,0.579177,-0.196856,-0.102171,2.277902,1.462935,-2.500076,-100.463867,50.415039,-387.878418,0,0,0.7184378544638721,0.4193888995890734,-0.4693866549043696,0.1716594999331726,-1.8426580451487344,0.4585281946352381,-0.2497308594591062,2.397501597514257,62.62796157456157,-303.22710337523915
13887,2024 10 17,09:01:55.712,-0.53791,0.419099,0.544581,0.488303,-0.938505,0.138188,-0.049806,-5.065918,2.868652,-15.075684,0,0,-0.5208285240354354,0.4096384658768758,0.5631979116341596,0.4908723438219327,-1.0201104961696248,0.0862952804938245,-0.0651717916797043,-3.821920809263378,-9.26808162105328,-16.145654829213377,0.786644,0.576078,-0.188119,-0.11805,1.185095,0.813013,-0.133305,-97.717285,-73.669434,-104.431152,0,0,0.7218481617406785,0.4272233546096197,-0.4553232721591511,0.157174024936514,-1.691270392891297,0.4762524349034762,-0.2439095664861509,-2.608237732361457,55.813091795833486,-293.28730580647715
13888,2024 10 17,09:01:55.720,-0.53791,0.419099,0.544581,0.488303,-0.938505,0.138188,-0.049806,-5.065918,2.868652,-15.075684,0,0,-0.5216825978336637,0.410111492583032,0.5622670660524516,0.4907438766308361,-1.0160302213611434,0.0888899164691333,-0.0644035020957191,-3.884120668800209,-8.661244940000614,-16.092156287752708,0.786644,0.576078,-0.188119,-0.11805,1.185095,0.813013,-0.133305,-97.717285,-73.669434,-104.431152,0,0,0.7250879536536445,0.4346660868791387,-0.4419630585511935,0.1434128236896883,-1.5474521232467324,0.4930904631583023,-0.2383793381618434,-7.363690095743385,49.33896550604181,-283.84449811615326
13889,2024 10 17,09:01:55.728,-0.538235,0.420108,0.543973,0.487757,-0.944365,0.133793,-0.04297,-4.150391,2.746582,-14.526367,0,0,-0.5225102179419805,0.4106113179538804,0.5613523627498289,0.4905945327992942,-1.012446960293086,0.0911350706456766,-0.0633318269909331,-3.897434185360198,-8.090853593000583,-16.013866823365074,0.793769,0.564063,-0.194807,-0.11753,-0.318857,1.875057,-0.731468,-132.263184,-32.714844,148.193359,0,0,0.7285220059709623,0.4411359325351818,-0.4296052556236338,0.1303656825052038,-1.4860223670843955,0.5621887900003872,-0.2630337712537512,-13.608664790956215,45.23627503073971,-262.2426052603456
13890,2024 10 17,09:01:55.737,-0.538621,0.421046,0.543393,0.487167,-0.953642,0.148442,-0.049318,-3.540039,1.831055,-14.892578,0,0,-0.5233157570448814,0.4111330520561864,0.5604543946123375,0.4904231561593295,-1.0095067122784318,0.0940004171133928,-0.0626311356413865,-3.879564426092188,-7.594758163350553,-15.95780238219682,0.800851,0.551604,-0.209592,-0.102185,-0.871609,1.692434,0.063967,-96.862793,-44.189453,300.170898,0,0,0.7321384556724142,0.4466593359084226,-0.4186045928424521,0.1187381483799436,-1.455301698730176,0.6187010505003678,-0.2466837326910636,-17.771371201408403,40.76498862920272,-234.12193009732832
13891,2024 10 17,09:01:55.745,-0.539057,0.421945,0.542724,0.486652,-0.955596,0.136235,-0.064455,-3.967285,0.549316,-14.770508,0,0,-0.5241028191926373,0.4116736494533771,0.5595678748817206,0.490234598351363,-1.0068111766645105,0.0961121462577231,-0.0627223288593172,-3.8839504547875774,-7.187554455183025,-15.89843766308698,0.806698,0.540402,-0.226154,-0.077838,-1.126011,1.07474,-0.195318,-53.771973,24.353027,364.624023,0,0,0.7358664328887934,0.4513464691130015,-0.4089820632003295,0.1089093409609464,-1.438837163793667,0.6415029979753495,-0.2441154460565104,-19.57140129133798,39.94439054774258,-204.1846324424619
13892,2024 10 17,09:01:55.753,-0.539595,0.422739,0.54198,0.486196,-0.944853,0.121586,-0.063478,-3.662109,-1.831055,-14.648438,0,0,-0.5248774282330054,0.4122269169807082,0.5586884811376345,0.4900326684337948,-1.0037132678312848,0.097385838944837,-0.0627601124163513,-3.872858382048199,-6.9197294824238735,-15.835937679932629,0.811079,0.530171,-0.241653,-0.051696,-0.943876,0.714377,-0.384777,-32.958984,16.906738,357.055664,0,0,0.7396270612443536,0.4552876956573514,-0.400615610040313,0.1008790739128991,-1.4140891056039837,0.645146698076582,-0.2511485237536849,-20.24078042677108,38.79250792035545,-176.1226176203388
13893,2024 10 17,09:01:55.762,-0.540237,0.423459,0.541266,0.485651,-0.948759,0.123051,-0.064455,-2.075195,-1.403809,-15.197754,0,0,-0.5256454068213551,0.4127885211316728,0.5578173570807528,0.4898135850121051,-1.0009655544397205,0.0986690969975951,-0.0628448567955337,-3.782975212945789,-6.64393345830268,-15.804028495935995,0.81381,0.520693,-0.256564,-0.0277,-0.662618,0.420911,-0.596698,-29.47998,10.559082,328.796387,0,0,0.7433362081821359,0.4585579608744838,-0.3934130295382973,0.0944501202172541,-1.3765155503237845,0.6339349131727529,-0.2684259975660006,-20.702740405432525,37.38083662433768,-150.87666738932185
13894,2024 10 17,09:01:55.770,-0.540237,0.423459,0.541266,0.485651,-0.948759,0.123051,-0.064455,-2.075195,-1.403809,-15.197754,0,0,-0.5263749864802872,0.4133220450750892,0.556989789226715,0.4896054557614998,-0.9983552267177344,0.0998881921477153,-0.062925363955757,-3.6975862022985,-6.381927235387546,-15.773714771139195,0.81381,0.520693,-0.256564,-0.0277,-0.662618,0.420911,-0.596698,-29.47998,10.559082,328.796387,0,0,0.746859897773029,0.4616647128307596,-0.3865705780613824,0.0883426142063914,-1.340820672807595,0.6232837175141152,-0.2848395976877005,-21.141602385160898,36.0397488931208,-126.89301466985576
13895,2024 10 17,09:01:55.778,-0.54094,0.424129,0.54056,0.48507,-0.945341,0.118656,-0.050295,-0.671387,-2.319336,-15.563965,0,0,-0.5271032371562729,0.4138623928213347,0.5561682997653793,0.4893786829734248,-0.9957045153818476,0.1008265825403296,-0.0622938457579692,-3.5462762421835743,-6.178797673618169,-15.763227282582235,0.815186,0.511415,-0.271814,-0.006646,-0.584002,0.290048,-0.696799,-32.592773,-21.54541,307.006836,0,0,0.7502762028843775,0.4641522271892216,-0.3808327491583133,0.0835931834960719,-1.302979739167215,0.6066219316384094,-0.3054375678033155,-21.71416091590285,33.160490948464755,-105.19802213636297
13896,2024 10 17,09:01:55.787,-0.541768,0.42473,0.539868,0.48439,-0.955596,0.123051,-0.059572,0.732422,-2.746582,-16.235352,0,0,-0.5278364752984592,0.4144057731802679,0.5553532847771103,0.4891292488247535,-0.9936990896127552,0.1019378034133131,-0.0621577534700707,-3.332341330074396,-6.00718688993726,-15.786833518453122,0.815694,0.501437,-0.288176,0.012617,-0.475112,0.341807,-0.712424,-39.550781,-41.564941,304.077148,0,0,0.7535470927401585,0.4660164658297605,-0.3761999117003976,0.0800443743212683,-1.2615863522088546,0.593381185056489,-0.3257868894131497,-22.60599192010771,29.424219351041515,-84.73426362954481
13897,2024 10 17,09:01:55.795,-0.542655,0.42538,0.53918,0.483593,-0.951201,0.124516,-0.064455,2.01416,-1.708984,-18.371582,0,0,-0.5285774015335363,0.4149544845212545,0.5545446205382547,0.4888524363835158,-0.9915741851321176,0.1030667132426474,-0.0622726157965672,-3.0650162635706755,-5.792276745440397,-15.916070942530466,0.815299,0.490359,-0.306365,0.031252,-0.524918,0.448744,-0.508316,-45.898438,-65.551758,316.223145,0,0,0.7566346881031506,0.4672335925382725,-0.3727081661153777,0.0776047556052048,-1.2247529345984118,0.5861493258036645,-0.3349133449424922,-23.77061422410232,24.67542048348944,-64.68639319806758
13898,2024 10 17,09:01:55.803,-0.543619,0.426107,0.538499,0.482628,-0.977569,0.138188,-0.057131,3.051758,-1.159668,-20.080566,0,0,-0.5293294814568594,0.4155121102951917,0.5537423395113419,0.48854121456434,-0.9908739258755116,0.1048227775805151,-0.0620155350067388,-2.759177550392142,-5.560646308168377,-16.12429569540394,0.813974,0.478019,-0.326161,0.050615,-0.648457,0.50148,-0.47853,-48.76709,-76.35498,338.317871,0,0,0.759501653697993,0.4677728629113589,-0.3703808078096088,0.0762552678249446,-1.195938137868491,0.5819158595134813,-0.3420941776953676,-25.0204380128972,19.623900459314964,-44.53617998816419
13899,2024 10 17,09:01:55.812,-0.544749,0.426903,0.537721,0.481517,-0.970733,0.127445,-0.096683,3.234863,-2.197266,-23.254395,0,0,-0.5301004573840165,0.4160816547804321,0.5529412725357747,0.488190003836123,-0.989866879581736,0.1059538887014893,-0.0637489082564019,-2.459475522872535,-5.392477292759958,-16.480800660633744,0.811541,0.464451,-0.347269,0.071352,-0.751488,0.468276,-0.432142,-49.01123,-83.679199,363.098145,0,0,0.7621036210130934,0.4676067697657909,-0.3692252174191284,0.0760101044336973,-1.1737156309750665,0.5762338665378073,-0.3465965688105992,-26.21997761225234,14.458745486349214,-24.15446373875598
13900,2024 10 17,09:01:55.820,-0.544749,0.426903,0.537721,0.481517,-0.970733,0.127445,-0.096683,3.234863,-2.197266,-23.254395,0,0,-0.5308328845148156,0.4166227220414105,0.5521802589089859,0.4878563536443168,-0.988910185602649,0.1070284442664148,-0.0653956128435818,-2.1747585967289083,-5.23271672812196,-16.819480377602055,0.811541,0.464451,-0.347269,0.071352,-0.751488,0.468276,-0.432142,-49.01123,-83.679199,363.098145,0,0,0.7645754899624386,0.4674489812775013,-0.3681274065481719,0.0757771992120125,-1.1526042494263131,0.570835973210917,-0.3508738403700692,-27.35954023163972,9.551848262031752,-4.791833301818176
13901,2024 10 17,09:01:55.828,-0.546008,0.427833,0.536965,0.480107,-0.970244,0.133305,-0.077151,5.310059,0.854492,-26.306152,0,0,-0.5315916402890748,0.4171832359393399,0.5514194959635366,0.487468885962101,-0.9879768763225164,0.1083422720530941,-0.0659833822014027,-1.8005177168924624,-4.928356291715862,-17.29381395872195,0.807886,0.449611,-0.36947,0.093071,-0.809107,0.380383,-0.417005,-52.429199,-93.62793,381.896973,0,0,0.7667410154643166,0.4665570822136262,-0.3681945362207633,0.0766418892514119,-1.1354293869549974,0.5613133245503711,-0.3541803983515658,-28.61302317005773,4.392859348930164,14.542607013272733
13902,2024 10 17,09:01:55.837,-0.547287,0.429007,0.536302,0.47834,-0.975127,0.150395,-0.099612,6.774902,4.211426,-30.273438,0,0,-0.5323764082746211,0.4177744241423729,0.5506636211653597,0.4870124416639959,-0.9873343825063906,0.1104449084504394,-0.0676648130913325,-1.371746731047839,-4.471367177130069,-17.942795160785852,0.802837,0.433598,-0.392789,0.114726,-0.892605,0.271493,-0.397473,-58.044434,-110.107422,391.723633,0,0,0.7685458146911007,0.4649091281029449,-0.3694242594097251,0.0785460947888413,-1.1232881676072477,0.5468223083228525,-0.3563450284339875,-30.084593711554845,-1.3321547185163451,33.401658312609094
13903,2024 10 17,09:01:55.845,-0.548598,0.430543,0.535674,0.476159,-0.996612,0.130863,-0.054201,7.324219,8.789063,-35.27832,0,0,-0.53318748786089,0.4184128529352542,0.5499141401070917,0.4864697695807961,-0.9877982633810712,0.1114658130279174,-0.0669916224367659,-0.9369484444954472,-3.808345668273565,-18.80957140274656,0.796363,0.416467,-0.417148,0.135458,-0.980987,0.198248,-0.431166,-67.565918,-129.882813,393.371582,0,0,0.7699366739565456,0.4624870216977977,-0.3718104464392389,0.0813916900493992,-1.116173109226885,0.5293935929067098,-0.3600860770122881,-31.958659925977106,-7.759687632590528,51.40015449697864
13904,2024 10 17,09:01:55.853,-0.550101,0.43239,0.535114,0.473372,-1.064974,0.135746,-0.08301,10.681152,11.413574,-42.114258,0,0,-0.5340331634678455,0.4191117102884915,0.5491741331017371,0.4858148811017563,-0.9916570502120176,0.1126798223765215,-0.0677925413149276,-0.3560434222706746,-3.047249684859886,-19.974805732609227,0.788365,0.398455,-0.442578,0.154397,-1.127964,0.146001,-0.386731,-79.406738,-154.663086,387.207031,0,0,0.7708580902587183,0.4592854206129078,-0.3753488241172769,0.0850419555469292,-1.1167626537655406,0.5102239632613743,-0.3614183231616737,-34.33106382967825,-15.104857550961,68.19049832212971
13905,2024 10 17,09:01:55.862,-0.552234,0.434263,0.534201,0.470194,-1.064974,0.133305,-0.023438,13.671875,5.615234,-49.987793,0,0,-0.5349432052944532,0.4198692747740669,0.5484254764466503,0.4850338370466684,-0.9953228977014168,0.1137110812576954,-0.0655748142491812,0.3453524988428591,-2.6141255006168915,-21.475455095978766,0.779004,0.379693,-0.468704,0.171181,-1.245643,0.165532,-0.322764,-91.491699,-175.415039,376.281738,0,0,0.7712653857457824,0.4553057995822623,-0.380016582911413,0.0893489077695827,-1.1232066710772637,0.4929893650983056,-0.35948560700359,-37.18909558819434,-23.12036662341295,83.59506030602323
13906,2024 10 17,09:01:55.870,-0.552234,0.434263,0.534201,0.470194,-1.064974,0.133305,-0.023438,13.671875,5.615234,-49.987793,0,0,-0.5358077450297305,0.4205889610353636,0.5477142526243178,0.484291845194335,-0.9988054528163458,0.1146907771948107,-0.0634679735367222,1.0116786239007165,-2.202657525586047,-22.90107199117983,0.779004,0.379693,-0.468704,0.171181,-1.245643,0.165532,-0.322764,-91.491699,-175.415039,376.281738,0,0,0.7716523164584933,0.4515251596031492,-0.3844509537658424,0.0934405123811036,-1.1293284875234002,0.4766164968433903,-0.3576495266534105,-39.90422575878463,-30.7351002422423,98.22939419072208
13907,2024 10 17,09:01:55.878,-0.554745,0.436371,0.533059,0.466568,-1.090365,0.139653,-0.0459,15.563965,7.141113,-57.434082,0,0,-0.536754607778244,0.4213780629835953,0.5469814899931019,0.4834056529346182,-1.0033834301755284,0.1159388883350701,-0.062589574859886,1.7392929427056805,-1.7354689993067445,-24.62772249162084,0.768208,0.360545,-0.495271,0.185932,-1.417035,0.208014,-0.187994,-99.304199,-194.763184,364.990234,0,0,0.7714801006355686,0.4469761516229917,-0.3899919560775503,0.0980650867620484,-1.1437138131472302,0.4631863720012207,-0.3491667503207399,-42.874224420845394,-38.936504430130185,111.56743618118595
13908,2024 10 17,09:01:55.887,-0.557551,0.438735,0.531487,0.462785,-1.16654,0.156743,-0.024415,12.939453,3.417969,-63.720703,0,0,-0.5377944273893318,0.4222459098344155,0.5462067654934468,0.4823746202878873,-1.011541258666752,0.1179790939183166,-0.0606808461168917,2.2993009455703963,-1.4777970993414071,-26.5823715170398,0.756158,0.34112,-0.52169,0.199253,-1.577197,0.256355,-0.089358,-102.600098,-203.918457,356.750488,0,0,0.7707139956037902,0.4416833440418421,-0.3965768582736727,0.103124482423946,-1.1653879724898686,0.4528448034011597,-0.3361763128047029,-45.86051809980312,-47.18560205862368,123.82658877212668
13909,2024 10 17,09:01:55.895,-0.560802,0.441415,0.529223,0.458886,-1.239784,0.182623,-0.051759,10.253906,-2.01416,-73.242188,0,0,-0.5389448060198652,0.4232043643426948,0.5453575772187745,0.4812001892734929,-1.0229533957334145,0.1212112892224008,-0.0602347538110471,2.697031198291876,-1.504615244374337,-28.91536234118781,0.742817,0.321607,-0.547608,0.211936,-1.697806,0.342784,0.117679,-98.571777,-209.594727,354.309082,0,0,0.7693191458236006,0.43567952683975,-0.4041284153599891,0.1085650583027487,-1.1920088738653751,0.4473417632311017,-0.3134835471644677,-48.49608104481297,-55.306058305692495,135.35071343352033
13910,2024 10 17,09:01:55.903,-0.564682,0.4445,0.526145,0.45467,-1.285684,0.211432,-0.046876,8.056641,-6.713867,-86.364746,0,0,-0.5402316657188719,0.42426914612556,0.5443969483578358,0.4798736798098183,-1.0360899259467438,0.1257223247612807,-0.0595668161204948,2.9650116883772824,-1.7650778321556202,-31.787831524128418,0.728109,0.302208,-0.57269,0.22484,-1.838435,0.500015,0.249031,-86.608887,-210.327148,356.384277,0,0,0.7672586385324205,0.4290059504977625,-0.4125564945919896,0.1143788053876112,-1.2243301801721065,0.4499754250695467,-0.2853578198062443,-50.40172134257232,-63.05711279040787,146.4023916118443
13911,2024 10 17,09:01:55.912,-0.5692,0.448223,0.522189,0.449918,-1.327189,0.215827,-0.040529,5.79834,-10.070801,-102.233887,0,0,-0.5416800824329283,0.425466838819282,0.5432865509399439,0.4783758958193274,-1.0506448796494066,0.1302275585232167,-0.05861492531447,3.106678103958418,-2.180363990547839,-35.31013429792199,0.711929,0.283493,-0.59652,0.238647,-2.002014,0.585955,0.324229,-64.575195,-208.92334,357.849121,0,0,0.7644921566057994,0.4217303029728744,-0.4217546698623901,0.1205922151182307,-1.2632143711635009,0.4567744038160693,-0.2548784788159321,-51.1103950254437,-70.35042415088748,156.97472808125207
13912,2024 10 17,09:01:55.920,-0.5692,0.448223,0.522189,0.449918,-1.327189,0.215827,-0.040529,5.79834,-10.070801,-102.233887,0,0,-0.5430560783112819,0.4266046468783179,0.5422316733929466,0.476953001028361,-1.0644720856669363,0.1345075305970558,-0.0577106290487465,3.2412611987604967,-2.574885841020447,-38.65632193302589,0.711929,0.283493,-0.59652,0.238647,-2.002014,0.585955,0.324229,-64.575195,-208.92334,357.849121,0,0,0.7618639987755094,0.4148184378242306,-0.4304929363692706,0.1264949543623192,-1.300154352605326,0.4632334336252658,-0.2259231048751355,-51.78363502417152,-77.2790699433431,167.01844772718945
13913,2024 10 17,09:01:55.928,-0.574528,0.45254,0.51712,0.444648,-1.333048,0.225593,-0.003906,3.417969,-18.188477,-119.07959,0,0,-0.5446296743957179,0.427901414534402,0.5409760897232992,0.4753377509769429,-1.0779008813835893,0.139061804067203,-0.0550203975963092,3.250096588822472,-3.3555653989694245,-42.6774853363746,0.694234,0.26609,-0.618948,0.253258,-2.156316,0.521012,0.375988,-38.696289,-210.449219,354.187012,0,0,0.7584824988367339,0.4073820159330191,-0.439915689550807,0.1328331066442032,-1.3429624349750595,0.4661223619440025,-0.1958275496313787,-51.129267722962936,-83.93757739617594,176.37687594082996
13914,2024 10 17,09:01:55.937,-0.580332,0.45763,0.511072,0.438858,-1.304239,0.242683,-0.052736,-0.671387,-17.700195,-135.009766,0,0,-0.5464147906759319,0.4293878438076818,0.5394808852371342,0.4735137634280957,-1.0892177873144098,0.1442428638638429,-0.0549061777164937,3.054022409381348,-4.072796879020953,-47.29409936955587,0.674953,0.250148,-0.640178,0.268398,-2.296945,0.374035,0.33253,-16.906738,-215.637207,350.402832,0,0,0.7543060238948972,0.3995203151363681,-0.4499288050732667,0.139611351311993,-1.3906615632263064,0.4615179938468024,-0.1694096721498098,-49.41814123681478,-90.52255887636714,185.07817374378843
13915,2024 10 17,09:01:55.945,-0.586494,0.463675,0.504136,0.432293,-1.353557,0.270516,-0.036134,-5.432129,-17.51709,-153.015137,0,0,-0.5484187511421352,0.4311022016172977,0.5377136409752774,0.4714527252566909,-1.1024347479486891,0.1505565206706507,-0.053967568830669,2.6297148389122804,-4.745011535069905,-52.58015125107808,0.654163,0.235392,-0.660311,0.283991,-2.470778,0.201178,0.347179,2.197266,-220.76416,348.449707,0,0,0.7492988727001524,0.3913138993795497,-0.4604479148196033,0.1468303337463934,-1.444667385064991,0.4485009941544622,-0.1435802385423192,-46.83737087497404,-97.03463893254876,193.246750406599
13916,2024 10 17,09:01:55.953,-0.593064,0.470718,0.495937,0.425142,-1.411176,0.273446,-0.042482,-13.61084,-21.30127,-172.119141,0,0,-0.5506510135850284,0.4330829915364328,0.5356248089265135,0.4691371889938563,-1.1178718105512546,0.1567009946371182,-0.0533932903891356,1.817687096966666,-5.5728244583164095,-58.55710073852417,0.632219,0.221697,-0.679102,0.299948,-2.693442,-0.012696,0.409192,19.53125,-221.069336,344.543457,0,0,0.7434448790651448,0.3828330544105722,-0.4713806190786231,0.1544862170590737,-1.5071061158117414,0.4254411444467391,-0.1159416266152033,-43.51893983122534,-103.23637378592132,200.81158573626905
13917,2024 10 17,09:01:55.962,-0.600232,0.478816,0.486492,0.416872,-1.512741,0.301767,-0.037599,-15.808105,-21.057129,-197.570801,0,0,-0.553130062905777,0.4353696419596111,0.5331681684801879,0.4665239295441635,-1.137615270023692,0.1639542949052622,-0.0526035758696788,0.9363974921183328,-6.347039685400589,-65.50778575159796,0.609609,0.208831,-0.69621,0.31632,-2.908292,-0.261238,0.423841,36.743164,-215.026855,342.224121,0,0,0.7367530851118875,0.3741329516900435,-0.482622088124692,0.16257790620612,-1.5771654100211543,0.3911071872244021,-0.0889524952844431,-39.50583463966407,-108.82589784662528,207.8822124994556
13918,2024 10 17,09:01:55.970,-0.600232,0.478816,0.486492,0.416872,-1.512741,0.301767,-0.037599,-15.808105,-21.057129,-197.570801,0,0,-0.5554851597604882,0.4375419598616305,0.5308343600561785,0.4640413330669554,-1.1563715565225074,0.1708449301599991,-0.0518533470761949,0.0991723675124159,-7.08254415113056,-72.11093651401806,0.609609,0.208831,-0.69621,0.31632,-2.908292,-0.261238,0.423841,36.743164,-215.026855,342.224121,0,0,0.7303958808562931,0.3658678541055414,-0.4933014837184574,0.170265010895814,-1.6437217395200965,0.358489927863182,-0.0633128205202209,-35.69338470768087,-114.135945704294,214.5993079244828
13919,2024 10 17,09:01:55.978,-0.608429,0.487992,0.475439,0.406983,-1.717826,0.368664,-0.082522,-16.174316,-25.939941,-230.957031,0,0,-0.5581323517724637,0.440064461868549,0.5280645920533695,0.4611884164136076,-1.184444278696382,0.1807358836519992,-0.0533867797223851,-0.714502050863205,-8.025413993574032,-80.05324123831716,0.586997,0.196354,-0.711117,0.333454,-2.978118,-0.631367,0.481948,53.955078,-196.228027,341.491699,0,0,0.7232259368134785,0.3573921614002643,-0.5041922595325345,0.1784244603510233,-1.7104415525440917,0.3089970814700228,-0.0360497794942099,-31.210961572296824,-118.2405497690793,220.94392747825864
13920,2024 10 17,09:01:55.987,-0.618084,0.498091,0.462294,0.395173,-1.73101,0.440443,-0.06592,-11.962891,-30.212402,-270.446777,0,0,-0.5611299341838405,0.4429657887751215,0.5247760624507011,0.4578876455929271,-1.211772564761563,0.1937212394693992,-0.0540134407362658,-1.2769214983200448,-9.13476339389533,-89.5729180264013,0.565059,0.18456,-0.723422,0.351151,-3.012299,-1.314982,0.429701,70.739746,-176.696777,331.420898,0,0,0.7153175899728046,0.348750553330251,-0.5151537465559077,0.1870607873334721,-1.775534424916887,0.2277981273965217,-0.0127622405194994,-26.11342619368198,-121.16336113062532,226.46777600434567
13921,2024 10 17,09:01:55.995,-0.628919,0.509366,0.447193,0.380823,-2.137272,0.602557,-0.073244,-10.314941,-32.348633,-313.232422,0,0,-0.5645193874746484,0.4462857993363655,0.520896909328166,0.4540344133132808,-1.2580475365234849,0.2141630274959292,-0.0549749686994525,-1.7288224734040425,-10.295456874200564,-100.75589322508124,0.54429,0.174591,-0.733392,0.367972,-2.991791,-1.950743,0.396496,80.932617,-161.193848,299.194336,0,0,0.7067662104741643,0.3400425756637384,-0.5260656592281123,0.1961063479667985,-1.8363472536710423,0.1188710710266956,0.0077006715064755,-20.76112403399788,-123.16488547409404,230.1041040041284
13922,2024 10 17,09:01:56.003,-0.641103,0.522053,0.428988,0.363891,-2.529374,0.633808,-0.190435,-15.075684,-44.73877,-367.980957,0,0,-0.5683485681009159,0.4500741593695472,0.5163014638617577,0.4495272426476167,-1.3216138596973106,0.2351452761211327,-0.0617479702644799,-2.39616554973384,-12.017622530490536,-114.11714641382716,0.525545,0.167726,-0.741242,0.3824,-2.507401,-2.375072,0.469253,83.92334,-152.099609,243.591309,0,0,0.6977051499504561,0.3314267468805515,-0.5368244762667067,0.2054210305684586,-1.8698999409874903,-0.0058260825246391,0.0307782879311517,-15.526900832297986,-124.61162165038934,230.77846425392195
13923,2024 10 17,09:01:56.012,-0.654943,0.536004,0.406501,0.344247,-2.758385,0.578143,-0.093753,-18.493652,-61.584473,-428.466797,0,0,-0.5726782896958702,0.4543706514010698,0.5108114406686698,0.4442632305152358,-1.393452416712445,0.2522951623150761,-0.0633482217512559,-3.201039872247148,-14.49596505396601,-129.8346289431358,0.508087,0.165082,-0.748157,0.393517,-1.880917,-2.604083,0.727073,81.481934,-166.748047,180.725098,0,0,0.6882242424529332,0.3231095095365239,-0.5473911024533714,0.2148258290400356,-1.870450793938116,-0.1357389283984072,0.0655930235345942,-10.676459090683087,-126.71844291786988,228.27579594122585
13924,2024 10 17,09:01:56.020,-0.654943,0.536004,0.406501,0.344247,-2.758385,0.578143,-0.093753,-18.493652,-61.584473,-428.466797,0,0,-0.5767915252110767,0.4584523188310163,0.5055959186352362,0.439262418989474,-1.4616990458768226,0.2685875541993223,-0.0648684606636931,-3.965670478634791,-16.85039045126771,-144.76623734597902,0.490611,0.166977,-0.755151,0.401455,-1.521042,-2.756432,1.242714,81.542969,-198.547363,125.610352,0,0,0.6783435803302866,0.3153028840596977,-0.5577790973307029,0.2241572875880338,-1.85298035424121,-0.2667735819784869,0.1244490723578645,-6.065487686148932,-130.30988892197635,223.1425237441645
13925,2024 10 17,09:01:56.028,-0.669296,0.551119,0.379968,0.32239,-2.775475,0.397961,-0.177252,-34.912109,-79.467773,-473.449707,0,0,-0.5814167489505228,0.4630856528894654,0.4993145227034744,0.4334187980400003,-1.5273878435829813,0.2750562264893562,-0.0704876376305085,-5.512992404703051,-19.981259578704325,-161.20041082868005,0.490611,0.166977,-0.755151,0.401455,-1.521042,-2.756432,1.242714,81.542969,-198.547363,125.610352,0,0,0.6689569513137723,0.3078865898567128,-0.5676476924641677,0.2330221732086321,-1.8363834365291491,-0.3912565028795626,0.1803623187399712,-1.685064851841484,-133.72176262587752,218.26591515695628
13926,2024 10 17,09:01:56.037,-0.68279,0.567073,0.349808,0.299769,-2.90878,0.152348,-0.170904,-53.283691,-88.500977,-498.840332,0,0,-0.5864854115029966,0.4682850202449922,0.4918391965683007,0.4267363081380003,-1.5964574514038323,0.2689208151648884,-0.075508455748983,-7.901527334467898,-23.407245449769107,-178.0824068872461,0.472558,0.173012,-0.762212,0.407172,-1.827693,-3.081149,1.721732,86.425781,-226.5625,84.472656,0,0,0.6591370037480837,0.3011428603638771,-0.5773759078409593,0.2417296645482005,-1.835948914702692,-0.5257511277355844,0.2574308028029727,2.72047744075059,-138.36379949458365,211.57625219910844
13927,2024 10 17,09:01:56.045,-0.694647,0.583325,0.317554,0.276328,-2.649495,-0.47853,-0.131352,-70.617676,-94.970703,-509.70459,0,1,-0.5918934909278467,0.4740370192327425,0.4831249367398856,0.4192158927311002,-1.6491093288336407,0.2315482744066439,-0.0783006329615339,-11.037334767744504,-26.985418327280648,-194.66351604288377,0.45607,0.180741,-0.767881,0.411936,-2.494705,-3.634388,1.85699,89.477539,-201.293945,61.401367,0,0,0.6489836535606794,0.2951227673456832,-0.5869011624489112,0.2502399813207905,-1.868886718967557,-0.6811829713488051,0.337408762662824,7.058330518713061,-141.51030676985445,204.06750793915305
13928,2024 10 17,09:01:56.053,-0.70558,0.597831,0.285851,0.251085,-2.703696,-0.413099,0.101077,-45.166016,-70.678711,-505.615234,0,0,-0.5975778163814544,0.4802267182711054,0.4732612399028914,0.4108093480945452,-1.7018386623919586,0.1993159106863117,-0.0693317513134572,-12.74376882935728,-29.170082960916616,-210.2111019407396,0.445953,0.186914,-0.770125,0.416049,-2.89169,-4.152959,1.773003,73.669434,-104.003906,36.499023,0,0,0.6388321208826455,0.2897123289783991,-0.5960623543264656,0.258530432254751,-1.9200268830191791,-0.8547717727813648,0.4091884745296829,10.388885692777407,-139.63498673136172,195.68908369219537
13929,2024 10 17,09:01:56.062,-0.715766,0.610217,0.25482,0.224458,-3.004486,0.054689,0.113285,-28.442383,-73.364258,-509.277344,0,0,-0.6034872255623817,0.4867262323575501,0.4623391779077468,0.4014917806898179,-1.7669710292723606,0.1920845651519961,-0.0602009137477843,-13.528699537889414,-31.379791712870784,-225.1644140437026,0.446298,0.189407,-0.768208,0.418091,-2.415601,-4.22425,1.043977,26.916504,22.644043,-0.854492,0,0,0.6292054148385132,0.2846970625294791,-0.6046696366101423,0.2665084606420134,-1.94480558886822,-1.0232456841422966,0.4409279008031987,11.215266608138537,-131.5210352447936,185.8619049075856
13930,2024 10 17,09:01:56.070,-0.725137,0.620502,0.222953,0.198608,-2.482986,0.458022,0.542985,-19.897461,-81.90918,-497.619629,0,0,-0.6095697142842625,0.4934150207396726,0.4503698690123595,0.391347591655327,-1.8027717778087424,0.2053814368943963,-0.0300416180603951,-13.847137610994944,-33.906261127227246,-238.7871747915175,0.453523,0.189504,-0.765293,0.415611,-1.919492,-3.670034,0.560076,-36.010742,73.974609,-39.0625,0,0,0.6204212940965875,0.2799374094030051,-0.6127008047796352,0.2739635876099128,-1.943539909424809,-1.1555850999351818,0.4468853057630387,8.853966177731609,-121.24625303255392,174.6156846622063
13931,2024 10 17,09:01:56.078,-0.725137,0.620502,0.222953,0.198608,-2.482986,0.458022,0.542985,-19.897461,-81.90918,-497.619629,0,0,-0.6153480785700494,0.4997693697026889,0.4389990255617415,0.3817106120725606,-1.836782488918305,0.2180134650496765,-0.0013902871573753,-14.149653780445195,-36.30640707086588,-251.7287975019416,0.453523,0.189504,-0.765293,0.415611,-1.919492,-3.670034,0.560076,-36.010742,73.974609,-39.0625,0,0,0.6120763793917582,0.2754157389328549,-0.6203304145406534,0.2810459582294171,-1.9423375139535684,-1.2813075449384228,0.4525448404748868,6.610730768845029,-111.48520993092622,163.93177542909598
13932,2024 10 17,09:01:56.087,-0.733643,0.628494,0.193401,0.171344,-1.970275,1.063021,0.578631,3.662109,-51.025391,-487.121582,0,0,-0.6212628246415468,0.5062056012175544,0.4267191242836544,0.3711922814689326,-1.84345711447239,0.2602638417971926,0.0276107772004934,-13.259065641422938,-37.04235626732259,-263.49843672684455,0.46411,0.188184,-0.763035,0.408615,-1.764214,-2.80282,0.471206,-88.378906,96.008301,-64.758301,0,0,0.6046780604221702,0.2710541519862122,-0.6274656438136208,0.2874244103179462,-1.9334313382558896,-1.3573831676915016,0.4534778984511424,1.8612489304027768,-101.1105343843799,152.49727160764118
13933,2024 10 17,09:01:56.095,-0.74136,0.634401,0.167044,0.141479,-1.347209,1.30668,1.066439,30.883789,0.427246,-477.783203,0,0,-0.6272676834094695,0.5126153711566767,0.4137353680694716,0.3597066173954859,-1.8186447087487705,0.312584649707333,0.0795521883404687,-11.051922909351791,-35.16887615395646,-274.2126750405023,0.474062,0.192125,-0.772224,0.376859,-1.722221,3.582629,10.808924,-492.004395,-175.476074,-344.482422,1,0,0.5981472574010617,0.2671076943869016,-0.6347035616229397,0.2918961398020489,-1.9228708213430952,-1.1103825593069263,0.9712502035285852,-22.832033266117364,-104.8288113651609,127.64828692725912
13934,2024 10 17,09:01:56.103,-0.747923,0.638514,0.146145,0.107482,-1.309122,0.855495,0.973174,54.077148,81.665039,-467.773438,0,0,-0.633300449238996,0.5189103025988429,0.400355849665998,0.3470953865257116,-1.7931685733113316,0.3397301672219663,0.1242332789234453,-7.795469363884202,-29.32718039625864,-283.8907131884772,0.514209,0.187058,-0.753636,0.364185,-0.681661,0.421888,-2.57918,-286.315918,575.439453,-235.839844,0,0,0.5939503445310086,0.2631052096675564,-0.6406501835417927,0.2955105828119465,-1.86081033027594,-1.03376903134158,0.7937286933521559,-36.0062275028115,-70.81539814690285,109.47388038089616
13935,2024 10 17,09:01:56.112,-0.756692,0.637458,0.128239,0.067965,-0.722678,0.333506,0.533219,140.625,123.168945,-488.220215,0,0,-0.6394700267770462,0.5248376874689007,0.3867500071826981,0.333138867199426,-1.739644044645765,0.339418958860868,0.144682564977273,-0.3744458956899912,-21.702374126445704,-294.10718827905333,0.546867,0.185597,-0.73949,0.345898,1.134312,1.732963,-3.270608,-56.82373,143.615723,-263.000488,0,0,0.5915961773044581,0.2592297991841786,-0.6455921743647031,0.2980299536713491,-1.7110542137621432,-0.8954324297745009,0.5905118586845481,-37.04710262767093,-60.0938420895577,90.85016196185134
13936,2024 10 17,09:01:56.120,-0.768064,0.628495,0.116582,0.038475,1.860408,1.300821,1.823298,216.247559,70.43457,-263.244629,0,0,-0.6458997254381939,0.5300205530954556,0.3732416068235631,0.3184056738394547,-1.5596414424134766,0.3874890609178246,0.2286133367284094,10.456654349094508,-17.09552692012342,-292.5640603151006,0.54713,0.207358,-0.743648,0.323481,-2.273019,1.269082,3.068941,-64.39209,-129.211426,-340.148926,0,0,0.5893728684392352,0.2566362092249696,-0.6504949656464678,0.2993025059877817,-1.739152453074036,-0.7872067082857759,0.7144333157503208,-38.41435199628738,-63.549721285079805,69.30020756375878
13937,2024 10 17,09:01:56.128,-0.768064,0.628495,0.116582,0.038475,1.860408,1.300821,1.823298,216.247559,70.43457,-263.244629,0,0,-0.6520079391662841,0.5349442754406828,0.360408626482385,0.3044091401474819,-1.3886389702928028,0.4331556578719333,0.3083475698919889,20.746199581639782,-12.719022074117246,-291.09808874934555,0.54713,0.207358,-0.743648,0.323481,-2.273019,1.269082,3.068941,-64.39209,-129.211426,-340.148926,0,0,0.5872607250172734,0.2541722987637211,-0.6551526173641443,0.3005114306883926,-1.765845780420334,-0.6843922728714871,0.8321586999628047,-39.71323889647301,-66.83280652082581,48.82775088557084
13938,2024 10 17,09:01:56.137,-0.773164,0.621935,0.119697,0.032954,0.062014,1.639699,0.029786,59.631348,73.974609,56.57959,0,0,-0.6580657422079699,0.5392938116686486,0.3483730451582656,0.2908363831401078,-1.3161063217781626,0.4934828249783366,0.2944194913973895,22.690457002557796,-8.384340520411385,-273.71420481187823,0.563827,0.2265,-0.728589,0.316156,-1.681204,-0.47853,-0.780786,90.148926,176.147461,-289.428711,0,0,0.5860890387664097,0.2527886838255351,-0.658824436495937,0.3012936591539729,-1.7616136913993172,-0.6740991592279126,0.7515114649646644,-33.22013065164936,-54.68379314478452,31.914927791292293
13939,2024 10 17,09:01:56.145,-0.776833,0.613144,0.138726,0.036608,-1.426313,2.188055,-0.102054,114.501953,135.192871,206.481934,0,0,-0.6640041050975714,0.5429863210852163,0.3378906929003524,0.2781249639831024,-1.3216166556892543,0.5782114337294197,0.27459581682752,27.2810318024299,-1.2054799443908155,-249.70439787128427,0.573297,0.244414,-0.715858,0.314865,-2.285714,-0.512223,1.062044,120.422363,80.627441,-196.655273,0,0,0.5854494368280891,0.2523699496342583,-0.6616761146711402,0.3019722261962743,-1.7878187068293512,-0.666005351266517,0.7670380917164311,-25.538005969066887,-47.91823143754529,20.486417751727675
13940,2024 10 17,09:01:56.153,-0.777248,0.607014,0.156241,0.054844,-1.132359,1.385296,0.387707,19.348145,-15.014648,303.405762,0,0,-0.6696662998426928,0.5461877050309554,0.3288082082553348,0.2669609157839472,-1.3121537729047914,0.6185656620429487,0.280251375986144,26.884387462308407,-1.895938347171275,-222.0488898777201,0.588482,0.251202,-0.700396,0.316277,-1.298379,-0.080569,0.004883,57.800293,238.342285,-125.427246,0,0,0.5856010649866846,0.2523115521525453,-0.6636121089375832,0.3026874648864606,-1.7633467214878835,-0.6367335337031911,0.7289303371306095,-21.37109102061354,-33.60520561566803,13.190734564141293
13941,2024 10 17,09:01:56.162,-0.775533,0.60194,0.172593,0.080175,-0.739769,0.98001,0.188482,-16.357422,-27.832031,353.69873,0,0,-0.6749596348505581,0.5489753197794076,0.320997447842568,0.2576216199947498,-1.2835345342595517,0.6366378789408013,0.2756629071868368,24.722296989192984,-3.192742979812711,-193.26150888383404,0.600749,0.255718,-0.686441,0.320168,-0.935087,-0.072268,-0.58449,85.754395,152.587891,-85.083008,0,0,0.5863584617373504,0.2524818745449181,-0.664753553490704,0.3035614916421375,-1.7219337354134894,-0.6085102570180315,0.663259320274079,-16.01481671958286,-24.29555078488462,8.277047435934225
13942,2024 10 17,09:01:56.170,-0.772099,0.597233,0.188681,0.107585,-0.50734,0.718284,0.588885,-24.841309,-54.931641,361.755371,0,0,-0.6798166031080302,0.5513882037904372,0.3143816254504396,0.2501197889950123,-1.244724807546574,0.6407201849937612,0.2913240118274949,22.24411668973333,-5.779687880822076,-165.51066488964233,0.606344,0.261547,-0.677256,0.324445,-1.303262,-0.098148,0.210944,95.88623,97.900391,-54.321289,0,0,0.5873577386504829,0.2529351308176722,-0.6653786758161687,0.3046056670600306,-1.7010001486428148,-0.58299214416713,0.640643554260375,-10.419764383603717,-18.18575369564039,5.147130614137513
13943,2024 10 17,09:01:56.178,-0.772099,0.597233,0.188681,0.107585,-0.50734,0.718284,0.588885,-24.841309,-54.931641,361.755371,0,0,-0.6844307229526286,0.5536804436009153,0.3080965941779175,0.2429930495452617,-1.2078555671692452,0.6445983757440731,0.3062020612361202,19.889845405246668,-8.237285536780972,-139.14736309516022,0.606344,0.261547,-0.677256,0.324445,-1.303262,-0.098148,0.210944,95.88623,97.900391,-54.321289,0,0,0.5883070517179588,0.2533657242767886,-0.6659725420253603,0.3055976337070291,-1.681113241210674,-0.5587499369587734,0.6191585765473562,-5.1044646644235305,-12.38144646085837,2.1737096334306374
13944,2024 10 17,09:01:56.187,-0.767532,0.592659,0.204506,0.133518,-0.250008,0.454115,0.546403,-20.324707,-19.836426,344.116211,0,0,-0.6885857868049972,0.5556293714208694,0.3029170644690216,0.2375192970679986,-1.1599631888107829,0.6350742069568693,0.3182121081743141,17.879117784984334,-8.817242559941922,-114.9841843904022,0.612863,0.265049,-0.667054,0.330436,-0.91409,-0.167974,-0.11475,80.688477,130.554199,-36.560059,0,0,0.5895348491320608,0.2539498880629491,-0.6660266149240922,0.3068395520216775,-1.6427620791501405,-0.5392111401108347,0.5824631477199884,-0.8148175812023535,-5.23466418781545,0.2370212017591053
13945,2024 10 17,09:01:56.195,-0.762411,0.587691,0.222529,0.154365,-0.26661,0.350108,0.560564,-6.286621,30.212402,315.856934,0,0,-0.6922770474647473,0.5572324528498259,0.2988976612455706,0.2333615822145987,-1.1152955293702436,0.6208258966090259,0.3303297027655984,16.670830845735118,-6.865760331944825,-93.44212847088208,0.61869,0.267115,-0.659137,0.333781,-1.033235,0.023438,-0.225593,46.508789,91.918945,-37.414551,0,0,0.5909926066754577,0.2546081436598016,-0.6656821341778876,0.3081866244205936,-1.6122857251926332,-0.5110786831052929,0.542060340333989,1.5513627478577643,-0.3769837284246771,-1.6455574083288502
13946,2024 10 17,09:01:56.203,-0.756991,0.582285,0.24199,0.171315,-0.333995,0.397961,0.523453,6.408691,66.711426,296.447754,0,0,-0.6955127450915098,0.5584850802073346,0.296052278183292,0.2302592531038687,-1.0762305029017312,0.6096826517785745,0.3399858676273185,16.157723853448363,-3.186901015347584,-73.94763434733798,0.623065,0.269016,-0.652475,0.337189,-1.078646,0.031739,0.121586,55.725098,86.669922,-22.094727,0,0,0.5925962263416849,0.2553285364768116,-0.6650217774689932,0.3096367431995639,-1.5856037389330015,-0.4839377989500282,0.5210366233172895,4.260049510464876,3.975361557996557,-2.668015887912408
13947,2024 10 17,09:01:56.212,-0.751138,0.576453,0.262379,0.186151,-0.472182,0.476089,0.39845,12.939453,83.679199,288.024902,0,0,-0.6982940078369343,0.5593834761969677,0.2943686142741274,0.2280538404486753,-1.0460280777566446,0.6030029691896457,0.3429090742459525,15.996810310775944,1.1564039854197956,-55.84900752997108,0.627076,0.270262,-0.645533,0.342084,-0.846217,-0.092776,0.034669,58.105469,86.364746,-8.483887,0,0,0.5943202150246005,0.256075209652971,-0.6640473385955434,0.3112591060395857,-1.5486344019863514,-0.4643797090025268,0.496718242151425,6.952320484941632,8.094830780096729,-2.9588094435167878
13948,2024 10 17,09:01:56.220,-0.744718,0.570203,0.283178,0.200184,-0.646504,0.538591,0.312998,14.770508,92.773438,287.29248,0,0,-0.7006152074450875,0.5599244523871193,0.293809083560421,0.2266603484262415,-1.0260518738688122,0.5997823707301634,0.3414135205336549,15.935495195237149,5.737255686148806,-38.69193315347252,0.629843,0.271076,-0.640902,0.345052,-0.907254,0.019532,0.026368,31.005859,50.476074,-9.216309,0,0,0.5960963542733705,0.2568252491703224,-0.6628900716657663,0.3129487507376064,-1.516565381887034,-0.4401841235524005,0.4732007300438537,8.15499741069455,10.213892941091892,-3.271684421340948
13949,2024 10 17,09:01:56.228,-0.744718,0.570203,0.283178,0.200184,-0.646504,0.538591,0.312998,14.770508,92.773438,287.29248,0,0,-0.7028203470728331,0.5604383797677633,0.2932775293824,0.2253365310049294,-1.0070744801753715,0.5967228021936551,0.3399927445069721,15.877245835475293,10.089064801841367,-22.39271249579889,0.629843,0.271076,-0.640902,0.345052,-0.907254,0.019532,0.026368,31.005859,50.476074,-9.216309,0,0,0.597783686559702,0.2575377867118062,-0.661790668082478,0.314553913200726,-1.4860998127926823,-0.4171983173747804,0.450859093541661,9.297540490159822,12.227001994037296,-3.568915650273901
13950,2024 10 17,09:01:56.237,-0.737547,0.563509,0.304196,0.214352,-0.761254,0.560564,0.236335,12.023926,92.041016,294.006348,0,0,-0.7045566797191914,0.5605919107793751,0.29382345291328,0.2247873044546829,-0.9947834561666028,0.5949148620839723,0.3348098572816235,15.684579843701526,14.1866623617493,-6.572759471008942,0.631455,0.271885,-0.637792,0.347224,-0.989288,0.000488,0.110843,30.334473,36.621094,-4.577637,0,0,0.5994672522317169,0.2582551473762159,-0.660590734678354,0.3161874175406897,-1.461259222153048,-0.3963140015060414,0.433858288864578,10.34938711565183,13.446706594335431,-3.6193517177602055
13951,2024 10 17,09:01:56.245,-0.729413,0.556337,0.325358,0.229322,-0.779321,0.548357,0.181158,7.202148,92.651367,306.70166,0,0,-0.7057994957332319,0.5603791652404063,0.295400180267616,0.2250140392319488,-0.9840103333582728,0.5925869689797736,0.3271272644175423,15.260458251516448,18.109897593661834,9.090961502541507,0.632874,0.272363,-0.635147,0.349108,-0.931669,0.012207,0.008301,20.812988,30.761719,-3.234863,0,0,0.6011375896201311,0.2589605400074051,-0.6593185479444363,0.3178334466636552,-1.4347797110453957,-0.3758879514307394,0.412580424421349,10.872567159869238,14.31245721461866,-3.600127281872195
13952,2024 10 17,09:01:56.253,-0.719968,0.548721,0.347282,0.24484,-0.852565,0.533219,0.167974,1.403809,99.975586,321.655273,0,0,-0.7065079209465702,0.559796256978386,0.2979942712542351,0.2260053372703513,-0.977438066690359,0.5896185705307849,0.3191696011966651,14.567625788940626,22.20318201397874,24.719177077414432,0.633693,0.272782,-0.633764,0.34981,-1.007843,0.08301,0.035157,8.361816,12.634277,-5.79834,0,0,0.6027653601391245,0.2596516130070348,-0.6580408205472146,0.3194322743304725,-1.4134328754931256,-0.3529430538592024,0.3937092532002816,10.747029601875775,14.228548203887728,-3.710037917778585
13953,2024 10 17,09:01:56.262,-0.708979,0.540778,0.369964,0.260835,-0.934599,0.500992,0.152348,-4.699707,109.558105,335.327148,0,0,-0.7066314748992417,0.5588453441294666,0.3015927576915234,0.2277468204068337,-0.9752961133558412,0.5851872420042457,0.3108285211368319,13.604259149493592,26.5709281632798,40.249575623543706,0.634334,0.273197,-0.632827,0.350019,-1.024445,0.081057,0.019044,5.371094,10.620117,-7.507324,0,0,0.6043437921321683,0.260328882356683,-0.6567801295198539,0.3209616106139489,-1.393983481718469,-0.3312430511662422,0.3749759905402675,10.478232821781983,14.04812664369334,-3.899902221889655
13954,2024 10 17,09:01:56.270,-0.696342,0.532476,0.393601,0.276868,-1.052767,0.508805,0.142582,-9.460449,123.779297,347.717285,0,0,-0.7061170011542797,0.5575268769229933,0.3061931698069473,0.2302028793864921,-0.9791696576880492,0.5813681299040334,0.3024161950799903,12.451023742018911,31.431346605115813,55.62296109236652,0.635011,0.273612,-0.632072,0.349833,-1.032258,0.08594,-0.02295,1.464844,7.141113,-10.070801,0,0,0.6058771525255598,0.2609930382388489,-0.6555447230438611,0.3224051800832515,-1.3758972076325455,-0.3103838986079301,0.3550796910132541,10.027563380692884,13.702775961508673,-4.208447160795172
13955,2024 10 17,09:01:56.278,-0.696342,0.532476,0.393601,0.276868,-1.052767,0.508805,0.142582,-9.460449,123.779297,347.717285,0,0,-0.7056282510965657,0.5562743330768436,0.3105635613165999,0.2325361354171674,-0.9828495248036466,0.5777399734088318,0.2944244853259907,11.355450104917969,36.04874412486002,70.2276772877482,0.635011,0.273612,-0.632072,0.349833,-1.032258,0.08594,-0.02295,1.464844,7.141113,-10.070801,0,0,0.6073338448992819,0.2616239863269064,-0.654371086891668,0.3237765710790889,-1.3587152472509183,-0.2905677036775336,0.3361782064625913,9.59942741165824,13.37469281343324,-4.501564852755414
13956,2024 10 17,09:01:56.287,-0.682058,0.52387,0.417805,0.292911,-1.261269,0.507828,0.11475,-15.74707,133.056641,356.384277,0,0,-0.7044497385417374,0.5546541164230013,0.3159256332507699,0.235554878646309,-0.9967704985634642,0.5742443747383901,0.2854407610596912,10.000324099672069,40.89913896861702,84.53550727336078,0.635678,0.274111,-0.63146,0.349336,-1.062532,0.102542,0.028809,1.037598,6.469727,-12.207031,0,0,0.6087510526543177,0.2622483370105611,-0.6532255325470845,0.3250545425251344,-1.3439060848883724,-0.270912218493657,0.3208097461394617,9.171335941075323,13.029444522761576,-4.886838160117643
13957,2024 10 17,09:01:56.295,-0.666536,0.514943,0.441649,0.309044,-1.469771,0.459487,0.10596,-21.789551,132.141113,358.886719,0,0,-0.7025540516146506,0.5526685606018513,0.3222118015882314,0.2392293347139936,-1.020420523635291,0.5685065060014706,0.2764667230067066,8.410830344688465,45.461237670186165,98.25306785969276,0.636567,0.274668,-0.630549,0.348925,-1.048372,0.103519,-0.008301,2.01416,10.498047,-14.038086,0,0,0.6101418500216018,0.262869320160033,-0.6520917059197302,0.3262480653988777,-1.3291293806439537,-0.2521906575689741,0.3043542088324886,8.813477144021558,12.902874646623497,-5.34440055211176
13958,2024 10 17,09:01:56.303,-0.650236,0.505605,0.464503,0.325257,-1.564013,0.400891,0.065432,-27.22168,125.488281,357.971191,0,0,-0.6999381490339179,0.5503153825717587,0.3293263615088198,0.2435307179782939,-1.0476001474535264,0.560125730701397,0.2659149868563713,6.629204827454042,49.462589836676855,111.23897401670811,0.637555,0.275321,-0.629517,0.348467,-1.013703,0.093753,0.043947,2.441406,10.925293,-15.686035,0,0,0.6115125075205218,0.2634919041520313,-0.6509629706237436,0.3273590121289338,-1.313358061611756,-0.2348934746905254,0.2913338483908642,8.49487358682048,12.80399556429232,-5.861482274506172
13959,2024 10 17,09:01:56.312,-0.633306,0.495722,0.486567,0.341226,-1.627491,0.367199,0.076174,-27.46582,124.816895,358.093262,0,0,-0.696606541582222,0.5475857134431708,0.3371883934333787,0.2484154820793792,-1.07659469008085,0.5504793941663272,0.2564279375135527,4.92445358608134,53.23030509484301,123.58168841587268,0.638572,0.276058,-0.62842,0.348002,-1.013703,0.070803,0.025391,3.112793,10.925293,-16.662598,0,0,0.6128654821444957,0.2641202089444298,-0.6498358220925564,0.3283911615224871,-1.2983753085311682,-0.2196086509559991,0.2780367059713209,8.225769557479456,12.710060436077702,-6.401538060780863
13960,2024 10 17,09:01:56.320,-0.61557,0.485216,0.508112,0.357017,-1.743217,0.350597,0.055177,-28.442383,123.10791,361.816406,0,0,-0.6925547145031109,0.5444672277710122,0.3457345737617098,0.2538455579754102,-1.1099258055768075,0.5404852744580108,0.2463653906378751,3.256111756777272,56.72418534010086,135.49342429507905,0.639654,0.276788,-0.627373,0.347324,-1.012238,0.046388,-0.032716,-0.12207,10.131836,-18.249512,0,0,0.6142049080372709,0.2647535984972082,-0.6487126809879286,0.3293378034463627,-1.28406844310461,-0.2063088184081992,0.2624990706727549,7.808377579605483,12.581149214273818,-6.993936757741819
13961,2024 10 17,09:01:56.328,-0.61557,0.485216,0.508112,0.357017,-1.743217,0.350597,0.055177,-28.442383,123.10791,361.816406,0,0,-0.6887054787779554,0.5415046663824615,0.3538534450736242,0.2590041300766397,-1.141590365297967,0.5309908607351101,0.2368059711059813,1.6711870189384077,60.04337157309581,146.80957338032508,0.639654,0.276788,-0.627373,0.347324,-1.012238,0.046388,-0.032716,-0.12207,10.131836,-18.249512,0,0,0.6154773626354073,0.2653553185723478,-0.6476456969385321,0.3302371132740445,-1.2704769209493794,-0.1936739774877892,0.2477383171391171,7.411855200625208,12.458683553560128,-7.556715519854729
13962,2024 10 17,09:01:56.337,-0.597157,0.473837,0.528963,0.372935,-1.849177,0.323252,0.058596,-29.785156,117.858887,367.553711,0,0,-0.6841280548390576,0.5381212830633384,0.362608922819943,0.2647006735728077,-1.1769696970330688,0.5206039176983547,0.2278954725506822,0.0983698679914872,62.934147344441016,157.84678026130882,0.640756,0.277394,-0.626548,0.346298,-1.003449,0.046876,-0.000488,-3.845215,8.422852,-18.798828,0,0,0.6167412945036369,0.2659572526437304,-0.6465908120916055,0.3310401576103423,-1.2571255249019104,-0.1816464786133997,0.2353270012821612,6.849001690593948,12.25689197588212,-8.118821143861991
13963,2024 10 17,09:01:56.345,-0.578045,0.461505,0.549163,0.388969,-1.988342,0.278817,0.096683,-30.517578,112.976074,374.511719,0,0,-0.6788239020971047,0.5342904689101714,0.3719366266789459,0.2709140898941673,-1.2175383121814152,0.5085145718134368,0.2213348489231481,-1.4324275254080872,65.43624367721895,168.68002719824338,0.641969,0.277841,-0.62571,0.345207,-0.989776,0.049806,-0.009278,-5.249023,10.437012,-18.432617,0,0,0.618002679778455,0.2665514400115439,-0.6455467714870252,0.3317484997298252,-1.243758048656815,-0.1700738546827297,0.2230967512180532,6.24410045606425,12.165897977088015,-8.63451093666889
13964,2024 10 17,09:01:56.353,-0.55835,0.44812,0.568693,0.404996,-2.155339,0.209967,0.172369,-29.052734,107.48291,380.859375,0,0,-0.6728002069922495,0.5299819454646628,0.3817744453449986,0.2776181853994589,-1.2644283465723445,0.4935871932227649,0.2188865564769907,-2.813442849137683,67.538576993358,179.2889945883312,0.643185,0.278193,-0.624885,0.34415,-0.952666,0.065432,0.057131,-5.493164,10.009766,-17.333984,0,0,0.6192617957895322,0.2671335180109667,-0.6445136829126739,0.3323685747433338,-1.229203446223974,-0.1582985619485932,0.2147984636571505,5.657237233261037,12.058091378233614,-9.069484589835444
13965,2024 10 17,09:01:56.362,-0.538096,0.433663,0.58768,0.42074,-2.324778,0.090823,0.244636,-24.780273,104.675293,386.779785,0,0,-0.666064996642637,0.5251659981914296,0.3920697230777487,0.2847742761294859,-1.3174458292437272,0.4734489835616267,0.2201740286531411,-3.911784356680799,69.3954127936901,189.66353410891463,0.644359,0.278539,-0.624008,0.343267,-0.977081,0.052736,0.066408,-3.845215,10.864258,-16.296387,0,0,0.6205166560000557,0.2677037921104183,-0.6434883987670401,0.3329134960061671,-1.2165973239127754,-0.1477468338511635,0.207378940474293,5.182114621597984,11.998399709321934,-9.430829710343671
13966,2024 10 17,09:01:56.370,-0.517472,0.418068,0.606091,0.436,-2.501053,-0.097171,0.353038,-19.226074,99.243164,391.784668,0,0,-0.6586353468105052,0.5198110982818581,0.4027707869238612,0.2923355623230116,-1.3766261877815409,0.4449179843835453,0.2268172272204841,-4.677498838846758,70.88780035400559,199.7695908034689,0.645602,0.278832,-0.623022,0.342483,-0.964385,0.062502,0.053224,-3.601074,12.878418,-15.686035,0,0,0.6217709232000529,0.2682602025048974,-0.6424650788286881,0.3333919712058588,-1.203986707717137,-0.1372343921586054,0.1996711934505783,4.742955190518084,12.042400623855835,-9.743589974826488
13967,2024 10 17,09:01:56.378,-0.517472,0.418068,0.606091,0.436,-2.501053,-0.097171,0.353038,-19.226074,99.243164,391.784668,0,0,-0.65157717946998,0.5147239433677652,0.4129367975776681,0.299518784206861,-1.4328475283924638,0.417813535164368,0.2331282658594599,-5.40492759690442,72.30556853630532,209.37034466329547,0.645602,0.278832,-0.623022,0.342483,-0.964385,0.062502,0.053224,-3.601074,12.878418,-15.686035,0,0,0.6229624770400503,0.2687887923796525,-0.6414929248872536,0.3338465226455658,-1.1920066223312795,-0.1272475725506751,0.1923488337780494,4.325753730992179,12.084201492663045,-10.040712226085162
13968,2024 10 17,09:01:56.387,-0.496662,0.401349,0.623806,0.450679,-2.630451,-0.395032,0.385754,-12.390137,94.360352,395.446777,0,0,-0.643831420496481,0.5090551961993769,0.4234802576987846,0.3070767949965179,-1.4927277019728404,0.3771712584061495,0.2407595525664868,-5.754188067059198,73.40830770949005,218.6741662801307,0.64676,0.279182,-0.62206,0.341759,-0.980987,0.051271,0.07178,-2.624512,11.230469,-15.50293,0,0,0.6241523531880477,0.2693084527606699,-0.6405212786428909,0.3342421465132875,-1.1814556412147157,-0.1183216439231413,0.1863203920891469,3.97824044444257,12.04151486802989,-10.313823114780904
13969,2024 10 17,09:01:56.395,-0.475554,0.383812,0.641076,0.464283,-2.699301,-0.782739,0.399915,-3.845215,96.374512,396.54541,0,0,-0.635417549471657,0.502793036389408,0.4343600448138454,0.314937105246692,-1.5530563668741983,0.319175745485842,0.2487173249381625,-5.658739413706238,74.55661792401554,227.56772846612412,0.64796,0.279492,-0.62107,0.341034,-1.007843,0.049318,0.061525,-2.685547,12.695313,-15.50293,0,0,0.6253427355286454,0.2698176301226364,-0.6395487147107463,0.3345817391876231,-1.17277500915398,-0.1099396617269842,0.1800806224846896,3.645051072220441,12.074204774628395,-10.57327845904186
13970,2024 10 17,09:01:56.403,-0.454201,0.366037,0.657781,0.47649,-2.739341,-1.213904,0.376965,2.197266,100.891113,390.380859,0,0,-0.6263567219980741,0.4959552345699375,0.4455310925731531,0.3230147499843575,-1.6123705985304884,0.2425217582115499,0.2551297086912544,-5.265939143020926,75.87334267781476,235.70838499281797,0.649185,0.279809,-0.619994,0.340402,-0.991241,0.04883,0.021485,-1.831055,13.61084,-15.075684,0,0,0.6265348487522131,0.2703171986165045,-0.6385709789752089,0.3348727522282419,-1.1636983086962809,-0.102001178640635,0.1721508413604551,3.371245768609419,12.151036535896974,-10.798398736089766
13971,2024 10 17,09:01:56.412,-0.43282,0.349074,0.67355,0.486975,-2.821375,-1.672414,0.285165,4.516602,108.886719,371.09375,0,0,-0.6166798858981705,0.4886111728414407,0.4569320379444954,0.3312127624851395,-1.672820818603964,0.1467749703009724,0.2566314732566916,-4.77681208586988,77.52401149392402,242.47765324317703,0.650316,0.280169,-0.618974,0.339803,-0.986847,0.04004,0.101566,-0.976563,12.207031,-14.526367,0,0,0.6277239063146024,0.2708097886856793,-0.6375911300264484,0.3351192646168298,-1.1548557432614668,-0.0948991197086032,0.1686215992924323,3.153855330178948,12.153836259102128,-10.984797149285276
13972,2024 10 17,09:01:56.420,-0.412172,0.33391,0.687732,0.495624,-2.763268,-2.119205,0.166021,2.075195,112.182617,336.975098,0,0,-0.6064544916032619,0.4808761141993686,0.4684720360472706,0.3394333243608825,-1.7273431776737658,0.0334759717859237,0.252100949593857,-4.434211731576386,79.25694176922782,247.20252548101817,0.651489,0.280503,-0.617844,0.339337,-0.98294,0.045412,0.06299,-0.061035,14.343262,-13.916016,0,0,0.6289121609988723,0.2712944492513953,-0.636603773525126,0.3353301513859882,-1.1462599560983937,-0.0878835637231731,0.1633400193278107,2.9931108136700004,12.26330754614702,-11.131358091821012
13973,2024 10 17,09:01:56.428,-0.412172,0.33391,0.687732,0.495624,-2.763268,-2.119205,0.166021,2.075195,112.182617,336.975098,0,0,-0.5967403670230987,0.4735278084894001,0.4794350342449071,0.3472428581428384,-1.7791394187900775,-0.0741580768033724,0.2477969521141641,-4.108741394997566,80.90322553076643,251.69115410696725,0.651489,0.280503,-0.617844,0.339337,-0.98294,0.045412,0.06299,-0.061035,14.343262,-13.916016,0,0,0.6300410029489286,0.2717548767888255,-0.6356657848488697,0.3355304938166888,-1.1380939582934737,-0.0812187855370144,0.1583225183614202,2.8404035229865,12.367305268839669,-11.270590987229962
13974,2024 10 17,09:01:56.437,-0.392967,0.321705,0.699776,0.502391,-2.357982,-2.58211,-0.144536,-5.249023,117.30957,286.92627,0,0,-0.5865516986719438,0.4659366680649301,0.4904520825326617,0.3550002652356964,-1.8080815478505736,-0.1995556729632038,0.2281803045084559,-4.165755475247688,82.7235427542281,253.45290990161888,0.652596,0.280843,-0.616759,0.338901,-0.990753,0.036134,0.082034,-0.061035,12.451172,-13.549805,0,0,0.6311687528014822,0.2722092829493842,-0.6347204456064262,0.3356990191258543,-1.1307269103788,-0.0753511462601637,0.1545080924433491,2.695331596837175,12.371498605397685,-11.384551687868464
13975,2024 10 17,09:01:56.445,-0.375041,0.314032,0.710091,0.506456,-1.683157,-3.091891,-0.621601,-6.103516,141.723633,222.045898,0,0,-0.5759761637383466,0.4583414346616836,0.5014340284060286,0.3625730519739116,-1.8018353204580448,-0.3441724393150436,0.1856912392830331,-4.262643501485304,85.67354726651669,251.88255930653796,0.653634,0.281272,-0.615678,0.338509,-1.013703,0.061037,0.08594,1.89209,12.634277,-13.48877,0,0,0.6322920151614081,0.272662418801915,-0.6337683233261048,0.3358395181695616,-1.12487571485986,-0.0685317389471555,0.1510796878211817,2.655169516995316,12.3846375251278,-11.48976260347504
