frame,date,time,quaternion_x,quaternion_y,quaternion_z,quaternion_w,accel_x,accel_y,accel_z,gyro_x,gyro_y,gyro_z,HS,TO
3165,2024 10 24,05:24:36.365,0.488016,-0.65222,-0.407644,-0.412645,-1.159215,0.095218,-0.04297,-31.12793,44.433594,123.840332,0,0
3166,2024 10 24,05:24:36.373,0.479862,-0.650742,-0.415378,-0.416808,-1.1807,0.061037,-0.039064,-36.987305,44.799805,124.389648,0,0
3167,2024 10 24,05:24:36.382,0.479862,-0.650742,-0.415378,-0.416808,-1.1807,0.061037,-0.039064,-36.987305,44.799805,124.389648,0,0
3168,2024 10 24,05:24:36.390,0.47134,-0.649385,-0.422858,-0.421103,-1.177282,0.020508,-0.023927,-42.053223,44.677734,124.633789,0,0
3169,2024 10 24,05:24:36.398,0.462501,-0.648147,-0.430088,-0.425469,-1.214881,-0.012696,-0.026856,-46.447754,45.043945,124.389648,0,0
3170,2024 10 24,05:24:36.407,0.453402,-0.646969,-0.437053,-0.429933,-1.230995,-0.050295,-0.017579,-50.415039,44.250488,124.206543,0,0
3171,2024 10 24,05:24:36.415,0.444152,-0.645792,-0.443759,-0.434465,-1.237831,-0.087405,-0.009278,-52.91748,43.029785,123.657227,0,0
3172,2024 10 24,05:24:36.423,0.434845,-0.64458,-0.450218,-0.439011,-1.241249,-0.13184,-0.014649,-54.016113,41.870117,122.436523,0,0
3173,2024 10 24,05:24:36.432,0.425618,-0.643329,-0.456415,-0.443466,-1.241249,-0.13184,-0.014649,-54.016113,41.870117,122.436523,0,0
3174,2024 10 24,05:24:36.440,0.425618,-0.643329,-0.456415,-0.443466,-1.240272,-0.178228,-0.011719,-53.955078,40.771484,119.995117,0,0
3175,2024 10 24,05:24:36.448,0.416581,-0.642044,-0.462356,-0.447735,-1.24662,-0.224616,-0.013672,-52.246094,39.794922,116.333008,0,0
3176,2024 10 24,05:24:36.457,0.40786,-0.640651,-0.46808,-0.451793,-1.217811,-0.284677,-0.007813,-49.133301,37.841797,113.40332,0,0
3177,2024 10 24,05:24:36.465,0.399623,-0.639102,-0.473569,-0.455612,-1.187536,-0.331065,0.00293,-44.677734,34.790039,108.947754,0,0
3178,2024 10 24,05:24:36.473,0.391982,-0.637445,-0.478791,-0.4591,-1.141636,-0.378918,0.012696,-39.18457,32.470703,102.905273,0,0
3179,2024 10 24,05:24:36.482,0.384996,-0.635772,-0.483736,-0.462137,-1.119175,-0.39845,0.021485,-33.569336,30.883789,95.88623,0,0
3180,2024 10 24,05:24:36.490,0.384996,-0.635772,-0.483736,-0.462137,-1.119175,-0.39845,0.021485,-33.569336,30.883789,95.88623,0,0
3181,2024 10 24,05:24:36.498,0.378632,-0.634073,-0.488421,-0.464794,-1.108921,-0.416028,0.019532,-28.015137,28.503418,89.172363,0,0
3182,2024 10 24,05:24:36.507,0.372949,-0.632281,-0.492845,-0.467155,-1.066927,-0.430189,0.02002,-22.644043,25.390625,83.374023,0,0
3183,2024 10 24,05:24:36.515,0.367783,-0.630445,-0.497161,-0.469155,-1.020051,-0.446303,0.027345,-17.211914,25.024414,79.162598,0,0
3184,2024 10 24,05:24:36.523,0.363002,-0.628579,-0.501491,-0.47077,-1.00589,-0.470717,0.02002,-12.023926,25.390625,75.927734,0,0
3185,2024 10 24,05:24:36.532,0.358718,-0.626686,-0.505738,-0.472032,-0.983428,-0.506363,0.017579,-6.835938,24.291992,71.044922,0,0
3186,2024 10 24,05:24:36.540,0.358718,-0.626686,-0.505738,-0.472032,-0.983428,-0.506363,0.017579,-6.835938,24.291992,71.044922,0,0
3187,2024 10 24,05:24:36.548,0.355081,-0.624826,-0.509763,-0.472919,-0.954131,-0.554216,0.012207,-1.220703,22.277832,63.964844,0,0
3188,2024 10 24,05:24:36.557,0.352198,-0.623023,-0.513554,-0.473351,-0.919462,-0.597674,0.014649,5.432129,20.507813,56.335449,0,0
3189,2024 10 24,05:24:36.565,0.350076,-0.621218,-0.517213,-0.473313,-0.930204,-0.629902,0.001953,13.000488,18.676758,50.109863,0,0
3190,2024 10 24,05:24:36.573,0.34882,-0.619206,-0.520812,-0.472931,-0.927763,-0.644551,0.002441,22.033691,13.793945,45.349121,0,0
3191,2024 10 24,05:24:36.582,0.348508,-0.616856,-0.52432,-0.472355,-0.893582,-0.654805,-0.019044,30.944824,7.141113,40.83252,0,0
3192,2024 10 24,05:24:36.590,0.348508,-0.616856,-0.52432,-0.472355,-0.893582,-0.654805,-0.019044,30.944824,7.141113,40.83252,0,0
3193,2024 10 24,05:24:36.598,0.349156,-0.61423,-0.527757,-0.471471,-0.827174,-0.677755,-0.005371,40.100098,2.685547,35.339355,0,0
3194,2024 10 24,05:24:36.607,0.350619,-0.611507,-0.531193,-0.470063,-0.799829,-0.709494,-0.008789,49.438477,1.403809,29.541016,0,0
3195,2024 10 24,05:24:36.615,0.352847,-0.608726,-0.534681,-0.468046,-0.81106,-0.739769,0.009278,58.71582,0.793457,23.803711,0,0
3196,2024 10 24,05:24:36.623,0.355934,-0.605863,-0.53803,-0.46558,-0.805689,-0.775414,0.004883,66.833496,-3.356934,16.662598,0,0
3197,2024 10 24,05:24:36.632,0.359934,-0.602979,-0.54105,-0.462741,-0.784692,-0.828639,-0.001465,73.425293,-7.69043,8.117676,0,0
3198,2024 10 24,05:24:36.640,0.359934,-0.602979,-0.54105,-0.462741,-0.784692,-0.828639,-0.001465,73.425293,-7.69043,8.117676,0,0
3199,2024 10 24,05:24:36.648,0.36477,-0.600135,-0.543668,-0.459571,-0.804712,-0.855983,-0.005371,78.24707,-11.962891,-0.061035,0,0
3200,2024 10 24,05:24:36.657,0.370388,-0.597357,-0.545716,-0.456259,-0.79397,-0.879421,-0.015625,80.566406,-18.249512,-10.070801,0,0
3201,2024 10 24,05:24:36.665,0.376624,-0.594917,-0.546949,-0.452852,-0.765648,-0.896512,-0.024415,78.796387,-23.254395,-21.789551,0,0
3202,2024 10 24,05:24:36.673,0.384701,-0.594072,-0.549438,-0.444074,-5.475753,-0.26661,-2.231025,171.020508,57.800293,-77.148438,0,0
3203,2024 10 24,05:24:36.682,0.403153,-0.591827,-0.54313,-0.438426,-0.548845,0.106449,1.614795,68.054199,-213.012695,-121.337891,0,0
3204,2024 10 24,05:24:36.690,0.403153,-0.591827,-0.54313,-0.438426,-0.548845,0.106449,1.614795,68.054199,-213.012695,-121.337891,0,0
3205,2024 10 24,05:24:36.698,0.420584,-0.591425,-0.538936,-0.427637,-1.373577,1.466842,-0.790552,173.095703,-13.73291,-170.532227,1,0
3206,2024 10 24,05:24:36.707,0.429053,-0.595532,-0.530001,-0.424681,-1.42729,0.228523,1.089877,-1.220703,-57.800293,-146.484375,0,0
3207,2024 10 24,05:24:36.715,0.436724,-0.600422,-0.51783,-0.424991,-1.515671,-0.228523,-0.304209,-58.959961,-110.656738,-149.108887,0,0
3208,2024 10 24,05:24:36.723,0.445035,-0.603137,-0.503271,-0.429986,-1.057161,-0.308115,-0.129398,-52.368164,-134.033203,-122.497559,0,0
3209,2024 10 24,05:24:36.732,0.450399,-0.605203,-0.492242,-0.434244,-1.071322,-0.417005,-0.335459,-44.921875,-100.646973,-82.092285,0,0
3210,2024 10 24,05:24:36.740,0.450399,-0.605203,-0.492242,-0.434244,-1.071322,-0.417005,-0.335459,-44.921875,-100.646973,-82.092285,0,0
3211,2024 10 24,05:24:36.748,0.456178,-0.60506,-0.483769,-0.437917,-0.875027,-0.10889,-0.039064,-21.42334,-96.252441,-63.171387,0,0
3212,2024 10 24,05:24:36.757,0.461127,-0.604949,-0.476862,-0.440455,-0.972198,-0.02295,-0.041505,-9.58252,-77.636719,-57.678223,0,0
3213,2024 10 24,05:24:36.765,0.465712,-0.604819,-0.470348,-0.442807,-1.001984,-0.043458,0.006836,-16.967773,-74.768066,-54.748535,0,0
3214,2024 10 24,05:24:36.773,0.469772,-0.604768,-0.463661,-0.445633,-1.054231,-0.044923,0.080081,-23.010254,-77.697754,-52.246094,0,0
3215,2024 10 24,05:24:36.782,0.472972,-0.604514,-0.456871,-0.449587,-1.001495,-0.095218,-0.021973,-31.860352,-82.03125,-37.780762,0,0
3216,2024 10 24,05:24:36.790,0.472972,-0.604514,-0.456871,-0.449587,-1.001495,-0.095218,-0.021973,-31.860352,-82.03125,-37.780762,0,0
3217,2024 10 24,05:24:36.798,0.47571,-0.603828,-0.449943,-0.45458,-0.765648,-0.243171,-0.245125,-40.893555,-88.684082,-27.954102,0,0
3218,2024 10 24,05:24:36.807,0.477914,-0.602893,-0.444823,-0.458532,-0.626484,-0.278329,-0.542985,-21.66748,-62.927246,-15.74707,0,0
3219,2024 10 24,05:24:36.815,0.479209,-0.601784,-0.442284,-0.461086,-0.971709,0.018067,-0.042482,-15.625,-35.339355,-0.915527,0,0
3220,2024 10 24,05:24:36.823,0.479181,-0.60142,-0.440396,-0.463391,-0.954131,-0.051759,-0.158208,-16.601563,-25.085449,0.305176,0,0
3221,2024 10 24,05:24:36.832,0.479601,-0.601146,-0.438846,-0.46478,-0.951201,0.000488,-0.130375,-10.070801,-17.150879,-5.371094,0,0
3222,2024 10 24,05:24:36.840,0.479911,-0.601288,-0.437726,-0.465332,-0.961455,-0.010743,-0.130375,-5.554199,-7.080078,-9.399414,0,0
3223,2024 10 24,05:24:36.848,0.479911,-0.601288,-0.437726,-0.465332,-0.961455,-0.010743,-0.130375,-5.554199,-7.080078,-9.399414,0,0
3224,2024 10 24,05:24:36.857,0.480329,-0.601704,-0.436772,-0.46526,-0.938505,-0.026856,-0.094729,-3.479004,-1.77002,-12.756348,0,0
3225,2024 10 24,05:24:36.865,0.480766,-0.602351,-0.436013,-0.464683,-0.934111,-0.069338,-0.12891,-0.793457,3.356934,-14.648438,0,0
3226,2024 10 24,05:24:36.873,0.481278,-0.603065,-0.43554,-0.463668,-0.928739,-0.054201,-0.114261,2.258301,7.8125,-15.74707,0,0
3227,2024 10 24,05:24:36.882,0.481668,-0.60388,-0.435319,-0.462409,-0.927763,-0.087893,-0.133305,4.516602,12.451172,-15.075684,0,0
3228,2024 10 24,05:24:36.890,0.482093,-0.604657,-0.435456,-0.460819,-0.949248,-0.093265,-0.124027,7.507324,15.930176,-13.73291,0,0
3229,2024 10 24,05:24:36.898,0.482093,-0.604657,-0.435456,-0.460819,-0.949248,-0.093265,-0.124027,7.507324,15.930176,-13.73291,0,0
3230,2024 10 24,05:24:36.907,0.482479,-0.605383,-0.435843,-0.459093,-0.975616,-0.081545,-0.081545,8.422852,17.456055,-12.939453,0,0
3231,2024 10 24,05:24:36.915,0.482805,-0.6061,-0.436275,-0.457392,-0.978545,-0.067385,-0.079104,8.789063,17.089844,-12.084961,0,0
3232,2024 10 24,05:24:36.923,0.483105,-0.606766,-0.436651,-0.455831,-0.982452,-0.066408,-0.061525,7.873535,15.50293,-11.413574,0,0
3233,2024 10 24,05:24:36.932,0.483386,-0.607354,-0.436976,-0.454435,-0.981475,-0.065432,-0.063478,6.958008,13.671875,-10.253906,0,0
3234,2024 10 24,05:24:36.940,0.483635,-0.607869,-0.437222,-0.453244,-0.978545,-0.06885,-0.063967,5.737305,11.71875,-9.155273,0,0
3235,2024 10 24,05:24:36.948,0.483635,-0.607869,-0.437222,-0.453244,-0.978545,-0.06885,-0.063967,5.737305,11.71875,-9.155273,0,0
3236,2024 10 24,05:24:36.957,0.483884,-0.608311,-0.437416,-0.452196,-0.980499,-0.070315,-0.065432,5.310059,10.070801,-8.483887,0,0
3237,2024 10 24,05:24:36.965,0.484174,-0.60867,-0.437566,-0.451257,-0.979034,-0.067385,-0.066408,5.310059,8.605957,-8.056641,0,0
3238,2024 10 24,05:24:36.973,0.484491,-0.608992,-0.43768,-0.45037,-0.983917,-0.061037,-0.071291,5.065918,7.751465,-8.056641,0,0
3239,2024 10 24,05:24:36.982,0.484807,-0.609332,-0.4377,-0.44955,-0.981964,-0.065432,-0.073733,4.150391,6.958008,-8.483887,0,0
3240,2024 10 24,05:24:36.990,0.485124,-0.609696,-0.43766,-0.448754,-0.982452,-0.059572,-0.070803,3.601074,6.591797,-8.911133,0,0
3241,2024 10 24,05:24:36.998,0.485124,-0.609696,-0.43766,-0.448754,-0.982452,-0.059572,-0.070803,3.601074,6.591797,-8.911133,0,0
3242,2024 10 24,05:24:37.007,0.485426,-0.610107,-0.437525,-0.447998,-0.969268,-0.067873,-0.063967,2.441406,6.04248,-9.58252,0,0
3243,2024 10 24,05:24:37.015,0.485715,-0.610551,-0.437321,-0.44728,-0.963408,-0.059572,-0.081057,1.525879,5.615234,-9.82666,0,0
3244,2024 10 24,05:24:37.023,0.485887,-0.611086,-0.436975,-0.446699,-0.964385,-0.081057,-0.059572,-1.220703,5.126953,-9.94873,0,0
3245,2024 10 24,05:24:37.032,0.486049,-0.61162,-0.436575,-0.446184,-0.966826,-0.075686,-0.052736,-1.89209,3.967285,-9.70459,0,0
3246,2024 10 24,05:24:37.040,0.486159,-0.612169,-0.436085,-0.44579,-0.968291,-0.07178,-0.062502,-3.723145,2.990723,-9.399414,0,0
3247,2024 10 24,05:24:37.048,0.486159,-0.612169,-0.436085,-0.44579,-0.968291,-0.07178,-0.062502,-3.723145,2.990723,-9.399414,0,0
3248,2024 10 24,05:24:37.057,0.486177,-0.612739,-0.435427,-0.44563,-0.970244,-0.08301,-0.073244,-6.286621,0.915527,-9.033203,0,0
3249,2024 10 24,05:24:37.065,0.486205,-0.613283,-0.434583,-0.445675,-0.957549,-0.081545,-0.075686,-8.361816,-1.77002,-9.155273,0,0
3250,2024 10 24,05:24:37.073,0.486166,-0.613894,-0.433604,-0.44583,-0.95999,-0.091311,-0.074221,-9.82666,-2.258301,-9.399414,0,0
3251,2024 10 24,05:24:37.082,0.486202,-0.614439,-0.432639,-0.445978,-0.951689,-0.104495,-0.073733,-8.178711,-2.685547,-9.277344,0,0
3252,2024 10 24,05:24:37.090,0.486297,-0.614991,-0.431656,-0.446066,-0.960967,-0.103519,-0.080081,-7.629395,-2.624512,-10.375977,0,0
3253,2024 10 24,05:24:37.098,0.486297,-0.614991,-0.431656,-0.446066,-0.960967,-0.103519,-0.080081,-7.629395,-2.624512,-10.375977,0,0
3254,2024 10 24,05:24:37.107,0.486596,-0.615413,-0.43069,-0.446091,-0.961455,-0.103519,-0.054201,-4.516602,-3.967285,-10.925293,0,0
3255,2024 10 24,05:24:37.115,0.487109,-0.615704,-0.4297,-0.446084,-0.966826,-0.115726,-0.044923,-2.13623,-5.981445,-11.84082,0,0
3256,2024 10 24,05:24:37.123,0.487908,-0.615798,-0.428729,-0.446016,-0.95706,-0.103519,-0.070803,0.671387,-7.8125,-12.390137,0,0
3257,2024 10 24,05:24:37.132,0.488836,-0.615785,-0.427744,-0.445963,-0.959502,-0.106937,-0.076174,2.075195,-8.850098,-12.634277,0,0
3258,2024 10 24,05:24:37.140,0.489836,-0.615705,-0.426704,-0.445974,-0.96878,-0.102542,-0.073733,1.708984,-10.070801,-12.634277,0,0
3259,2024 10 24,05:24:37.148,0.489836,-0.615705,-0.426704,-0.445974,-0.96878,-0.102542,-0.073733,1.708984,-10.070801,-12.634277,0,0
3260,2024 10 24,05:24:37.157,0.49091,-0.615579,-0.425559,-0.44606,-0.965361,-0.102054,-0.050783,1.89209,-12.756348,-13.305664,0,0
3261,2024 10 24,05:24:37.165,0.491996,-0.615487,-0.424323,-0.446169,-0.978545,-0.100589,-0.083987,0.488281,-12.878418,-14.099121,0,0
3262,2024 10 24,05:24:37.173,0.493126,-0.615424,-0.42296,-0.446301,-0.974151,-0.098636,-0.081057,0.854492,-13.061523,-15.197754,0,0
3263,2024 10 24,05:24:37.182,0.494402,-0.615304,-0.421497,-0.446439,-0.963897,-0.104984,-0.092776,2.075195,-15.869141,-16.540527,0,0
3264,2024 10 24,05:24:37.190,0.495763,-0.615183,-0.42008,-0.446432,-0.963897,-0.093753,-0.108402,3.356934,-13.000488,-17.089844,0,0
3265,2024 10 24,05:24:37.198,0.495763,-0.615183,-0.42008,-0.446432,-0.963897,-0.093753,-0.108402,3.356934,-13.000488,-17.089844,0,0
3266,2024 10 24,05:24:37.207,0.497042,-0.615234,-0.418669,-0.446264,-0.964385,-0.115726,-0.123051,1.525879,-11.291504,-18.859863,0,0
3267,2024 10 24,05:24:37.215,0.498328,-0.615423,-0.417354,-0.445802,-0.991729,-0.0918,-0.122074,3.356934,-7.263184,-20.568848,0,0
3268,2024 10 24,05:24:37.223,0.499593,-0.615807,-0.416024,-0.445099,-0.98294,-0.104495,-0.119144,3.601074,-4.577637,-23.193359,0,0
3269,2024 10 24,05:24:37.232,0.500898,-0.616371,-0.414773,-0.444017,-0.98587,-0.121586,-0.107425,4.577637,-0.915527,-25.512695,0,0
3270,2024 10 24,05:24:37.240,0.502275,-0.617171,-0.413484,-0.44255,-1.009796,-0.094729,-0.12598,5.432129,2.746582,-30.029297,0,0
3271,2024 10 24,05:24:37.248,0.503679,-0.618281,-0.412082,-0.440709,-1.044954,-0.102542,-0.070315,4.699707,5.981445,-34.973145,0,0
3272,2024 10 24,05:24:37.257,0.503679,-0.618281,-0.412082,-0.440709,-1.044954,-0.102542,-0.070315,4.699707,5.981445,-34.973145,0,0
3273,2024 10 24,05:24:37.265,0.505167,-0.619659,-0.41052,-0.438523,-1.130406,-0.104007,-0.035157,4.943848,7.385254,-39.978027,0,0
3274,2024 10 24,05:24:37.273,0.507131,-0.621076,-0.408545,-0.43609,-1.162633,-0.082522,-0.045412,7.751465,3.601074,-47.973633,0,0
3275,2024 10 24,05:24:37.282,0.509554,-0.622645,-0.406034,-0.433364,-1.194861,-0.077639,-0.090335,8.422852,1.831055,-57.128906,0,0
3276,2024 10 24,05:24:37.290,0.512525,-0.62443,-0.402876,-0.430227,-1.255409,-0.066408,-0.090823,9.399414,-0.12207,-68.115234,0,0
3277,2024 10 24,05:24:37.298,0.516004,-0.626551,-0.398932,-0.426646,-1.241737,-0.062502,-0.078127,9.399414,-2.441406,-81.115723,0,0
3278,2024 10 24,05:24:37.307,0.516004,-0.626551,-0.398932,-0.426646,-1.241737,-0.062502,-0.078127,9.399414,-2.441406,-81.115723,0,0
3279,2024 10 24,05:24:37.315,0.519922,-0.629104,-0.394212,-0.4225,-1.268105,-0.081057,-0.077639,8.361816,-2.563477,-94.482422,0,0
3280,2024 10 24,05:24:37.323,0.524393,-0.632062,-0.388705,-0.417634,-1.293496,-0.080569,-0.096683,9.94873,-2.685547,-109.25293,0,0
3281,2024 10 24,05:24:37.332,0.52943,-0.63538,-0.382344,-0.412079,-1.302286,-0.042482,-0.078127,10.253906,-2.685547,-124.267578,0,0
3282,2024 10 24,05:24:37.340,0.534733,-0.63937,-0.37502,-0.405742,-1.360393,-0.051271,-0.075686,6.835938,-2.075195,-141.113281,0,0
3283,2024 10 24,05:24:37.348,0.540518,-0.643962,-0.366438,-0.398594,-1.466842,0.019532,-0.078127,3.78418,-2.13623,-161.254883,0,0
3284,2024 10 24,05:24:37.357,0.540518,-0.643962,-0.366438,-0.398594,-1.466842,0.019532,-0.078127,3.78418,-2.13623,-161.254883,0,0
3285,2024 10 24,05:24:37.365,0.546737,-0.649278,-0.356498,-0.390416,-1.676809,0.034181,-0.113773,2.319336,-2.807617,-184.997559,0,0
3286,2024 10 24,05:24:37.373,0.554151,-0.654898,-0.344517,-0.381225,-1.854061,0.024903,-0.031251,6.347656,-14.526367,-215.393066,0,0
3287,2024 10 24,05:24:37.382,0.56341,-0.660415,-0.329867,-0.370956,-2.01764,0.16895,0.132328,9.70459,-30.212402,-251.831055,0,0
3288,2024 10 24,05:24:37.390,0.573646,-0.666558,-0.312036,-0.359534,-2.352123,0.248543,0.090823,7.568359,-45.959473,-292.96875,0,0
3289,2024 10 24,05:24:37.398,0.585175,-0.673308,-0.289854,-0.346715,-2.621662,0.147465,0.12891,-7.385254,-65.185547,-348.205566,0,0
3290,2024 10 24,05:24:37.407,0.585175,-0.673308,-0.289854,-0.346715,-2.621662,0.147465,0.12891,-7.385254,-65.185547,-348.205566,0,0
3291,2024 10 24,05:24:37.415,0.597401,-0.680993,-0.262801,-0.332107,-2.973724,0.053713,0.188971,-14.343262,-85.632324,-403.808594,0,0
3292,2024 10 24,05:24:37.423,0.610426,-0.688326,-0.230997,-0.316588,-2.938566,-0.171392,0.041505,-26.855469,-112.792969,-445.861816,0,0
3293,2024 10 24,05:24:37.432,0.623313,-0.694939,-0.195897,-0.300275,-2.722739,-0.63332,-0.129398,-27.404785,-128.78418,-470.336914,0,0
3294,2024 10 24,05:24:37.440,0.635558,-0.700296,-0.160132,-0.28286,-2.67684,-0.744652,-0.13184,-20.935059,-123.352051,-470.703125,0,0
3295,2024 10 24,05:24:37.448,0.647301,-0.703291,-0.124865,-0.266069,-2.623615,-0.385754,-0.056642,-13.366699,-137.634277,-454.589844,0,0
3296,2024 10 24,05:24:37.457,0.647301,-0.703291,-0.124865,-0.266069,-2.623615,-0.385754,-0.056642,-13.366699,-137.634277,-454.589844,0,0
3297,2024 10 24,05:24:37.465,0.658169,-0.704333,-0.089857,-0.250307,-2.271065,0.128422,0.330088,0.305176,-147.827148,-442.626953,0,0
3298,2024 10 24,05:24:37.473,0.667805,-0.704193,-0.055281,-0.234719,-1.688528,0.577166,0.413587,-0.549316,-140.563965,-433.105469,0,0
3299,2024 10 24,05:24:37.482,0.676676,-0.703098,-0.022455,-0.217389,-1.125523,0.861354,0.764183,3.112793,-118.103027,-429.870605,0,0
3300,2024 10 24,05:24:37.490,0.684564,-0.702057,0.008237,-0.19601,-1.134312,0.895047,0.561052,5.67627,-57.312012,-444.641113,0,0
3301,2024 10 24,05:24:37.498,0.693346,-0.699353,0.038124,-0.169482,-0.901883,0.439467,0.509781,34.912109,-15.50293,-490.05127,0,1
3302,2024 10 24,05:24:37.507,0.693346,-0.699353,0.038124,-0.169482,-0.901883,0.439467,0.509781,34.912109,-15.50293,-490.05127,0,0
3303,2024 10 24,05:24:37.515,0.702888,-0.694368,0.06531,-0.139772,-0.123051,-0.518571,0.408704,64.025879,32.897949,-455.932617,0,0
3304,2024 10 24,05:24:37.523,0.713697,-0.686302,0.078921,-0.11575,0.317392,0.50734,0.967803,120.666504,83.435059,-275.878906,0,0
3305,2024 10 24,05:24:37.532,0.722345,-0.679214,0.077407,-0.104374,0.500992,1.50737,0.370129,129.02832,111.083984,-35.095215,0,0
3306,2024 10 24,05:24:37.540,0.728797,-0.673515,0.062312,-0.106533,-0.555193,1.236854,0.140629,107.116699,100.524902,171.691895,0,0
3307,2024 10 24,05:24:37.548,0.731633,-0.67001,0.039535,-0.119315,-1.131382,1.141636,0.062502,80.688477,84.960938,297.912598,0,0
3308,2024 10 24,05:24:37.557,0.731633,-0.67001,0.039535,-0.119315,-1.131382,1.141636,0.062502,80.688477,84.960938,297.912598,0,0
3309,2024 10 24,05:24:37.565,0.730677,-0.668535,0.014878,-0.137665,-1.076693,0.898465,0.075686,35.766602,56.030273,345.153809,0,0
3310,2024 10 24,05:24:37.573,0.727028,-0.668321,-0.008859,-0.157156,-0.751488,0.756371,0.150884,9.216309,46.264648,341.369629,0,0
3311,2024 10 24,05:24:37.582,0.721477,-0.669364,-0.031024,-0.174526,-0.466323,0.652852,0.125492,-18.493652,59.143066,311.645508,0,0
3312,2024 10 24,05:24:37.590,0.714831,-0.671553,-0.052163,-0.187915,-0.411634,0.601581,0.056154,-35.217285,85.998535,272.521973,0,0
3313,2024 10 24,05:24:37.598,0.707034,-0.675026,-0.072737,-0.197868,-0.562517,0.565447,0.020508,-54.626465,109.008789,245.849609,0,0
3314,2024 10 24,05:24:37.607,0.707034,-0.675026,-0.072737,-0.197868,-0.562517,0.565447,0.020508,-54.626465,109.008789,245.849609,0,0
3315,2024 10 24,05:24:37.615,0.697896,-0.679459,-0.092851,-0.206531,-0.724631,0.527848,0.058596,-72.875977,113.525391,238.15918,0,0
3316,2024 10 24,05:24:37.623,0.687427,-0.684214,-0.112898,-0.215755,-0.892117,0.451186,0.022462,-86.486816,105.712891,247.314453,0,0
3317,2024 10 24,05:24:37.632,0.675857,-0.688495,-0.132508,-0.227231,-0.924345,0.394543,0.027345,-92.651367,84.655762,267.333984,0,0
3318,2024 10 24,05:24:37.640,0.663343,-0.691884,-0.152374,-0.240943,-0.933134,0.298837,-0.008789,-93.322754,70.617676,290.710449,0,0
3319,2024 10 24,05:24:37.648,0.650232,-0.694079,-0.173025,-0.255959,-0.883328,0.141606,-0.000977,-87.341309,68.115234,309.692383,0,0
3320,2024 10 24,05:24:37.657,0.636863,-0.694955,-0.195063,-0.270912,-0.848659,0.031739,-0.014161,-73.669434,77.880859,323.181152,0,0
3321,2024 10 24,05:24:37.665,0.636863,-0.694955,-0.195063,-0.270912,-0.848659,0.031739,-0.014161,-73.669434,77.880859,323.181152,0,0
3322,2024 10 24,05:24:37.673,0.62354,-0.694368,-0.218793,-0.284922,-0.915067,-0.02002,0.023927,-54.443359,93.994141,332.702637,0,0
3323,2024 10 24,05:24:37.682,0.610384,-0.692228,-0.244058,-0.297805,-1.115268,-0.039064,0.024415,-34.362793,107.23877,339.172363,0,0
3324,2024 10 24,05:24:37.690,0.597659,-0.688402,-0.270306,-0.309582,-1.342814,-0.066408,-0.061037,-12.268066,114.074707,340.759277,0,0
3325,2024 10 24,05:24:37.698,0.58561,-0.682693,-0.29678,-0.3208,-1.463912,-0.056642,-0.092288,7.995605,109.802246,342.163086,0,0
3326,2024 10 24,05:24:37.707,0.574087,-0.675105,-0.323254,-0.33191,-1.558641,-0.038087,-0.122074,24.047852,100.830078,346.618652,0,0
3327,2024 10 24,05:24:37.715,0.574087,-0.675105,-0.323254,-0.33191,-1.558641,-0.038087,-0.122074,24.047852,100.830078,346.618652,0,0
3328,2024 10 24,05:24:37.723,0.562856,-0.665703,-0.349736,-0.343099,-1.569872,-0.021485,-0.170415,36.621094,93.811035,353.515625,0,0
3329,2024 10 24,05:24:37.732,0.551337,-0.654903,-0.376588,-0.353993,-1.630909,-0.006348,-0.173345,45.349121,97.717285,361.694336,0,0
3330,2024 10 24,05:24:37.740,0.539003,-0.64308,-0.403877,-0.364427,-1.73101,-0.047365,-0.153325,48.76709,103.45459,370.300293,0,0
3331,2024 10 24,05:24:37.748,0.525627,-0.630509,-0.43129,-0.374384,-1.997131,-0.037111,-0.185553,45.288086,108.398438,375.549316,0,0
3332,2024 10 24,05:24:37.757,0.511235,-0.617194,-0.45839,-0.384173,-2.154363,-0.06592,-0.176763,41.992188,109.741211,380.310059,0,0
3333,2024 10 24,05:24:37.765,0.511235,-0.617194,-0.45839,-0.384173,-2.154363,-0.06592,-0.176763,41.992188,109.741211,380.310059,0,0
3334,2024 10 24,05:24:37.773,0.495642,-0.603265,-0.484996,-0.393941,-2.278878,-0.215339,-0.091311,34.790039,110.656738,386.71875,0,0
3335,2024 10 24,05:24:37.782,0.478773,-0.588789,-0.510636,-0.404173,-2.372143,-0.519059,-0.146977,20.751953,103.515625,392.089844,0,0
3336,2024 10 24,05:24:37.790,0.461108,-0.57405,-0.534691,-0.41467,-2.374096,-0.843287,-0.126469,5.737305,100.646973,387.634277,0,0
3337,2024 10 24,05:24:37.798,0.442381,-0.56042,-0.556798,-0.424504,-2.384838,-1.297403,-0.097171,-12.207031,106.750488,367.919922,0,0
3338,2024 10 24,05:24:37.807,0.423412,-0.548704,-0.575959,-0.433494,-2.393628,-1.691946,-0.10889,-34.729004,107.055664,333.984375,0,0
3339,2024 10 24,05:24:37.815,0.423412,-0.548704,-0.575959,-0.433494,-2.393628,-1.691946,-0.10889,-34.729004,107.055664,333.984375,0,0
3340,2024 10 24,05:24:37.823,0.404744,-0.539452,-0.591749,-0.441597,-2.18659,-2.009827,-0.184576,-55.786133,107.48291,291.19873,0,0
3341,2024 10 24,05:24:37.832,0.386207,-0.533526,-0.604069,-0.448659,-1.842341,-2.435133,-0.359874,-82.580566,116.271973,242.675781,0,0
3342,2024 10 24,05:24:37.840,0.368124,-0.531304,-0.612861,-0.454536,-1.40434,-2.791589,-0.628925,-105.773926,122.741699,188.293457,0,0
3343,2024 10 24,05:24:37.848,0.351768,-0.532811,-0.618005,-0.45874,-1.061068,-3.794549,-0.764183,-115.661621,127.624512,123.291016,0,0
3344,2024 10 24,05:24:37.857,0.336837,-0.538253,-0.620635,-0.46004,-1.634327,-4.937162,-0.635273,-109.130859,145.935059,70.617676,0,0
3345,2024 10 24,05:24:37.865,0.336837,-0.538253,-0.620635,-0.46004,-1.634327,-4.937162,-0.635273,-109.130859,145.935059,70.617676,0,0
3346,2024 10 24,05:24:37.873,0.328018,-0.544427,-0.620816,-0.458902,-1.606494,-4.735008,-0.430189,-67.443848,90.209961,9.277344,0,0
3347,2024 10 24,05:24:37.882,0.32785,-0.54988,-0.617701,-0.456718,-1.221229,-4.132938,-0.170415,-18.920898,21.118164,-57.189941,0,0
3348,2024 10 24,05:24:37.890,0.334419,-0.554839,-0.612604,-0.452807,-0.796899,-3.149998,-0.031739,26.550293,-19.53125,-106.689453,0,0
3349,2024 10 24,05:24:37.898,0.343462,-0.559808,-0.607446,-0.446832,-0.801294,-2.196844,0.02002,53.283691,-15.991211,-125.244141,0,0
3350,2024 10 24,05:24:37.907,0.352637,-0.564393,-0.602715,-0.440275,-0.909696,-1.48735,0.064455,58.532715,-16.296387,-122.924805,0,0
3351,2024 10 24,05:24:37.915,0.352637,-0.564393,-0.602715,-0.440275,-0.909696,-1.48735,0.064455,58.532715,-16.296387,-122.924805,0,0
3352,2024 10 24,05:24:37.923,0.361905,-0.56807,-0.599678,-0.432096,-11.445173,5.760918,-2.769616,111.877441,14.221191,-116.394043,0,0
3353,2024 10 24,05:24:37.932,0.388077,-0.564379,-0.602439,-0.409804,-0.396985,3.998169,1.520066,140.991211,-232.177734,-250.183105,0,0
3354,2024 10 24,05:24:37.940,0.410066,-0.569727,-0.580773,-0.412263,-0.644063,1.532762,-0.958037,-6.530762,-183.105469,-302.429199,0,0
3355,2024 10 24,05:24:37.948,0.422217,-0.586812,-0.554711,-0.411923,-2.91171,0.113773,0.499527,-135.192871,-99.243164,-352.111816,1,0
3356,2024 10 24,05:24:37.957,0.432843,-0.601485,-0.519732,-0.425138,-1.673391,-2.777917,-1.522507,-279.663086,-317.871094,-295.166016,0,0
3357,2024 10 24,05:24:37.965,0.432843,-0.601485,-0.519732,-0.425138,-1.673391,-2.777917,-1.522507,-279.663086,-317.871094,-295.166016,0,0
3358,2024 10 24,05:24:37.973,0.450847,-0.60365,-0.495123,-0.432663,-2.14362,-0.403821,1.247597,9.70459,-236.755371,-193.603516,0,0
3359,2024 10 24,05:24:37.982,0.463403,-0.600049,-0.476923,-0.444683,-1.018586,-0.132328,-0.202155,-74.584961,-286.987305,-91.97998,0,0
3360,2024 10 24,05:24:37.990,0.471077,-0.598058,-0.45678,-0.460179,-0.129887,-0.238777,-0.584002,-144.40918,-240.17334,-83.496094,0,0
3361,2024 10 24,05:24:37.998,0.474071,-0.599798,-0.44228,-0.468922,0.02295,-1.042024,-1.859432,-79.772949,-106.323242,-66.955566,0,0
3362,2024 10 24,05:24:38.007,0.478276,-0.597698,-0.440336,-0.469162,-1.156774,0.457533,0.768578,28.381348,-27.526855,-6.835938,0,0
3363,2024 10 24,05:24:38.015,0.478276,-0.597698,-0.440336,-0.469162,-1.156774,0.457533,0.768578,28.381348,-27.526855,-6.835938,0,0
3364,2024 10 24,05:24:38.023,0.477506,-0.598129,-0.43768,-0.471875,-1.029817,-0.34376,-0.459975,-27.160645,-30.334473,-9.82666,0,0
3365,2024 10 24,05:24:38.032,0.480206,-0.596526,-0.435415,-0.473259,-0.807154,-0.092288,-0.101566,2.075195,-39.733887,-12.390137,0,0
3366,2024 10 24,05:24:38.040,0.481295,-0.595703,-0.434276,-0.474234,-0.944853,0.009278,-0.172857,6.103516,-17.883301,-5.67627,0,0
3367,2024 10 24,05:24:38.048,0.482263,-0.595185,-0.433787,-0.474348,-1.003937,-0.047365,-0.109378,5.493164,-7.8125,-9.521484,0,0
3368,2024 10 24,05:24:38.057,0.483294,-0.594985,-0.433484,-0.473826,-0.993194,-0.020508,-0.147954,10.681152,0.549316,-11.71875,0,0
3369,2024 10 24,05:24:38.065,0.484601,-0.595001,-0.433245,-0.472689,-1.080599,-0.003418,0.027345,13.549805,0.854492,-18.127441,0,0
3370,2024 10 24,05:24:38.073,0.484601,-0.595001,-0.433245,-0.472689,-1.080599,-0.003418,0.027345,13.549805,0.854492,-18.127441,0,0
3371,2024 10 24,05:24:38.082,0.486288,-0.595091,-0.432581,-0.471449,-1.02884,-0.001465,-0.057131,13.427734,-4.333496,-22.705078,0,0
3372,2024 10 24,05:24:38.090,0.487928,-0.595296,-0.431251,-0.470714,-1.015656,-0.095706,-0.037111,3.90625,-10.742188,-24.047852,0,0
3373,2024 10 24,05:24:38.098,0.489619,-0.59538,-0.429696,-0.470274,-0.98587,-0.052248,-0.074221,2.868652,-13.977051,-22.644043,0,0
3374,2024 10 24,05:24:38.107,0.49109,-0.59539,-0.427853,-0.470407,-0.917997,-0.079592,-0.127445,-0.915527,-17.700195,-19.592285,0,0
3375,2024 10 24,05:24:38.115,0.492372,-0.595367,-0.426093,-0.470694,-0.923368,-0.038575,-0.12598,-2.685547,-16.235352,-17.089844,0,0
3376,2024 10 24,05:24:38.123,0.492372,-0.595367,-0.426093,-0.470694,-0.923368,-0.038575,-0.12598,-2.685547,-16.235352,-17.089844,0,0
3377,2024 10 24,05:24:38.132,0.493168,-0.595589,-0.424401,-0.471109,-0.918485,-0.107425,-0.117679,-7.995605,-13.000488,-14.404297,0,0
3378,2024 10 24,05:24:38.140,0.493831,-0.595927,-0.422914,-0.471324,-0.940947,-0.055177,-0.10303,-6.530762,-9.643555,-13.85498,0,0
3379,2024 10 24,05:24:38.148,0.494299,-0.596343,-0.421465,-0.471604,-0.978057,-0.067385,-0.083499,-9.155273,-8.666992,-13.61084,0,0
3380,2024 10 24,05:24:38.157,0.494811,-0.596732,-0.420134,-0.471763,-0.952666,-0.057131,-0.120121,-6.04248,-7.995605,-13.305664,0,0
3381,2024 10 24,05:24:38.165,0.495321,-0.597046,-0.418734,-0.472074,-0.954619,-0.052736,-0.113773,-7.446289,-9.643555,-12.634277,0,0
3382,2024 10 24,05:24:38.173,0.495321,-0.597046,-0.418734,-0.472074,-0.954619,-0.052736,-0.113773,-7.446289,-9.643555,-12.634277,0,0
3383,2024 10 24,05:24:38.182,0.495594,-0.597539,-0.417279,-0.472453,-0.988311,0.024903,-0.219245,-11.474609,-7.751465,-12.512207,0,0
3384,2024 10 24,05:24:38.190,0.495552,-0.598316,-0.415625,-0.472971,-0.976592,-0.066408,-0.15479,-19.592285,-6.774902,-13.977051,0,0
3385,2024 10 24,05:24:38.198,0.495502,-0.599491,-0.41389,-0.473057,-1.052767,-0.044435,-0.226569,-15.808105,-1.647949,-19.226074,0,0
3386,2024 10 24,05:24:38.207,0.496016,-0.600707,-0.411976,-0.472647,-1.044954,-0.080081,-0.148442,-10.253906,-2.624512,-26.672363,0,0
3387,2024 10 24,05:24:38.215,0.497208,-0.601812,-0.409988,-0.471716,-1.000519,-0.095218,-0.125492,-3.051758,-4.089355,-32.592773,0,0
3388,2024 10 24,05:24:38.223,0.497208,-0.601812,-0.409988,-0.471716,-1.000519,-0.095218,-0.125492,-3.051758,-4.089355,-32.592773,0,0
3389,2024 10 24,05:24:38.232,0.498828,-0.602823,-0.407921,-0.470506,-0.995636,-0.109378,-0.11182,0.061035,-4.150391,-36.254883,0,0
3390,2024 10 24,05:24:38.240,0.500752,-0.603826,-0.405866,-0.468951,-0.986847,-0.119633,-0.100589,4.760742,-3.90625,-39.611816,0,0
3391,2024 10 24,05:24:38.248,0.503002,-0.604713,-0.403848,-0.467139,-0.986358,-0.130375,-0.111332,9.155273,-3.90625,-41.625977,0,0
3392,2024 10 24,05:24:38.257,0.505618,-0.605414,-0.401805,-0.465164,-0.98294,-0.12891,-0.088382,12.878418,-5.92041,-43.823242,0,0
3393,2024 10 24,05:24:38.265,0.508424,-0.606066,-0.399712,-0.463054,-0.980987,-0.136723,-0.093265,14.282227,-6.164551,-45.898438,0,0
3394,2024 10 24,05:24:38.273,0.508424,-0.606066,-0.399712,-0.463054,-0.980987,-0.136723,-0.093265,14.282227,-6.164551,-45.898438,0,0
3395,2024 10 24,05:24:38.282,0.51147,-0.606595,-0.397567,-0.460849,-0.970733,-0.149419,-0.073244,18.249512,-8.178711,-47.241211,0,0
3396,2024 10 24,05:24:38.290,0.514758,-0.606918,-0.395425,-0.4586,-0.956572,-0.160161,-0.107913,20.507813,-9.70459,-47.546387,0,0
3397,2024 10 24,05:24:38.298,0.5182,-0.60715,-0.393314,-0.456226,-0.959014,-0.135258,-0.104007,21.54541,-9.277344,-48.64502,0,0
3398,2024 10 24,05:24:38.307,0.52156,-0.607485,-0.39118,-0.453779,-0.990753,-0.157231,-0.133305,21.606445,-8.178711,-49.377441,0,0
3399,2024 10 24,05:24:38.315,0.525021,-0.607817,-0.388917,-0.451281,-0.997101,-0.158208,-0.161626,20.385742,-8.300781,-51.269531,0,0
3400,2024 10 24,05:24:38.323,0.525021,-0.607817,-0.388917,-0.451281,-0.997101,-0.158208,-0.161626,20.385742,-8.300781,-51.269531,0,0
3401,2024 10 24,05:24:38.332,0.528681,-0.608066,-0.386526,-0.44872,-0.989776,-0.142094,-0.112796,24.108887,-11.413574,-53.588867,0,0
3402,2024 10 24,05:24:38.340,0.532334,-0.608467,-0.384038,-0.445985,-0.984405,-0.187994,-0.143559,21.54541,-8.361816,-55.786133,0,0
3403,2024 10 24,05:24:38.348,0.536238,-0.608812,-0.381507,-0.443001,-0.970244,-0.158208,-0.133793,26.062012,-9.033203,-58.654785,0,0
3404,2024 10 24,05:24:38.357,0.540155,-0.609275,-0.378968,-0.439772,-0.977081,-0.180181,-0.136235,25.268555,-6.04248,-60.913086,0,0
3405,2024 10 24,05:24:38.365,0.544162,-0.60983,-0.376413,-0.436243,-0.972198,-0.161138,-0.133305,27.34375,-4.394531,-63.842773,0,0
3406,2024 10 24,05:24:38.373,0.544162,-0.60983,-0.376413,-0.436243,-0.972198,-0.161138,-0.133305,27.34375,-4.394531,-63.842773,0,0
3407,2024 10 24,05:24:38.382,0.548023,-0.610639,-0.373794,-0.432514,-1.004425,-0.164556,-0.146001,23.681641,-1.342773,-65.795898,0,0
3408,2024 10 24,05:24:38.390,0.551738,-0.61178,-0.370997,-0.428569,-1.033723,-0.140141,-0.167486,21.240234,1.525879,-70.129395,0,0
3409,2024 10 24,05:24:38.398,0.555429,-0.613346,-0.367987,-0.424135,-1.11478,-0.115726,-0.176275,20.019531,6.591797,-77.331543,0,0
3410,2024 10 24,05:24:38.407,0.558923,-0.615459,-0.364457,-0.419506,-1.167028,-0.12891,-0.228034,9.643555,6.04248,-83.984375,0,0
3411,2024 10 24,05:24:38.415,0.562363,-0.618348,-0.360177,-0.414326,-1.240272,-0.107425,-0.114261,5.004883,12.390137,-97.290039,0,0
3412,2024 10 24,05:24:38.423,0.565697,-0.622099,-0.355158,-0.408464,-1.353557,-0.191412,-0.112796,5.004883,12.390137,-97.290039,0,0
3413,2024 10 24,05:24:38.432,0.565697,-0.622099,-0.355158,-0.408464,-1.353557,-0.191412,-0.112796,-0.366211,13.244629,-110.107422,0,0
3414,2024 10 24,05:24:38.440,0.570059,-0.625713,-0.349015,-0.402126,-1.305216,-0.113773,-0.041017,5.615234,4.577637,-126.831055,0,0
3415,2024 10 24,05:24:38.448,0.574736,-0.63,-0.341894,-0.394826,-1.374554,-0.167486,-0.139653,2.624512,7.263184,-144.775391,0,0
3416,2024 10 24,05:24:38.457,0.580284,-0.634433,-0.333503,-0.386705,-1.369671,-0.06299,-0.034669,2.502441,2.319336,-164.18457,0,0
3417,2024 10 24,05:24:38.465,0.586269,-0.639354,-0.323835,-0.377686,-1.505905,-0.078127,-0.1919,5.432129,-1.708984,-185.119629,0,0
3418,2024 10 24,05:24:38.473,0.59362,-0.644169,-0.312492,-0.367437,-1.692434,0.117191,-0.041505,8.361816,-5.371094,-215.637207,0,0
3419,2024 10 24,05:24:38.482,0.59362,-0.644169,-0.312492,-0.367437,-1.692434,0.117191,-0.041505,8.361816,-5.371094,-215.637207,0,0
3420,2024 10 24,05:24:38.490,0.601216,-0.650328,-0.298644,-0.355562,-2.036683,0.117191,-0.050295,-1.098633,-9.887695,-254.455566,0,0
3421,2024 10 24,05:24:38.498,0.610085,-0.657138,-0.28127,-0.341838,-2.459548,0.164556,-0.122074,-4.760742,-23.620605,-302.856445,0,0
3422,2024 10 24,05:24:38.507,0.620315,-0.664416,-0.259412,-0.326291,-2.990326,0.135258,-0.204108,-12.817383,-44.006348,-361.999512,0,0
3423,2024 10 24,05:24:38.515,0.631929,-0.671909,-0.23256,-0.308414,-3.139256,0.101566,-0.112796,-14.587402,-65.429688,-424.804688,0,0
3424,2024 10 24,05:24:38.523,0.642921,-0.680556,-0.19997,-0.288977,-2.960051,-0.191412,0.011231,-55.725098,-90.209961,-481.750488,0,0
3425,2024 10 24,05:24:38.532,0.642921,-0.680556,-0.19997,-0.288977,-2.960051,-0.191412,0.011231,-55.725098,-90.209961,-481.750488,0,0
3426,2024 10 24,05:24:38.540,0.652476,-0.689187,-0.16509,-0.268406,-2.511796,-1.060579,-0.259774,-40.283203,-92.407227,-484.863281,0,0
3427,2024 10 24,05:24:38.548,0.662332,-0.695134,-0.129892,-0.247453,-2.348216,-0.841823,-0.078616,-42.907715,-99.609375,-480.957031,0,0
3428,2024 10 24,05:24:38.557,0.670826,-0.69962,-0.096203,-0.226428,-2.273019,-0.714377,0.045412,-31.311035,-83.435059,-465.454102,0,0
3429,2024 10 24,05:24:38.565,0.679329,-0.701777,-0.064292,-0.204664,-2.037172,0.432142,0.30958,-3.662109,-73.181152,-457.214355,0,0
3430,2024 10 24,05:24:38.573,0.686707,-0.703021,-0.033815,-0.1818,-1.354534,0.592303,0.447768,7.019043,-44.86084,-450.683594,0,0
3431,2024 10 24,05:24:38.582,0.686707,-0.703021,-0.033815,-0.1818,-1.354534,0.592303,0.447768,7.019043,-44.86084,-450.683594,0,0
3432,2024 10 24,05:24:38.590,0.693651,-0.703111,-0.005953,-0.156357,-0.859401,0.678243,0.634297,11.169434,-5.249023,-445.495605,0,0
3433,2024 10 24,05:24:38.598,0.700839,-0.701899,0.018161,-0.125829,-0.860866,0.293954,0.6592,36.315918,72.692871,-458.374023,0,0
3434,2024 10 24,05:24:38.607,0.710587,-0.696869,0.038504,-0.089196,-0.514176,-0.152837,0.789087,103.088379,142.63916,-486.938477,0,1
3435,2024 10 24,05:24:38.615,0.722518,-0.687597,0.051329,-0.050428,-0.000977,-0.693869,0.252937,165.161133,218.078613,-397.888184,0,0
3436,2024 10 24,05:24:38.623,0.73648,-0.674284,0.048301,-0.024606,0.116703,1.309122,1.150426,208.557129,226.5625,-132.995605,0,0
3437,2024 10 24,05:24:38.632,0.73648,-0.674284,0.048301,-0.024606,0.116703,1.309122,1.150426,208.557129,226.5625,-132.995605,0,0
3438,2024 10 24,05:24:38.640,0.74632,-0.664566,0.031374,-0.019345,-0.768578,2.069399,-0.437513,151.245117,165.100098,140.136719,0,0
3439,2024 10 24,05:24:38.648,0.75185,-0.65843,0.009803,-0.033102,-1.418012,1.326701,0.07178,78.979492,56.030273,311.706543,0,0
3440,2024 10 24,05:24:38.657,0.752549,-0.655757,-0.012455,-0.059146,-1.695853,0.440443,0.197272,34.118652,-28.381348,399.902344,0,0
3441,2024 10 24,05:24:38.665,0.750826,-0.653261,-0.030964,-0.092476,-1.187536,0.013184,0.2378,7.93457,-113.098145,421.691895,0,0
3442,2024 10 24,05:24:38.673,0.747745,-0.650326,-0.046521,-0.12566,-0.390149,0.055666,0.299814,7.93457,-110.473633,390.991211,0,0
3443,2024 10 24,05:24:38.682,0.747745,-0.650326,-0.046521,-0.12566,-0.390149,0.055666,0.299814,7.93457,-110.473633,390.991211,0,0
3444,2024 10 24,05:24:38.690,0.743936,-0.647783,-0.062279,-0.151846,0.041017,0.117679,0.301279,3.234863,-46.569824,330.871582,0,0
3445,2024 10 24,05:24:38.698,0.740165,-0.645854,-0.078959,-0.169688,0.199225,0.237312,0.282723,6.958008,28.320313,270.141602,0,0
3446,2024 10 24,05:24:38.707,0.735811,-0.645242,-0.097593,-0.180889,-0.160649,0.259774,0.238777,-2.258301,92.041016,235.107422,0,0
3447,2024 10 24,05:24:38.715,0.730543,-0.645636,-0.117726,-0.188683,-0.57326,0.37257,0.159185,-10.742188,125.061035,220.76416,0,0
3448,2024 10 24,05:24:38.723,0.724003,-0.646719,-0.138346,-0.196046,-0.847682,0.38966,0.084964,-25.695801,126.647949,225.036621,0,0
3449,2024 10 24,05:24:38.732,0.724003,-0.646719,-0.138346,-0.196046,-0.847682,0.38966,0.084964,-25.695801,126.647949,225.036621,0,0
3450,2024 10 24,05:24:38.740,0.716085,-0.647995,-0.158821,-0.205183,-1.002472,0.387707,0.013184,-43.09082,111.816406,243.408203,0,0
3451,2024 10 24,05:24:38.748,0.706657,-0.649198,-0.179018,-0.217093,-1.014679,0.317392,-0.039552,-58.59375,92.224121,268.127441,0,0
3452,2024 10 24,05:24:38.757,0.695747,-0.650177,-0.199329,-0.231245,-0.971221,0.169439,-0.015625,-69.885254,82.092285,290.83252,0,0
3453,2024 10 24,05:24:38.765,0.683696,-0.650602,-0.220372,-0.246401,-0.855495,0.030763,0.023927,-71.777344,84.838867,308.166504,0,0
3454,2024 10 24,05:24:38.773,0.6708,-0.650221,-0.242801,-0.261318,-0.863796,-0.06006,0.100101,-65.429688,100.097656,320.800781,0,0
3455,2024 10 24,05:24:38.782,0.6708,-0.650221,-0.242801,-0.261318,-0.863796,-0.06006,0.100101,-65.429688,100.097656,320.800781,0,0
3456,2024 10 24,05:24:38.790,0.657384,-0.648864,-0.266582,-0.275237,-1.022492,-0.141118,0.08887,-53.344727,114.990234,325.683594,0,0
3457,2024 10 24,05:24:38.798,0.644019,-0.646259,-0.29088,-0.288059,-1.231971,-0.174322,0.031739,-37.902832,121.09375,322.998047,0,0
3458,2024 10 24,05:24:38.807,0.631095,-0.642268,-0.314813,-0.300174,-1.426801,-0.146001,-0.014649,-25.085449,114.318848,317.382813,0,0
3459,2024 10 24,05:24:38.815,0.618691,-0.636842,-0.337728,-0.312398,-1.488815,-0.151372,-0.050783,-15.075684,98.510742,315.124512,0,0
3460,2024 10 24,05:24:38.823,0.606589,-0.630004,-0.359854,-0.325038,-1.476608,-0.131352,-0.064455,-8.605957,84.533691,318.237305,0,0
3461,2024 10 24,05:24:38.832,0.594271,-0.621962,-0.381561,-0.338254,-1.435102,-0.106937,-0.027345,-6.652832,75.744629,326.904297,0,0
3462,2024 10 24,05:24:38.840,0.594271,-0.621962,-0.381561,-0.338254,-1.435102,-0.106937,-0.027345,-6.652832,75.744629,326.904297,0,0
3463,2024 10 24,05:24:38.848,0.581124,-0.613058,-0.403459,-0.351676,-1.503952,-0.067385,0.011719,-7.751465,77.941895,336.364746,0,0
3464,2024 10 24,05:24:38.857,0.566817,-0.603566,-0.425634,-0.365051,-1.586474,-0.08301,0.052248,-10.498047,84.411621,345.52002,0,0
3465,2024 10 24,05:24:38.865,0.551105,-0.593855,-0.447819,-0.378256,-1.734428,-0.098148,0.064943,-19.470215,91.125488,350.891113,0,0
3466,2024 10 24,05:24:38.873,0.533923,-0.584155,-0.469455,-0.391537,-1.946837,-0.113773,0.084964,-34.179688,93.261719,353.637695,0,0
3467,2024 10 24,05:24:38.882,0.515433,-0.574641,-0.489831,-0.405193,-2.058168,-0.173833,0.109867,-52.246094,90.026855,351.501465,0,0
3468,2024 10 24,05:24:38.890,0.515433,-0.574641,-0.489831,-0.405193,-2.058168,-0.173833,0.109867,-52.246094,90.026855,351.501465,0,0
3469,2024 10 24,05:24:38.898,0.495726,-0.565427,-0.508769,-0.419169,-2.023988,-0.370617,0.159185,-70.007324,89.294434,349.243164,0,0
3470,2024 10 24,05:24:38.907,0.47478,-0.556729,-0.5266,-0.432816,-2.010315,-0.589373,0.229499,-84.106445,96.801758,344.299316,0,0
3471,2024 10 24,05:24:38.915,0.452661,-0.54877,-0.54344,-0.445672,-2.068911,-0.876003,0.286142,-94.848633,106.750488,335.632324,0,0
3472,2024 10 24,05:24:38.923,0.430023,-0.54161,-0.559045,-0.457393,-2.198309,-1.203162,0.278329,-101.379395,114.135742,320.129395,0,0
3473,2024 10 24,05:24:38.932,0.407581,-0.535369,-0.573,-0.467898,-2.236396,-1.582568,0.250984,-105.163574,116.149902,297.729492,0,0
3474,2024 10 24,05:24:38.940,0.407581,-0.535369,-0.573,-0.467898,-2.236396,-1.582568,0.250984,-105.163574,116.149902,297.729492,0,0
3475,2024 10 24,05:24:38.948,0.385956,-0.530166,-0.585089,-0.477109,-2.108463,-1.961486,0.20069,-106.445313,115.539551,270.385742,0,0
3476,2024 10 24,05:24:38.957,0.36561,-0.526326,-0.59505,-0.485001,-1.824274,-2.400464,0.030763,-108.337402,112.915039,235.839844,0,0
3477,2024 10 24,05:24:38.965,0.347304,-0.524372,-0.602689,-0.491101,-1.144566,-2.732017,-0.307138,-103.33252,112.609863,188.110352,0,0
3478,2024 10 24,05:24:38.973,0.330492,-0.525808,-0.608203,-0.494358,-1.245643,-3.612415,-0.700217,-101.745605,139.038086,133.850098,0,0
3479,2024 10 24,05:24:38.982,0.315896,-0.530486,-0.611661,-0.494637,-2.061586,-4.016724,-0.953154,-88.867188,141.052246,77.758789,0,0
3480,2024 10 24,05:24:38.990,0.315896,-0.530486,-0.611661,-0.494637,-2.061586,-4.016724,-0.953154,-88.867188,141.052246,77.758789,0,0
3481,2024 10 24,05:24:38.998,0.31,-0.539726,-0.609971,-0.490439,-1.941954,-4.455702,-1.542039,-60.852051,102.905273,-75.805664,0,0
3482,2024 10 24,05:24:39.007,0.316055,-0.551579,-0.60176,-0.483483,-1.943907,-4.162236,-1.314982,0.427246,45.043945,-200.317383,0,0
3483,2024 10 24,05:24:39.015,0.331183,-0.565342,-0.587526,-0.474889,-1.411176,-3.435163,-1.228553,30.761719,-33.752441,-301.757813,0,0
3484,2024 10 24,05:24:39.023,0.356371,-0.577721,-0.571326,-0.461329,-1.013214,-0.026368,2.124088,184.631348,-72.08252,-374.938965,1,0
3485,2024 10 24,05:24:39.032,0.373512,-0.592814,-0.553743,-0.449921,-2.624592,0.783715,0.007813,-89.111328,-44.006348,-333.984375,0,0
3486,2024 10 24,05:24:39.040,0.373512,-0.592814,-0.553743,-0.449921,-2.624592,0.783715,0.007813,-89.111328,-44.006348,-333.984375,0,0
3487,2024 10 24,05:24:39.048,0.383988,-0.606782,-0.526975,-0.454605,-2.71981,-0.940458,-0.842311,-118.591309,-171.447754,-299.01123,0,0
3488,2024 10 24,05:24:39.057,0.402316,-0.610165,-0.498075,-0.466649,-1.125523,-0.746117,-0.632344,-114.074707,-317.932129,-239.562988,0,0
3489,2024 10 24,05:24:39.065,0.413028,-0.613059,-0.478474,-0.47395,-1.287149,-0.960967,-0.024415,-58.044434,-127.197266,-153.320313,0,0
3490,2024 10 24,05:24:39.073,0.420959,-0.613515,-0.468288,-0.476549,-1.256386,-0.110355,0.098148,-26.550293,-116.149902,-88.806152,0,0
3491,2024 10 24,05:24:39.082,0.425959,-0.613206,-0.458275,-0.482204,-1.033723,0.043458,0.077151,-49.377441,-107.666016,-64.27002,0,0
3492,2024 10 24,05:24:39.090,0.425959,-0.613206,-0.458275,-0.482204,-1.033723,0.043458,0.077151,-49.377441,-107.666016,-64.27002,0,0
3493,2024 10 24,05:24:39.098,0.427996,-0.613575,-0.449055,-0.488564,-1.012238,-0.202155,0.158696,-78.125,-98.144531,-42.907715,0,0
3494,2024 10 24,05:24:39.107,0.430607,-0.612795,-0.440073,-0.495375,-1.053743,-0.248543,0.052736,-56.335449,-113.28125,-38.879395,0,0
3495,2024 10 24,05:24:39.115,0.43462,-0.610522,-0.432043,-0.501704,-0.794458,-0.180181,-0.328135,-30.029297,-111.877441,-36.193848,0,0
3496,2024 10 24,05:24:39.123,0.438584,-0.608502,-0.42662,-0.505336,-0.857936,0.038087,-0.161138,-7.080078,-71.411133,-31.677246,0,0
3497,2024 10 24,05:24:39.132,0.441277,-0.607729,-0.422618,-0.50728,-0.712424,-0.149907,-0.529313,-8.117676,-43.151855,-30.334473,0,0
3498,2024 10 24,05:24:39.140,0.441277,-0.607729,-0.422618,-0.50728,-0.712424,-0.149907,-0.529313,-8.117676,-43.151855,-30.334473,0,0
3499,2024 10 24,05:24:39.148,0.443142,-0.607768,-0.420434,-0.507423,-0.906278,0.034669,0.031251,-7.202148,-11.901855,-22.827148,0,0
3500,2024 10 24,05:24:39.157,0.443996,-0.608627,-0.418339,-0.507379,-1.02591,-0.025391,-0.095706,-4.394531,-10.009766,-24.536133,0,0
3501,2024 10 24,05:24:39.165,0.445245,-0.609098,-0.416508,-0.507226,-0.990753,-0.062014,-0.094241,-5.004883,-9.765625,-23.31543,0,0
3502,2024 10 24,05:24:39.173,0.446812,-0.609281,-0.414896,-0.506948,-0.968291,-0.020508,-0.058596,3.78418,-12.084961,-22.277832,0,0
3503,2024 10 24,05:24:39.182,0.448375,-0.609322,-0.413382,-0.506756,-0.949248,-0.070803,-0.10596,4.02832,-12.512207,-20.568848,0,0
3504,2024 10 24,05:24:39.190,0.448375,-0.609322,-0.413382,-0.506756,-0.949248,-0.070803,-0.10596,4.02832,-12.512207,-20.568848,0,0
3505,2024 10 24,05:24:39.198,0.449923,-0.609228,-0.412195,-0.506464,-0.987823,-0.025391,-0.085452,4.760742,-10.864258,-18.066406,0,0
3506,2024 10 24,05:24:39.207,0.451479,-0.609018,-0.410977,-0.506322,-0.970244,-0.042482,-0.066897,6.164551,-13.977051,-17.883301,0,0
3507,2024 10 24,05:24:39.215,0.453069,-0.608701,-0.409846,-0.506199,-0.96292,-0.028809,-0.094241,6.469727,-12.939453,-16.418457,0,0
3508,2024 10 24,05:24:39.223,0.454431,-0.608559,-0.408635,-0.506128,-0.938017,-0.026856,-0.140629,2.380371,-11.71875,-16.662598,0,0
3509,2024 10 24,05:24:39.232,0.455485,-0.608591,-0.407407,-0.506133,-0.933134,-0.031739,-0.12891,-0.915527,-8.972168,-14.831543,0,0
3510,2024 10 24,05:24:39.240,0.456231,-0.608804,-0.406281,-0.506109,-0.960967,-0.030763,-0.089358,-2.746582,-6.286621,-13.671875,0,0
3511,2024 10 24,05:24:39.248,0.456231,-0.608804,-0.406281,-0.506109,-0.960967,-0.030763,-0.089358,-2.746582,-6.286621,-13.671875,0,0
3512,2024 10 24,05:24:39.257,0.456823,-0.609108,-0.405115,-0.506144,-0.974151,-0.043947,-0.080569,-4.211426,-6.896973,-13.427734,0,0
3513,2024 10 24,05:24:39.265,0.457414,-0.609318,-0.403903,-0.506327,-0.983428,-0.028809,-0.121586,-4.333496,-7.995605,-12.084961,0,0
3514,2024 10 24,05:24:39.273,0.457986,-0.609487,-0.402581,-0.506658,-0.966338,-0.02588,-0.112796,-8.117676,-10.864258,-11.71875,0,0
3515,2024 10 24,05:24:39.282,0.458319,-0.609726,-0.401162,-0.507195,-0.95999,-0.04004,-0.133793,-11.84082,-10.681152,-10.192871,0,0
3516,2024 10 24,05:24:39.290,0.458451,-0.61022,-0.39966,-0.507668,-0.946806,-0.037111,-0.141606,-13.61084,-6.774902,-11.84082,0,0
3517,2024 10 24,05:24:39.298,0.458451,-0.61022,-0.39966,-0.507668,-0.946806,-0.037111,-0.141606,-13.61084,-6.774902,-11.84082,0,0
3518,2024 10 24,05:24:39.307,0.458416,-0.610971,-0.398075,-0.508041,-0.971221,-0.048341,-0.140141,-15.441895,-4.943848,-13.061523,0,0
3519,2024 10 24,05:24:39.315,0.458477,-0.61182,-0.396556,-0.508151,-0.950713,-0.054201,-0.121586,-13.000488,-2.502441,-15.50293,0,0
3520,2024 10 24,05:24:39.323,0.458542,-0.612799,-0.395147,-0.508012,-0.960967,-0.073733,-0.126957,-11.962891,0.915527,-16.235352,0,0
3521,2024 10 24,05:24:39.332,0.458842,-0.613748,-0.393793,-0.507646,-0.967315,-0.067385,-0.115726,-8.056641,0.488281,-18.432617,0,0
3522,2024 10 24,05:24:39.340,0.459345,-0.614615,-0.392455,-0.507178,-0.961943,-0.089358,-0.100101,-6.04248,0.244141,-19.470215,0,0
3523,2024 10 24,05:24:39.348,0.459345,-0.614615,-0.392455,-0.507178,-0.961943,-0.089358,-0.100101,-6.04248,0.244141,-19.470215,0,0
3524,2024 10 24,05:24:39.357,0.460063,-0.615369,-0.39115,-0.50662,-0.949248,-0.087405,-0.097171,-3.90625,-1.159668,-20.080566,0,0
3525,2024 10 24,05:24:39.365,0.460856,-0.616062,-0.389904,-0.506018,-0.943876,-0.092776,-0.090823,-2.441406,-0.793457,-20.019531,0,0
3526,2024 10 24,05:24:39.373,0.461736,-0.616675,-0.38869,-0.505403,-0.93997,-0.101077,-0.084475,-1.159668,-1.831055,-19.958496,0,0
3527,2024 10 24,05:24:39.382,0.462704,-0.617204,-0.387566,-0.504735,-0.953154,-0.093753,-0.093265,0.915527,-1.525879,-19.897461,0,0
3528,2024 10 24,05:24:39.390,0.463746,-0.617667,-0.386481,-0.504043,-0.949736,-0.101566,-0.090335,1.831055,-2.13623,-19.836426,0,0
3529,2024 10 24,05:24:39.398,0.463746,-0.617667,-0.386481,-0.504043,-0.949736,-0.101566,-0.090335,1.831055,-2.13623,-19.836426,0,0
3530,2024 10 24,05:24:39.407,0.464852,-0.618074,-0.385483,-0.503289,-0.943876,-0.102054,-0.111332,3.356934,-1.037598,-19.65332,0,0
3531,2024 10 24,05:24:39.415,0.466027,-0.618446,-0.384551,-0.502459,-0.949248,-0.089846,-0.120121,5.004883,-1.403809,-19.958496,0,0
3532,2024 10 24,05:24:39.423,0.467242,-0.618816,-0.383641,-0.501568,-0.931669,-0.096683,-0.123051,4.882813,-0.305176,-20.446777,0,0
3533,2024 10 24,05:24:39.432,0.468387,-0.619313,-0.382814,-0.500518,-0.93704,-0.104495,-0.115726,4.882813,2.258301,-20.751953,0,0
3534,2024 10 24,05:24:39.440,0.469482,-0.619877,-0.382027,-0.499394,-0.946318,-0.104007,-0.123539,4.943848,3.295898,-21.057129,0,0
3535,2024 10 24,05:24:39.448,0.469482,-0.619877,-0.382027,-0.499394,-0.946318,-0.104007,-0.123539,4.943848,3.295898,-21.057129,0,0
3536,2024 10 24,05:24:39.457,0.470628,-0.620472,-0.381246,-0.498172,-0.964873,-0.114261,-0.089358,5.859375,4.089355,-22.033691,0,0
3537,2024 10 24,05:24:39.465,0.471987,-0.620992,-0.380471,-0.496828,-0.994659,-0.094241,-0.100589,8.666992,2.563477,-23.742676,0,0
3538,2024 10 24,05:24:39.473,0.473483,-0.621549,-0.379616,-0.49536,-1.004425,-0.089358,-0.136723,8.850098,4.02832,-26.367188,0,0
3539,2024 10 24,05:24:39.482,0.475155,-0.622217,-0.37856,-0.493727,-1.040559,-0.08887,-0.092776,9.216309,2.990723,-30.517578,0,0
3540,2024 10 24,05:24:39.490,0.476972,-0.623069,-0.377308,-0.491855,-1.052278,-0.070315,-0.109867,8.666992,5.737305,-34.973145,0,0
3541,2024 10 24,05:24:39.498,0.476972,-0.623069,-0.377308,-0.491855,-1.052278,-0.070315,-0.109867,8.666992,5.737305,-34.973145,0,0
3542,2024 10 24,05:24:39.507,0.478788,-0.624321,-0.375809,-0.489646,-1.111362,-0.052248,-0.112796,6.04248,6.958008,-40.771484,0,0
3543,2024 10 24,05:24:39.515,0.480636,-0.625926,-0.373731,-0.487371,-1.148473,-0.038087,-0.104007,1.342773,8.056641,-47.363281,0,0
3544,2024 10 24,05:24:39.523,0.482506,-0.628066,-0.371107,-0.484769,-1.230018,-0.040529,-0.104007,-2.624512,9.155273,-56.640625,0,0
3545,2024 10 24,05:24:39.532,0.484876,-0.630595,-0.367703,-0.481704,-1.277383,-0.025391,-0.100101,-3.051758,7.995605,-70.739746,0,0
3546,2024 10 24,05:24:39.540,0.487893,-0.63357,-0.363501,-0.477929,-1.31547,-0.041017,-0.070803,-1.89209,8.178711,-86.547852,0,0
3547,2024 10 24,05:24:39.548,0.487893,-0.63357,-0.363501,-0.477929,-1.31547,-0.041017,-0.070803,-1.89209,8.178711,-86.547852,0,0
3548,2024 10 24,05:24:39.557,0.49188,-0.636747,-0.358391,-0.473458,-1.312052,-0.020997,-0.073244,2.807617,5.126953,-103.393555,0,0
3549,2024 10 24,05:24:39.565,0.496634,-0.640288,-0.352369,-0.468212,-1.383343,-0.013672,-0.101077,3.845215,4.699707,-120.361328,0,0
3550,2024 10 24,05:24:39.573,0.502493,-0.644065,-0.345177,-0.462097,-1.49321,0.043458,-0.06885,8.789063,0.12207,-142.272949,0,0
3551,2024 10 24,05:24:39.582,0.509267,-0.64841,-0.336589,-0.454885,-1.657277,0.079592,-0.096194,7.568359,2.624512,-167.663574,0,0
3552,2024 10 24,05:24:39.590,0.517441,-0.65332,-0.326231,-0.446096,-1.895077,0.149419,-0.039064,13.977051,-2.075195,-202.941895,0,0
3553,2024 10 24,05:24:39.598,0.517441,-0.65332,-0.326231,-0.446096,-1.895077,0.149419,-0.039064,13.977051,-2.075195,-202.941895,0,0
3554,2024 10 24,05:24:39.607,0.527414,-0.658724,-0.313272,-0.435635,-2.078677,0.178716,0.076174,15.563965,-10.375977,-245.849609,0,0
3555,2024 10 24,05:24:39.615,0.539073,-0.664634,-0.2969,-0.423689,-2.266671,0.313486,0.075198,11.291504,-23.620605,-292.053223,0,0
3556,2024 10 24,05:24:39.623,0.552259,-0.670747,-0.276641,-0.410583,-2.623615,0.340342,0.23487,10.192871,-47.058105,-340.820313,0,0
3557,2024 10 24,05:24:39.632,0.566349,-0.677227,-0.251472,-0.396704,-3.032319,0.17188,-0.058107,-10.803223,-75.012207,-390.075684,0,0
3558,2024 10 24,05:24:39.640,0.581376,-0.683315,-0.220689,-0.382596,-2.987396,0.038575,0.058107,-30.883789,-115.17334,-435.241699,0,0
3559,2024 10 24,05:24:39.648,0.595513,-0.689049,-0.186074,-0.368718,-2.503983,-0.310068,-0.077639,-42.053223,-137.817383,-455.505371,0,0
3560,2024 10 24,05:24:39.657,0.595513,-0.689049,-0.186074,-0.368718,-2.503983,-0.310068,-0.077639,-42.053223,-137.817383,-455.505371,0,0
3561,2024 10 24,05:24:39.665,0.608668,-0.693968,-0.15019,-0.354081,-2.562578,-0.842311,-0.175787,-52.612305,-131.530762,-456.90918,0,1
3562,2024 10 24,05:24:39.673,0.621354,-0.696511,-0.11538,-0.339822,-2.497635,-0.386731,0.081545,-29.846191,-147.949219,-435.241699,0,0
3563,2024 10 24,05:24:39.682,0.632768,-0.697117,-0.080238,-0.327406,-2.215888,0.000488,0.164068,-28.564453,-167.907715,-421.936035,0,0
3564,2024 10 24,05:24:39.690,0.643683,-0.695873,-0.045639,-0.315198,-1.86578,0.618183,0.419935,-20.935059,-166.931152,-412.719727,0,0
3565,2024 10 24,05:24:39.698,0.653394,-0.693888,-0.011633,-0.302424,-1.41557,0.938994,0.533708,-22.277832,-160.461426,-409.606934,0,0
3566,2024 10 24,05:24:39.707,0.653394,-0.693888,-0.011633,-0.302424,-1.41557,0.938994,0.533708,-22.277832,-160.461426,-409.606934,0,0
3567,2024 10 24,05:24:39.715,0.662436,-0.69126,0.021387,-0.287892,-0.974151,1.072787,0.76809,-14.770508,-134.58252,-411.315918,0,0
3568,2024 10 24,05:24:39.723,0.671688,-0.687872,0.051947,-0.270125,-0.688009,1.089389,0.638691,-0.427246,-89.96582,-418.457031,0,0
3569,2024 10 24,05:24:39.732,0.681291,-0.684168,0.081084,-0.247351,0.374523,-0.205084,0.5674,2.685547,-34.240723,-444.641113,0,0
3570,2024 10 24,05:24:39.740,0.691015,-0.679017,0.099335,-0.22708,1.563036,0.295419,0.525895,69.091797,25.695801,-271.30127,0,0
3571,2024 10 24,05:24:39.748,0.695754,-0.677331,0.100147,-0.217071,-0.340831,1.239784,0.086428,25.695801,89.233398,-44.86084,0,0
3572,2024 10 24,05:24:39.757,0.695754,-0.677331,0.100147,-0.217071,-0.340831,1.239784,0.086428,25.695801,89.233398,-44.86084,0,0
3573,2024 10 24,05:24:39.765,0.69589,-0.678391,0.090315,-0.217638,-1.079623,1.261269,-0.025391,10.986328,64.453125,115.844727,0,0
3574,2024 10 24,05:24:39.773,0.690281,-0.681818,0.077546,-0.229396,-1.386761,0.938505,0.073244,-39.794922,-6.958008,227.416992,0,0
3575,2024 10 24,05:24:39.782,0.680138,-0.685956,0.065719,-0.250116,-1.416059,0.48732,0.291513,-68.969727,-86.364746,291.992188,0,0
3576,2024 10 24,05:24:39.790,0.667483,-0.688964,0.056371,-0.276798,-1.024934,0.218268,0.307627,-74.829102,-152.282715,316.345215,0,0
3577,2024 10 24,05:24:39.798,0.654064,-0.690545,0.048559,-0.304941,-0.557146,0.086917,0.393078,-71.655273,-167.358398,313.781738,0,0
3578,2024 10 24,05:24:39.807,0.654064,-0.690545,0.048559,-0.304941,-0.557146,0.086917,0.393078,-71.655273,-167.358398,313.781738,0,0
3579,2024 10 24,05:24:39.815,0.64093,-0.691445,0.040765,-0.330832,-0.310068,-0.029786,0.435072,-64.819336,-144.348145,293.823242,0,0
3580,2024 10 24,05:24:39.823,0.629013,-0.691975,0.032315,-0.352802,-0.2378,-0.076174,0.505387,-50.292969,-106.689453,265.686035,0,0
3581,2024 10 24,05:24:39.832,0.618376,-0.692449,0.022838,-0.37095,-0.283212,-0.0459,0.519547,-36.621094,-70.007324,243.103027,0,0
3582,2024 10 24,05:24:39.840,0.608642,-0.692911,0.01219,-0.386369,-0.417982,0.019044,0.467299,-26.550293,-42.84668,231.872559,0,0
3583,2024 10 24,05:24:39.848,0.599049,-0.693409,0.000469,-0.400405,-0.627949,0.108402,0.391125,-23.4375,-26.977539,231.872559,0,0
3584,2024 10 24,05:24:39.857,0.599049,-0.693409,0.000469,-0.400405,-0.627949,0.108402,0.391125,-23.4375,-26.977539,231.872559,0,0
3585,2024 10 24,05:24:39.865,0.588781,-0.693917,-0.01216,-0.414328,-0.754418,0.13184,0.369152,-26.062012,-21.789551,243.164063,0,0
3586,2024 10 24,05:24:39.873,0.577146,-0.694381,-0.025652,-0.429044,-0.834498,0.094729,0.35548,-34.362793,-24.291992,263.366699,0,0
3587,2024 10 24,05:24:39.882,0.563857,-0.694651,-0.039961,-0.444891,-0.849147,0.030763,0.388195,-42.114258,-28.198242,285.827637,0,0
3588,2024 10 24,05:24:39.890,0.548863,-0.694922,-0.05527,-0.46128,-0.875515,-0.044923,0.421888,-51.452637,-23.803711,305.053711,0,0
3589,2024 10 24,05:24:39.898,0.532533,-0.695263,-0.071466,-0.477399,-0.882839,-0.107913,0.461928,-56.82373,-13.122559,315.673828,0,0
3590,2024 10 24,05:24:39.907,0.532533,-0.695263,-0.071466,-0.477399,-0.882839,-0.107913,0.461928,-56.82373,-13.122559,315.673828,0,0
3591,2024 10 24,05:24:39.915,0.515276,-0.695806,-0.088242,-0.492502,-0.955596,-0.158696,0.48732,-60.36377,1.037598,317.260742,0,0
3592,2024 10 24,05:24:39.923,0.497367,-0.696603,-0.105335,-0.506235,-1.070345,-0.192877,0.480483,-64.39209,15.441895,314.27002,0,0
3593,2024 10 24,05:24:39.932,0.478822,-0.697548,-0.122483,-0.5188,-1.193884,-0.187017,0.486343,-68.725586,25.57373,311.950684,0,0
3594,2024 10 24,05:24:39.940,0.459482,-0.69843,-0.139539,-0.530661,-1.35258,-0.195318,0.49855,-75.073242,29.47998,313.171387,0,0
3595,2024 10 24,05:24:39.948,0.4392,-0.698938,-0.156361,-0.542347,-1.469771,-0.236335,0.52736,-81.90918,27.893066,317.504883,0,0
3596,2024 10 24,05:24:39.957,0.4392,-0.698938,-0.156361,-0.542347,-1.469771,-0.236335,0.52736,-81.90918,27.893066,317.504883,0,0
3597,2024 10 24,05:24:39.965,0.417865,-0.69893,-0.173019,-0.554031,-1.558641,-0.280282,0.567888,-88.500977,25.756836,324.401855,0,0
3598,2024 10 24,05:24:39.973,0.39554,-0.698383,-0.189653,-0.565544,-1.6021,-0.362316,0.638691,-93.200684,26.245117,331.298828,0,0
3599,2024 10 24,05:24:39.982,0.372368,-0.697414,-0.206499,-0.576467,-1.652394,-0.448744,0.700705,-94.848633,31.982422,337.341309,0,0
3600,2024 10 24,05:24:39.990,0.348423,-0.696221,-0.223625,-0.586404,-1.743217,-0.547868,0.752953,-96.008301,42.175293,341.369629,0,0
3601,2024 10 24,05:24:39.998,0.323784,-0.694903,-0.240959,-0.595158,-1.858943,-0.643086,0.762719,-97.106934,53.100586,343.933105,0,0
3602,2024 10 24,05:24:40.007,0.323784,-0.694903,-0.240959,-0.595158,-1.858943,-0.643086,0.762719,-97.106934,53.100586,343.933105,0,0
3603,2024 10 24,05:24:40.015,0.298576,-0.693394,-0.258199,-0.602818,-1.887753,-0.774438,0.767113,-98.937988,61.035156,343.811035,0,0
3604,2024 10 24,05:24:40.023,0.273298,-0.691753,-0.275133,-0.609169,-1.752007,-0.943876,0.728538,-96.313477,71.228027,337.463379,0,0
3605,2024 10 24,05:24:40.032,0.248134,-0.690668,-0.291684,-0.613456,-1.797906,-1.153355,0.756371,-92.834473,92.102051,325.439453,0,0
3606,2024 10 24,05:24:40.040,0.223732,-0.690253,-0.3079,-0.61538,-1.809626,-1.337443,0.670431,-82.946777,112.182617,309.814453,0,0
3607,2024 10 24,05:24:40.048,0.200214,-0.69054,-0.324049,-0.614867,-1.917539,-1.480026,0.584002,-69.152832,133.361816,296.325684,0,0
3608,2024 10 24,05:24:40.057,0.177952,-0.691058,-0.340025,-0.612499,-1.992737,-1.65923,0.445814,-53.527832,141.601563,281.433105,0,0
3609,2024 10 24,05:24:40.065,0.177952,-0.691058,-0.340025,-0.612499,-1.992737,-1.65923,0.445814,-53.527832,141.601563,281.433105,0,0
3610,2024 10 24,05:24:40.073,0.158485,-0.691237,-0.355466,-0.608866,-1.464888,-1.824274,0.222175,-26.123047,136.108398,253.234863,0,0
3611,2024 10 24,05:24:40.082,0.142492,-0.692562,-0.370492,-0.60232,-1.303751,-2.687094,-0.115238,9.094238,164.489746,217.041016,0,0
3612,2024 10 24,05:24:40.090,0.130265,-0.695699,-0.386105,-0.591572,-1.631397,-3.157811,-0.318369,61.096191,190.368652,186.218262,0,0
3613,2024 10 24,05:24:40.098,0.123259,-0.698158,-0.401439,-0.579853,-1.798883,-3.383892,-0.601093,102.966309,157.165527,150.57373,0,0
3614,2024 10 24,05:24:40.107,0.122946,-0.69837,-0.415172,-0.569909,-1.84283,-3.58507,-0.783227,137.512207,89.477539,104.858398,0,0
3615,2024 10 24,05:24:40.115,0.122946,-0.69837,-0.415172,-0.569909,-1.84283,-3.58507,-0.783227,137.512207,89.477539,104.858398,0,0
3616,2024 10 24,05:24:40.123,0.131503,-0.698239,-0.426364,-0.559806,-3.422468,-4.05237,-1.612842,214.111328,70.129395,6.347656,0,0
3617,2024 10 24,05:24:40.132,0.151224,-0.698344,-0.428626,-0.552925,-2.021058,-2.827723,-0.798853,201.965332,-60.302734,-117.736816,0,0
3618,2024 10 24,05:24:40.140,0.177391,-0.698754,-0.423923,-0.548238,-2.499588,-2.279855,-2.597247,182.128906,-108.093262,-221.679688,0,0
3619,2024 10 24,05:24:40.148,0.208603,-0.695125,-0.408906,-0.553247,0.742698,0.629414,0.76223,147.888184,-270.874023,-280.639648,1,0
3620,2024 10 24,05:24:40.157,0.226683,-0.699783,-0.391121,-0.553121,-1.619678,1.560106,-0.761742,-134.460449,-33.874512,-266.723633,0,0
3621,2024 10 24,05:24:40.165,0.226683,-0.699783,-0.391121,-0.553121,-1.619678,1.560106,-0.761742,-134.460449,-33.874512,-266.723633,0,0
3622,2024 10 24,05:24:40.173,0.224379,-0.709579,-0.365816,-0.558866,-2.709067,-1.42729,-0.745628,-167.785645,-64.025879,-213.500977,0,0
3623,2024 10 24,05:24:40.182,0.23375,-0.708483,-0.345534,-0.569227,-0.864284,-1.065462,-0.960967,-106.201172,-184.020996,-174.01123,0,0
3624,2024 10 24,05:24:40.190,0.242621,-0.706024,-0.333113,-0.575935,-1.102084,-0.290536,0.108402,2.380371,-117.248535,-109.130859,0,0
3625,2024 10 24,05:24:40.198,0.247939,-0.703634,-0.3266,-0.580308,-1.108921,0.133793,0.157231,-22.460938,-86.242676,-57.006836,0,0
3626,2024 10 24,05:24:40.207,0.250088,-0.701578,-0.318983,-0.586083,-0.976592,0.182623,0.099612,-58.47168,-88.439941,-51.635742,0,0
3627,2024 10 24,05:24:40.215,0.250088,-0.701578,-0.318983,-0.586083,-0.976592,0.182623,0.099612,-58.47168,-88.439941,-51.635742,0,0
3628,2024 10 24,05:24:40.223,0.249913,-0.700265,-0.310326,-0.592343,-1.130894,-0.349132,0.069826,-79.956055,-81.237793,-45.227051,0,0
3629,2024 10 24,05:24:40.232,0.251918,-0.697025,-0.303331,-0.598902,-1.22074,-0.024903,0.380871,-37.109375,-107.543945,-35.15625,0,0
3630,2024 10 24,05:24:40.240,0.253073,-0.692432,-0.296684,-0.607018,-0.929716,-0.008789,-0.187506,-56.335449,-122.375488,-19.104004,0,0
3631,2024 10 24,05:24:40.248,0.253981,-0.688203,-0.290319,-0.614479,-0.839869,-0.051759,-0.363292,-44.616699,-100.769043,-22.155762,0,0
3632,2024 10 24,05:24:40.257,0.255482,-0.685312,-0.285842,-0.619169,-0.629414,-0.157231,-0.506363,-21.362305,-61.706543,-21.484375,0,0
3633,2024 10 24,05:24:40.265,0.255482,-0.685312,-0.285842,-0.619169,-0.629414,-0.157231,-0.506363,-21.362305,-61.706543,-21.484375,0,0
3634,2024 10 24,05:24:40.273,0.256429,-0.684016,-0.283272,-0.621388,-0.832057,0.041505,-0.113773,-15.50293,-26.916504,-12.878418,0,0
3635,2024 10 24,05:24:40.282,0.25649,-0.683986,-0.281489,-0.622206,-0.878445,-0.04297,-0.232429,-11.535645,-7.629395,-11.535645,0,0
3636,2024 10 24,05:24:40.290,0.256842,-0.684388,-0.280443,-0.622091,-1.010773,0.011719,-0.074709,-5.554199,3.723145,-12.634277,0,0
3637,2024 10 24,05:24:40.298,0.257576,-0.68504,-0.279781,-0.621367,-0.923368,-0.019532,-0.114261,4.638672,7.751465,-15.991211,0,0
3638,2024 10 24,05:24:40.307,0.258575,-0.685808,-0.279211,-0.62036,-0.941435,-0.045412,-0.11182,5.432129,11.169434,-16.662598,0,0
3639,2024 10 24,05:24:40.315,0.258575,-0.685808,-0.279211,-0.62036,-0.941435,-0.045412,-0.11182,5.432129,11.169434,-16.662598,0,0
3640,2024 10 24,05:24:40.323,0.259877,-0.686662,-0.27899,-0.61897,-0.961943,-0.031739,-0.08301,10.437012,13.671875,-17.456055,0,0
3641,2024 10 24,05:24:40.332,0.261227,-0.687519,-0.278931,-0.617475,-0.985382,-0.013672,-0.047365,12.207031,13.793945,-16.967773,0,0
3642,2024 10 24,05:24:40.340,0.262574,-0.68826,-0.278805,-0.616133,-1.019074,0.001953,-0.043458,11.535645,11.169434,-17.028809,0,0
3643,2024 10 24,05:24:40.348,0.263844,-0.688836,-0.27848,-0.615094,-1.003937,-0.004395,-0.045412,8.300781,7.385254,-16.418457,0,0
3644,2024 10 24,05:24:40.357,0.26491,-0.68932,-0.277937,-0.614339,-0.994171,-0.017579,-0.044923,4.150391,4.516602,-15.441895,0,0
3645,2024 10 24,05:24:40.365,0.26491,-0.68932,-0.277937,-0.614339,-0.994171,-0.017579,-0.044923,4.150391,4.516602,-15.441895,0,0
3646,2024 10 24,05:24:40.373,0.265848,-0.68969,-0.277255,-0.613826,-1.020539,0.005371,-0.038087,2.807617,1.77002,-14.648438,0,0
3647,2024 10 24,05:24:40.382,0.266857,-0.68988,-0.276409,-0.613556,-1.004913,-0.012696,-0.029298,2.502441,-2.685547,-15.50293,0,0
3648,2024 10 24,05:24:40.390,0.267971,-0.689885,-0.275422,-0.613509,-0.985382,-0.006348,-0.066408,1.342773,-6.04248,-15.74707,0,0
3649,2024 10 24,05:24:40.398,0.26894,-0.689904,-0.274346,-0.613546,-0.927274,0.009278,-0.115726,-0.793457,-5.004883,-15.197754,0,0
3650,2024 10 24,05:24:40.407,0.269492,-0.690184,-0.273031,-0.613575,-0.937529,-0.019532,-0.10889,-7.263184,-1.77002,-15.319824,0,0
3651,2024 10 24,05:24:40.415,0.269492,-0.690184,-0.273031,-0.613575,-0.937529,-0.019532,-0.10889,-7.263184,-1.77002,-15.319824,0,0
3652,2024 10 24,05:24:40.423,0.269841,-0.690809,-0.271582,-0.613362,-0.950713,-0.004395,-0.091311,-9.338379,2.380371,-17.211914,0,0
3653,2024 10 24,05:24:40.432,0.270012,-0.691552,-0.270153,-0.613079,-0.979522,-0.023927,-0.079592,-9.82666,4.089355,-15.74707,0,0
3654,2024 10 24,05:24:40.440,0.270109,-0.692318,-0.268761,-0.612784,-0.951201,-0.026368,-0.116214,-10.498047,4.333496,-15.014648,0,0
3655,2024 10 24,05:24:40.448,0.270155,-0.693031,-0.267272,-0.612609,-0.958525,-0.031739,-0.093265,-11.901855,2.929688,-15.014648,0,0
3656,2024 10 24,05:24:40.457,0.270143,-0.693715,-0.265757,-0.612499,-0.980987,-0.046388,-0.08887,-13.73291,2.380371,-14.526367,0,0
3657,2024 10 24,05:24:40.465,0.270229,-0.694386,-0.264196,-0.612376,-0.979034,-0.051759,-0.072268,-12.145996,1.159668,-15.625,0,0
3658,2024 10 24,05:24:40.473,0.270229,-0.694386,-0.264196,-0.612376,-0.979034,-0.051759,-0.072268,-12.145996,1.159668,-15.625,0,0
3659,2024 10 24,05:24:40.482,0.27047,-0.695013,-0.262579,-0.612254,-0.971221,-0.053713,-0.068361,-10.559082,0.427246,-17.028809,0,0
3660,2024 10 24,05:24:40.490,0.270882,-0.695512,-0.260932,-0.61221,-0.976104,-0.064943,-0.06299,-9.155273,-1.464844,-17.76123,0,0
3661,2024 10 24,05:24:40.498,0.271482,-0.695933,-0.259342,-0.612141,-0.965361,-0.066408,-0.062502,-7.324219,-2.441406,-18.371582,0,0
3662,2024 10 24,05:24:40.507,0.272227,-0.696317,-0.257783,-0.612032,-0.963408,-0.067385,-0.062502,-5.249023,-2.624512,-19.226074,0,0
3663,2024 10 24,05:24:40.515,0.273141,-0.696627,-0.256301,-0.611894,-0.961455,-0.069338,-0.055666,-3.173828,-3.173828,-19.53125,0,0
3664,2024 10 24,05:24:40.523,0.273141,-0.696627,-0.256301,-0.611894,-0.961455,-0.069338,-0.055666,-3.173828,-3.173828,-19.53125,0,0
3665,2024 10 24,05:24:40.532,0.274162,-0.696904,-0.254878,-0.611716,-0.966826,-0.074221,-0.076174,-1.831055,-3.173828,-20.202637,0,0
3666,2024 10 24,05:24:40.540,0.275346,-0.697116,-0.253469,-0.611529,-0.956572,-0.082522,-0.068361,-0.305176,-4.02832,-20.751953,0,0
3667,2024 10 24,05:24:40.548,0.276607,-0.697326,-0.252096,-0.611287,-0.956572,-0.074221,-0.051271,0.183105,-3.540039,-21.30127,0,0
3668,2024 10 24,05:24:40.557,0.277718,-0.69776,-0.250638,-0.610889,-1.004913,-0.1377,-0.143559,-2.319336,0.488281,-21.728516,0,0
3669,2024 10 24,05:24:40.565,0.279468,-0.697691,-0.249334,-0.610702,-0.968291,-0.058596,-0.039064,6.713867,-8.605957,-23.4375,0,0
3670,2024 10 24,05:24:40.573,0.279468,-0.697691,-0.249334,-0.610702,-0.968291,-0.058596,-0.039064,6.713867,-8.605957,-23.4375,0,0
3671,2024 10 24,05:24:40.582,0.281109,-0.697701,-0.247905,-0.61052,-0.987823,-0.086428,-0.094241,3.051758,-6.286621,-23.620605,0,0
3672,2024 10 24,05:24:40.590,0.282898,-0.6977,-0.246534,-0.61025,-0.977569,-0.083499,-0.072756,5.493164,-6.286621,-24.536133,0,0
3673,2024 10 24,05:24:40.598,0.284859,-0.697677,-0.245155,-0.609919,-0.963897,-0.087893,-0.069826,7.629395,-6.713867,-25.939941,0,0
3674,2024 10 24,05:24:40.607,0.286844,-0.697707,-0.243813,-0.609492,-0.973662,-0.091311,-0.111332,7.141113,-4.699707,-26.245117,0,0
3675,2024 10 24,05:24:40.615,0.288918,-0.697821,-0.242444,-0.608928,-0.977569,-0.085452,-0.078616,8.300781,-3.601074,-28.137207,0,0
3676,2024 10 24,05:24:40.623,0.288918,-0.697821,-0.242444,-0.608928,-0.977569,-0.085452,-0.078616,8.300781,-3.601074,-28.137207,0,0
3677,2024 10 24,05:24:40.632,0.291066,-0.698047,-0.241058,-0.608196,-1.006867,-0.096194,-0.057619,9.155273,-1.708984,-29.724121,0,0
3678,2024 10 24,05:24:40.640,0.293438,-0.698283,-0.239608,-0.607358,-1.033235,-0.090335,-0.059084,10.620117,-2.685547,-32.714844,0,0
3679,2024 10 24,05:24:40.648,0.29619,-0.698539,-0.238051,-0.606339,-1.063509,-0.086428,-0.041505,13.671875,-2.380371,-37.29248,0,0
3680,2024 10 24,05:24:40.657,0.299346,-0.698775,-0.236276,-0.60521,-1.104526,-0.078127,-0.083499,15.869141,-2.868652,-42.480469,0,0
3681,2024 10 24,05:24:40.665,0.303063,-0.699071,-0.234267,-0.603798,-1.135289,-0.070315,-0.049806,19.165039,-2.319336,-49.743652,0,0
3682,2024 10 24,05:24:40.673,0.303063,-0.699071,-0.234267,-0.603798,-1.135289,-0.070315,-0.049806,19.165039,-2.319336,-49.743652,0,0
3683,2024 10 24,05:24:40.682,0.307399,-0.699494,-0.231891,-0.602031,-1.189978,-0.050295,-0.073244,22.155762,-2.319336,-59.448242,0,0
3684,2024 10 24,05:24:40.690,0.312353,-0.700043,-0.228934,-0.599971,-1.221717,-0.043947,-0.088382,22.949219,-2.01416,-70.007324,0,0
3685,2024 10 24,05:24:40.698,0.317947,-0.700782,-0.225254,-0.597558,-1.265664,-0.032228,-0.076662,23.4375,-2.746582,-82.519531,0,0
3686,2024 10 24,05:24:40.707,0.324188,-0.701699,-0.220676,-0.59483,-1.275918,-0.019044,-0.04297,22.216797,-3.234863,-96.679688,0,0
3687,2024 10 24,05:24:40.715,0.330901,-0.703068,-0.215074,-0.591559,-1.346233,-0.032228,-0.059084,17.883301,-1.220703,-111.51123,0,0
3688,2024 10 24,05:24:40.723,0.330901,-0.703068,-0.215074,-0.591559,-1.346233,-0.032228,-0.059084,17.883301,-1.220703,-111.51123,0,0
3689,2024 10 24,05:24:40.732,0.338398,-0.704832,-0.208404,-0.587594,-1.434126,-0.015625,-0.053713,18.005371,1.647949,-130.249023,0,0
3690,2024 10 24,05:24:40.740,0.346908,-0.706658,-0.200391,-0.58321,-1.504929,-0.001953,0.006348,17.51709,-3.540039,-150.268555,0,0
3691,2024 10 24,05:24:40.748,0.356524,-0.708515,-0.190738,-0.578373,-1.624561,0.041993,0.003906,18.005371,-10.375977,-174.316406,0,0
3692,2024 10 24,05:24:40.757,0.367449,-0.710244,-0.179105,-0.573111,-1.732475,0.08594,-0.027345,13.73291,-17.700195,-201.782227,0,0
3693,2024 10 24,05:24:40.765,0.379783,-0.712039,-0.165113,-0.567012,-1.924375,0.166509,-0.078616,15.075684,-23.620605,-236.633301,0,0
3694,2024 10 24,05:24:40.773,0.379783,-0.712039,-0.165113,-0.567012,-1.924375,0.166509,-0.078616,15.075684,-23.620605,-236.633301,0,0
3695,2024 10 24,05:24:40.782,0.394072,-0.713479,-0.148055,-0.56012,-2.049379,0.263192,0.055666,9.155273,-37.658691,-280.517578,0,0
3696,2024 10 24,05:24:40.790,0.410003,-0.714927,-0.127331,-0.551873,-2.257393,0.273446,0.070315,3.90625,-45.715332,-329.956055,0,0
3697,2024 10 24,05:24:40.798,0.427801,-0.715762,-0.102891,-0.542296,-2.595294,0.145512,0.04883,2.990723,-62.316895,-378.540039,0,0
3698,2024 10 24,05:24:40.807,0.447278,-0.71568,-0.074157,-0.531268,-2.606037,0.042482,0.030274,-8.605957,-77.148438,-431.030273,0,0
3699,2024 10 24,05:24:40.815,0.46705,-0.714984,-0.042221,-0.518536,-2.616779,-0.312998,-0.021485,-23.742676,-80.566406,-461.914063,0,0
3700,2024 10 24,05:24:40.823,0.46705,-0.714984,-0.042221,-0.518536,-2.616779,-0.312998,-0.021485,-23.742676,-80.566406,-461.914063,0,0
3701,2024 10 24,05:24:40.832,0.485565,-0.713989,-0.007788,-0.504366,-2.696371,-0.773949,-0.330088,-45.593262,-83.557129,-477.050781,0,1
3702,2024 10 24,05:24:40.840,0.504152,-0.710388,0.025951,-0.490414,-2.362865,-0.523453,0.006836,-16.906738,-100.402832,-463.500977,0,0
3703,2024 10 24,05:24:40.848,0.521427,-0.705115,0.058793,-0.476938,-2.059633,-0.368664,0.04004,-16.052246,-104.125977,-448.608398,0,0
3704,2024 10 24,05:24:40.857,0.538653,-0.69842,0.089688,-0.462621,-1.790582,0.207526,0.328135,7.263184,-88.07373,-439.39209,0,0
3705,2024 10 24,05:24:40.865,0.555027,-0.691477,0.118753,-0.446881,-1.559618,0.509781,0.3296,5.126953,-71.594238,-431.82373,0,0
3706,2024 10 24,05:24:40.873,0.571651,-0.683818,0.146058,-0.429274,-1.11478,0.812525,0.512223,22.033691,-42.84668,-433.227539,0,0
3707,2024 10 24,05:24:40.882,0.571651,-0.683818,0.146058,-0.429274,-1.11478,0.812525,0.512223,22.033691,-42.84668,-433.227539,0,0
3708,2024 10 24,05:24:40.890,0.588538,-0.676389,0.171131,-0.408456,-0.647969,0.853542,0.745628,27.160645,4.211426,-434.997559,0,0
3709,2024 10 24,05:24:40.898,0.607005,-0.669438,0.191375,-0.38311,-0.614277,0.515152,0.664571,55.603027,79.406738,-432.067871,0,0
3710,2024 10 24,05:24:40.907,0.625923,-0.661822,0.207112,-0.356814,0.746117,-0.57033,0.63918,81.481934,99.79248,-377.563477,0,0
3711,2024 10 24,05:24:40.915,0.639558,-0.655377,0.209096,-0.343111,0.643574,1.618213,0.516617,112.915039,97.167969,-107.666016,0,0
3712,2024 10 24,05:24:40.923,0.64304,-0.65605,0.198818,-0.341424,-0.839869,1.35844,-0.092288,42.358398,89.904785,97.351074,0,0
3713,2024 10 24,05:24:40.932,0.64304,-0.65605,0.198818,-0.341424,-0.839869,1.35844,-0.092288,42.358398,89.904785,97.351074,0,0
3714,2024 10 24,05:24:40.940,0.638672,-0.65946,0.184038,-0.3512,-0.890652,1.039582,-0.044435,10.131836,24.291992,231.811523,0,0
3715,2024 10 24,05:24:40.948,0.628008,-0.665193,0.168101,-0.367243,-0.848659,0.681661,0.189459,-33.630371,-12.145996,300.292969,0,0
3716,2024 10 24,05:24:40.957,0.614118,-0.67166,0.152425,-0.385356,-0.538102,0.320322,0.267098,-54.260254,-27.709961,317.626953,0,0
3717,2024 10 24,05:24:40.965,0.599936,-0.678047,0.137061,-0.401924,-0.122562,0.269051,0.293954,-56.091309,-9.216309,300.109863,0,0
3718,2024 10 24,05:24:40.973,0.586938,-0.685113,0.121423,-0.413981,0.06885,0.266121,0.221198,-56.82373,39.001465,265.075684,0,0
3719,2024 10 24,05:24:40.982,0.586938,-0.685113,0.121423,-0.413981,0.06885,0.266121,0.221198,-56.82373,39.001465,265.075684,0,0
3720,2024 10 24,05:24:40.990,0.57579,-0.693216,0.104942,-0.420602,-0.024415,0.232917,0.171392,-53.100586,94.543457,229.919434,0,0
3721,2024 10 24,05:24:40.998,0.565836,-0.702249,0.087408,-0.423126,-0.373058,0.23487,0.143071,-49.255371,136.59668,209.655762,0,0
3722,2024 10 24,05:24:41.007,0.556206,-0.711674,0.068773,-0.423586,-0.703146,0.208502,0.024903,-46.508789,155.456543,205.810547,0,0
3723,2024 10 24,05:24:41.015,0.546317,-0.72033,0.049703,-0.42449,-0.87405,0.167974,0.003906,-40.405273,145.690918,215.698242,0,0
3724,2024 10 24,05:24:41.023,0.535816,-0.727755,0.029946,-0.427056,-0.977081,0.107425,-0.105472,-34.423828,126.342773,235.473633,0,0
3725,2024 10 24,05:24:41.032,0.535816,-0.727755,0.029946,-0.427056,-0.977081,0.107425,-0.105472,-34.423828,126.342773,235.473633,0,0
3726,2024 10 24,05:24:41.040,0.524807,-0.733614,0.009151,-0.43163,-0.971221,0.009278,-0.144536,-22.277832,112.243652,258.789063,0,0
3727,2024 10 24,05:24:41.048,0.513695,-0.737987,-0.013216,-0.437399,-0.911649,-0.090823,-0.116214,-3.723145,107.116699,278.930664,0,0
3728,2024 10 24,05:24:41.057,0.503048,-0.740966,-0.037602,-0.443282,-0.8511,-0.163579,-0.104495,19.775391,113.891602,294.128418,0,0
3729,2024 10 24,05:24:41.065,0.493358,-0.742591,-0.064248,-0.448363,-0.889676,-0.189459,-0.076174,48.156738,127.441406,303.833008,0,0
3730,2024 10 24,05:24:41.073,0.484734,-0.742839,-0.093067,-0.452285,-1.006867,-0.160161,-0.084964,77.148438,141.113281,310.546875,0,0
3731,2024 10 24,05:24:41.082,0.484734,-0.742839,-0.093067,-0.452285,-1.006867,-0.160161,-0.084964,77.148438,141.113281,310.546875,0,0
3732,2024 10 24,05:24:41.090,0.477144,-0.74152,-0.12342,-0.455246,-1.181188,-0.10889,-0.119144,102.355957,146.66748,313.171387,0,0
3733,2024 10 24,05:24:41.098,0.470441,-0.738481,-0.154581,-0.457642,-1.287637,-0.047853,-0.181646,122.802734,144.165039,314.025879,0,0
3734,2024 10 24,05:24:41.107,0.464301,-0.73378,-0.186092,-0.45974,-1.341838,0.011719,-0.221198,137.756348,139.038086,315.368652,0,0
3735,2024 10 24,05:24:41.115,0.458234,-0.727677,-0.217792,-0.4616,-1.362835,0.046388,-0.242683,145.568848,135.498047,318.725586,0,0
3736,2024 10 24,05:24:41.123,0.451787,-0.72054,-0.249682,-0.463001,-1.40434,0.073733,-0.230476,148.620605,136.962891,322.265625,0,0
3737,2024 10 24,05:24:41.132,0.451787,-0.72054,-0.249682,-0.463001,-1.40434,0.073733,-0.230476,148.620605,136.962891,322.265625,0,0
3738,2024 10 24,05:24:41.140,0.444594,-0.712707,-0.281614,-0.463766,-1.493698,0.099124,-0.24073,147.949219,142.150879,325.256348,0,0
3739,2024 10 24,05:24:41.148,0.436486,-0.704421,-0.313425,-0.463719,-1.623096,0.077151,-0.239753,143.737793,149.169922,326.477051,0,0
3740,2024 10 24,05:24:41.157,0.42719,-0.695781,-0.345137,-0.462901,-1.775933,0.020997,-0.267098,137.451172,158.14209,330.627441,0,0
3741,2024 10 24,05:24:41.165,0.41643,-0.686713,-0.376546,-0.461762,-2.002014,-0.080569,-0.319346,125.915527,160.461426,336.853027,0,0
3742,2024 10 24,05:24:41.173,0.404644,-0.676928,-0.406889,-0.460949,-2.068423,-0.265633,-0.334483,114.501953,152.526855,337.768555,0,0
3743,2024 10 24,05:24:41.182,0.404644,-0.676928,-0.406889,-0.460949,-2.068423,-0.265633,-0.334483,114.501953,152.526855,337.768555,0,0
3744,2024 10 24,05:24:41.190,0.392222,-0.666781,-0.435653,-0.460186,-2.053774,-0.483902,-0.405286,102.478027,147.399902,329.406738,0,0
3745,2024 10 24,05:24:41.198,0.379507,-0.656974,-0.462524,-0.458728,-2.137761,-0.749535,-0.473647,92.834473,150.268555,311.767578,0,0
3746,2024 10 24,05:24:41.207,0.367038,-0.647726,-0.487581,-0.45607,-2.173894,-1.07181,-0.554216,90.209961,153.015137,289.306641,0,0
3747,2024 10 24,05:24:41.215,0.355257,-0.638969,-0.510847,-0.452269,-2.175848,-1.46147,-0.660176,90.209961,152.709961,267.456055,0,0
3748,2024 10 24,05:24:41.223,0.344427,-0.630718,-0.532106,-0.447692,-2.109928,-1.860408,-0.826685,87.95166,146.240234,243.469238,0,0
3749,2024 10 24,05:24:41.232,0.334983,-0.623061,-0.550885,-0.442839,-1.898495,-2.284249,-1.001984,82.275391,132.202148,214.538574,0,0
3750,2024 10 24,05:24:41.240,0.334983,-0.623061,-0.550885,-0.442839,-1.898495,-2.284249,-1.001984,82.275391,132.202148,214.538574,0,0
3751,2024 10 24,05:24:41.248,0.32725,-0.616444,-0.566495,-0.438164,-1.575732,-2.705649,-1.230506,71.105957,112.792969,177.429199,0,0
3752,2024 10 24,05:24:41.257,0.321551,-0.611655,-0.578096,-0.433921,-1.251991,-2.966887,-1.511277,53.161621,90.026855,126.403809,0,0
3753,2024 10 24,05:24:41.265,0.318173,-0.609655,-0.584959,-0.430011,-1.221229,-3.386334,-1.738823,31.433105,71.044922,64.086914,0,0
3754,2024 10 24,05:24:41.273,0.317387,-0.610216,-0.587451,-0.426383,-1.455122,-3.460067,-1.605029,19.165039,46.875,8.605957,0,0
3755,2024 10 24,05:24:41.282,0.32065,-0.61355,-0.589512,-0.416192,-7.025605,-4.273079,-1.896054,149.108887,141.235352,-71.411133,0,0
3756,2024 10 24,05:24:41.290,0.32065,-0.61355,-0.589512,-0.416192,-7.025605,-4.273079,-1.896054,149.108887,141.235352,-71.411133,0,0
3757,2024 10 24,05:24:41.298,0.342742,-0.615393,-0.572746,-0.419262,-0.801782,-2.378002,-0.465834,-56.45752,-397.399902,-216.003418,1,0
3758,2024 10 24,05:24:41.307,0.368327,-0.610451,-0.557954,-0.424702,-0.811548,2.273507,1.359905,122.070313,-124.938965,-141.479492,0,0
3759,2024 10 24,05:24:41.315,0.368835,-0.61175,-0.553697,-0.427951,-1.879452,0.279305,-0.140141,-20.996094,-94.726563,-33.325195,0,0
3760,2024 10 24,05:24:41.323,0.38009,-0.609996,-0.539914,-0.438098,-0.468276,0.312021,-0.975616,-94.238281,-214.233398,-121.887207,0,0
3761,2024 10 24,05:24:41.332,0.389139,-0.613226,-0.521415,-0.44794,-0.83694,-0.448744,-0.658711,-97.106934,-177.124023,-157.470703,0,0
3762,2024 10 24,05:24:41.340,0.389139,-0.613226,-0.521415,-0.44794,-0.83694,-0.448744,-0.658711,-97.106934,-177.124023,-157.470703,0,0
3763,2024 10 24,05:24:41.348,0.397425,-0.616843,-0.505226,-0.454208,-1.093783,-0.473647,-0.360851,-75.073242,-133.117676,-140.197754,0,0
3764,2024 10 24,05:24:41.357,0.404137,-0.618889,-0.492438,-0.459515,-0.911161,-0.134281,0.041993,-53.405762,-116.210938,-98.937988,0,0
3765,2024 10 24,05:24:41.365,0.408241,-0.62033,-0.482344,-0.464623,-1.026399,0.107913,0.113773,-66.28418,-93.688965,-74.157715,0,0
3766,2024 10 24,05:24:41.373,0.411673,-0.621725,-0.472774,-0.46954,-0.964385,-0.051759,0.032716,-52.490234,-89.84375,-70.617676,0,0
3767,2024 10 24,05:24:41.382,0.415983,-0.622172,-0.464221,-0.473666,-0.98001,-0.043947,0.073733,-40.039063,-91.125488,-66.40625,0,0
3768,2024 10 24,05:24:41.390,0.415983,-0.622172,-0.464221,-0.473666,-0.98001,-0.043947,0.073733,-40.039063,-91.125488,-66.40625,0,0
3769,2024 10 24,05:24:41.398,0.419309,-0.622825,-0.455122,-0.478678,-0.851588,-0.253426,-0.099124,-55.969238,-88.806152,-57.983398,0,0
3770,2024 10 24,05:24:41.407,0.422185,-0.622263,-0.448809,-0.482825,-0.972198,-0.020997,-0.090823,-25.634766,-72.44873,-31.860352,0,0
3771,2024 10 24,05:24:41.415,0.424896,-0.621368,-0.44379,-0.486227,-0.928251,-0.077639,-0.044435,-21.42334,-63.232422,-30.151367,0,0
3772,2024 10 24,05:24:41.423,0.427174,-0.620479,-0.440208,-0.488615,-0.828639,-0.117679,-0.229011,-5.67627,-43.884277,-19.104004,0,0
3773,2024 10 24,05:24:41.432,0.4292,-0.619562,-0.438272,-0.489742,-0.979034,0.020997,-0.028321,0.0,-28.320313,-14.343262,0,0
3774,2024 10 24,05:24:41.440,0.4292,-0.619562,-0.438272,-0.489742,-0.979034,0.020997,-0.028321,0.0,-28.320313,-14.343262,0,0
3775,2024 10 24,05:24:41.448,0.430921,-0.618937,-0.436746,-0.490384,-0.9888,0.030763,0.006836,7.141113,-21.362305,-15.197754,0,0
3776,2024 10 24,05:24:41.457,0.432627,-0.618507,-0.435408,-0.490616,-0.963408,-0.032228,0.006836,5.249023,-17.578125,-17.63916,0,0
3777,2024 10 24,05:24:41.465,0.434456,-0.618045,-0.434354,-0.490515,-0.990753,0.030763,0.039064,12.390137,-14.648438,-16.174316,0,0
3778,2024 10 24,05:24:41.473,0.436176,-0.617662,-0.433265,-0.490434,-0.964873,-0.054201,0.001465,8.728027,-14.648438,-16.357422,0,0
3779,2024 10 24,05:24:41.482,0.437934,-0.617221,-0.432332,-0.490246,-0.963897,-0.018067,0.000977,9.277344,-13.85498,-15.197754,0,0
3780,2024 10 24,05:24:41.490,0.437934,-0.617221,-0.432332,-0.490246,-0.963897,-0.018067,0.000977,9.277344,-13.85498,-15.197754,0,0
3781,2024 10 24,05:24:41.498,0.439518,-0.616785,-0.431471,-0.490136,-0.967803,-0.001953,-0.000977,9.70459,-12.634277,-13.061523,0,0
3782,2024 10 24,05:24:41.507,0.440926,-0.616425,-0.430645,-0.490051,-0.961943,-0.023927,-0.023927,7.141113,-11.291504,-12.756348,0,0
3783,2024 10 24,05:24:41.515,0.44224,-0.616078,-0.429896,-0.489961,-0.960967,-0.027833,-0.0,7.507324,-10.620117,-11.84082,0,0
3784,2024 10 24,05:24:41.523,0.443541,-0.615749,-0.429238,-0.489775,-0.966338,-0.038087,-0.015137,8.483887,-9.277344,-11.59668,0,0
3785,2024 10 24,05:24:41.532,0.444987,-0.615312,-0.428713,-0.489472,-0.959502,-0.050783,-0.006348,11.169434,-9.399414,-11.535645,0,0
3786,2024 10 24,05:24:41.540,0.444987,-0.615312,-0.428713,-0.489472,-0.959502,-0.050783,-0.006348,11.169434,-9.399414,-11.535645,0,0
3787,2024 10 24,05:24:41.548,0.446567,-0.614773,-0.428285,-0.489085,-0.974639,-0.033692,0.004883,13.305664,-9.94873,-11.59668,0,0
3788,2024 10 24,05:24:41.557,0.448183,-0.614189,-0.427804,-0.488762,-0.980499,-0.034669,0.006348,13.183594,-11.047363,-11.59668,0,0
3789,2024 10 24,05:24:41.565,0.44978,-0.613587,-0.42725,-0.488535,-0.970733,-0.028321,-0.015625,11.71875,-12.084961,-11.535645,0,0
3790,2024 10 24,05:24:41.573,0.451323,-0.612976,-0.426625,-0.488425,-0.954131,-0.029786,-0.008789,10.620117,-12.512207,-11.047363,0,0
3791,2024 10 24,05:24:41.582,0.452779,-0.612418,-0.425858,-0.488447,-0.95999,-0.036134,-0.007324,8.483887,-13.977051,-11.047363,0,0
3792,2024 10 24,05:24:41.590,0.452779,-0.612418,-0.425858,-0.488447,-0.95999,-0.036134,-0.007324,8.483887,-13.977051,-11.047363,0,0
3793,2024 10 24,05:24:41.598,0.454226,-0.611843,-0.424943,-0.488621,-0.999542,-0.021973,0.012696,6.347656,-16.357422,-11.535645,0,0
3794,2024 10 24,05:24:41.607,0.455671,-0.611267,-0.423732,-0.489047,-0.991241,-0.020508,-0.004883,3.78418,-19.897461,-12.512207,0,0
3795,2024 10 24,05:24:41.615,0.457112,-0.610669,-0.422252,-0.48973,-0.979522,-0.043947,-0.003906,0.732422,-22.949219,-12.634277,0,0
3796,2024 10 24,05:24:41.623,0.458489,-0.610092,-0.420622,-0.490564,-0.954131,-0.04004,-0.0459,-0.793457,-23.55957,-12.512207,0,0
3797,2024 10 24,05:24:41.632,0.459789,-0.609562,-0.418938,-0.491446,-0.96878,-0.050295,-0.034669,-1.708984,-23.31543,-12.084961,0,0
3798,2024 10 24,05:24:41.640,0.461117,-0.609007,-0.41725,-0.492325,-0.959502,-0.051271,-0.04004,-1.647949,-24.169922,-12.634277,0,0
3799,2024 10 24,05:24:41.648,0.461117,-0.609007,-0.41725,-0.492325,-0.959502,-0.051271,-0.04004,-1.647949,-24.169922,-12.634277,0,0
3800,2024 10 24,05:24:41.657,0.462514,-0.608383,-0.415591,-0.493188,-0.96292,-0.064455,-0.025391,-0.183105,-24.169922,-12.390137,0,0
3801,2024 10 24,05:24:41.665,0.463966,-0.607772,-0.413896,-0.494002,-0.984405,-0.0459,-0.0459,-0.12207,-24.902344,-13.305664,0,0
3802,2024 10 24,05:24:41.673,0.465543,-0.607098,-0.412196,-0.494768,-0.969756,-0.070803,-0.036622,1.525879,-24.841309,-14.282227,0,0
3803,2024 10 24,05:24:41.682,0.467058,-0.606604,-0.410449,-0.4954,-1.004425,-0.069826,-0.096194,-0.732422,-21.484375,-16.235352,0,0
3804,2024 10 24,05:24:41.690,0.46891,-0.605888,-0.408747,-0.495933,-0.989288,-0.011231,-0.050295,6.164551,-26.489258,-17.089844,0,0
3805,2024 10 24,05:24:41.698,0.46891,-0.605888,-0.408747,-0.495933,-0.989288,-0.011231,-0.050295,6.164551,-26.489258,-17.089844,0,0
3806,2024 10 24,05:24:41.707,0.470769,-0.605246,-0.407,-0.496392,-0.972686,-0.075686,-0.058107,3.112793,-23.071289,-17.883301,0,0
3807,2024 10 24,05:24:41.715,0.472636,-0.604822,-0.405193,-0.496613,-0.977569,-0.069338,-0.0918,4.882813,-21.484375,-21.362305,0,0
3808,2024 10 24,05:24:41.723,0.47467,-0.604433,-0.40333,-0.496663,-0.967803,-0.064943,-0.075198,5.371094,-20.812988,-23.376465,0,0
3809,2024 10 24,05:24:41.732,0.476765,-0.604165,-0.401593,-0.496391,-0.969756,-0.070315,-0.097659,7.69043,-17.578125,-25.268555,0,0
3810,2024 10 24,05:24:41.740,0.47896,-0.603959,-0.399923,-0.495875,-0.972198,-0.08887,-0.091311,9.033203,-15.563965,-26.977539,0,0
3811,2024 10 24,05:24:41.748,0.47896,-0.603959,-0.399923,-0.495875,-0.972198,-0.08887,-0.091311,9.033203,-15.563965,-26.977539,0,0
3812,2024 10 24,05:24:41.757,0.481319,-0.603823,-0.398398,-0.494983,-0.971221,-0.10596,-0.060549,12.634277,-12.756348,-29.296875,0,0
3813,2024 10 24,05:24:41.765,0.48398,-0.603624,-0.397007,-0.493748,-0.978545,-0.100101,-0.076662,18.554688,-11.535645,-31.921387,0,0
3814,2024 10 24,05:24:41.773,0.486873,-0.603374,-0.395761,-0.492206,-0.997101,-0.083987,-0.102542,21.789551,-9.82666,-33.508301,0,0
3815,2024 10 24,05:24:41.782,0.489998,-0.603179,-0.394459,-0.490388,-1.030793,-0.064943,-0.061037,23.31543,-9.399414,-37.597656,0,0
3816,2024 10 24,05:24:41.790,0.493148,-0.603266,-0.393002,-0.488289,-1.077181,-0.064455,-0.100101,22.827148,-5.79834,-42.175293,0,0
3817,2024 10 24,05:24:41.798,0.493148,-0.603266,-0.393002,-0.488289,-1.077181,-0.064455,-0.100101,22.827148,-5.79834,-42.175293,0,0
3818,2024 10 24,05:24:41.807,0.496472,-0.603635,-0.391222,-0.485887,-1.155309,-0.028321,-0.114261,20.874023,-4.943848,-48.88916,0,0
3819,2024 10 24,05:24:41.815,0.499898,-0.604532,-0.388881,-0.48313,-1.2725,-0.019532,-0.058107,16.662598,-3.417969,-58.959961,0,0
3820,2024 10 24,05:24:41.823,0.503824,-0.605928,-0.385896,-0.479684,-1.354045,-0.022462,0.02002,18.676758,-2.685547,-73.791504,0,0
3821,2024 10 24,05:24:41.832,0.508741,-0.607658,-0.382229,-0.475222,-1.403851,-0.020997,-0.032228,26.916504,-2.746582,-92.224121,0,0
3822,2024 10 24,05:24:41.840,0.514842,-0.609557,-0.377838,-0.469698,-1.376019,0.010743,-0.02295,32.287598,-2.01416,-110.900879,0,0
3823,2024 10 24,05:24:41.848,0.514842,-0.609557,-0.377838,-0.469698,-1.376019,0.010743,-0.02295,32.287598,-2.01416,-110.900879,0,0
3824,2024 10 24,05:24:41.857,0.521203,-0.612474,-0.372627,-0.463004,-1.477584,0.030763,-0.085452,26.184082,6.591797,-129.760742,0,0
3825,2024 10 24,05:24:41.865,0.528239,-0.616134,-0.366165,-0.455265,-1.496139,0.074221,-0.00293,25.512695,4.821777,-152.832031,0,0
3826,2024 10 24,05:24:41.873,0.535758,-0.620753,-0.358196,-0.446458,-1.663137,0.098148,-0.0459,19.287109,5.92041,-177.55127,0,0
3827,2024 10 24,05:24:41.882,0.544241,-0.625949,-0.348346,-0.436629,-1.75396,0.221198,0.071291,15.808105,0.976563,-206.787109,0,0
3828,2024 10 24,05:24:41.890,0.553018,-0.63252,-0.335851,-0.425786,-1.938536,0.242195,0.06592,3.356934,-4.577637,-241.149902,0,0
3829,2024 10 24,05:24:41.898,0.553018,-0.63252,-0.335851,-0.425786,-1.938536,0.242195,0.06592,3.356934,-4.577637,-241.149902,0,0
3830,2024 10 24,05:24:41.907,0.563111,-0.6398,-0.320522,-0.413314,-2.240303,0.282723,-0.006348,-1.77002,-11.352539,-285.03418,0,0
3831,2024 10 24,05:24:41.915,0.575139,-0.647425,-0.301888,-0.398648,-2.464919,0.338389,0.140629,4.943848,-24.414063,-339.172363,0,0
3832,2024 10 24,05:24:41.923,0.588511,-0.656389,-0.278319,-0.381244,-2.941984,0.037111,-0.090335,-10.864258,-33.630371,-407.897949,0,0
3833,2024 10 24,05:24:41.932,0.604108,-0.665569,-0.250014,-0.35995,-2.672933,0.031251,0.373058,-2.380371,-36.376953,-482.055664,0,0
3834,2024 10 24,05:24:41.940,0.619343,-0.675104,-0.219597,-0.335299,-2.830653,-0.278817,0.235359,-0.671387,-28.564453,-507.629395,0,0
3835,2024 10 24,05:24:41.948,0.619343,-0.675104,-0.219597,-0.335299,-2.830653,-0.278817,0.235359,-0.671387,-28.564453,-507.629395,0,0
3836,2024 10 24,05:24:41.957,0.633369,-0.683966,-0.187833,-0.309439,-2.940031,-0.698752,-0.362804,-15.441895,-31.921387,-517.883301,0,1
3837,2024 10 24,05:24:41.965,0.648026,-0.688892,-0.155641,-0.285071,-2.144597,-0.400891,0.127445,22.460938,-64.025879,-494.689941,0,0
3838,2024 10 24,05:24:41.973,0.661909,-0.69168,-0.125104,-0.260391,-1.950255,0.010254,0.235359,41.564941,-41.137695,-480.46875,0,0
3839,2024 10 24,05:24:41.982,0.675438,-0.692585,-0.096731,-0.233994,-1.406293,0.474136,0.628925,59.082031,-13.671875,-474.42627,0,0
3840,2024 10 24,05:24:41.990,0.687168,-0.693491,-0.071514,-0.204342,-1.030305,0.493667,0.492203,57.250977,41.931152,-469.726563,0,0
3841,2024 10 24,05:24:41.998,0.687168,-0.693491,-0.071514,-0.204342,-1.030305,0.493667,0.492203,57.250977,41.931152,-469.726563,0,0
3842,2024 10 24,05:24:42.007,0.698982,-0.692666,-0.050553,-0.170534,-0.773949,0.720725,0.491714,87.524414,110.046387,-461.975098,0,0
3843,2024 10 24,05:24:42.015,0.71127,-0.689274,-0.036552,-0.13289,-0.652364,0.990265,0.998077,136.779785,195.129395,-428.955078,0,0
3844,2024 10 24,05:24:42.023,0.725047,-0.68165,-0.031287,-0.093174,0.253426,-0.135746,1.092807,195.068359,262.695313,-373.291016,0,0
3845,2024 10 24,05:24:42.032,0.738679,-0.669679,-0.038976,-0.066061,-0.058596,2.707602,0.986358,242.248535,261.047363,-80.871582,0,0
3846,2024 10 24,05:24:42.040,0.743894,-0.66288,-0.060279,-0.059827,-2.221259,1.813532,-0.533708,83.862305,185.60791,148.132324,0,0
3847,2024 10 24,05:24:42.048,0.747194,-0.656091,-0.079128,-0.0706,-1.420942,1.730522,-0.038575,64.39209,41.503906,246.643066,0,0
3848,2024 10 24,05:24:42.057,0.747194,-0.656091,-0.079128,-0.0706,-1.420942,1.730522,-0.038575,64.39209,41.503906,246.643066,0,0
3849,2024 10 24,05:24:42.065,0.744958,-0.654052,-0.096233,-0.089396,-1.002472,1.210486,0.135258,-14.892578,-3.662109,291.19873,0,0
3850,2024 10 24,05:24:42.073,0.739928,-0.654152,-0.111734,-0.110036,-0.380383,0.847194,0.274911,-53.894043,-16.601563,288.574219,0,0
3851,2024 10 24,05:24:42.082,0.733583,-0.655378,-0.127537,-0.126766,0.009766,0.602557,0.331553,-57.373047,33.569336,254.699707,0,0
3852,2024 10 24,05:24:42.090,0.726546,-0.657431,-0.14565,-0.136753,0.17188,0.623554,0.06885,-58.044434,109.069824,217.651367,0,0
3853,2024 10 24,05:24:42.098,0.718618,-0.660255,-0.16656,-0.141098,-0.025391,0.604022,0.132328,-57.373047,173.88916,197.692871,0,0
3854,2024 10 24,05:24:42.107,0.718618,-0.660255,-0.16656,-0.141098,-0.025391,0.604022,0.132328,-57.373047,173.88916,197.692871,0,0
3855,2024 10 24,05:24:42.115,0.709242,-0.663565,-0.190514,-0.142693,-0.498062,0.586444,-0.032228,-64.025879,217.834473,204.223633,0,0
3856,2024 10 24,05:24:42.123,0.698447,-0.666589,-0.216903,-0.144168,-1.041047,0.554216,-0.192389,-68.054199,233.642578,225.158691,0,0
3857,2024 10 24,05:24:42.132,0.686817,-0.668487,-0.243929,-0.148007,-1.379925,0.500992,-0.341807,-70.983887,213.012695,251.89209,0,0
3858,2024 10 24,05:24:42.140,0.67474,-0.668853,-0.270522,-0.155498,-1.547899,0.335459,-0.416517,-73.364258,178.344727,281.677246,0,0
3859,2024 10 24,05:24:42.148,0.662892,-0.66714,-0.296195,-0.166634,-1.511277,0.114261,-0.423841,-65.429688,139.709473,307.861328,0,0
3860,2024 10 24,05:24:42.157,0.662892,-0.66714,-0.296195,-0.166634,-1.511277,0.114261,-0.423841,-65.429688,139.709473,307.861328,0,0
3861,2024 10 24,05:24:42.165,0.651872,-0.662907,-0.321279,-0.179994,-1.364788,-0.087893,-0.420911,-45.898438,114.440918,326.538086,0,0
3862,2024 10 24,05:24:42.173,0.642113,-0.655897,-0.346406,-0.193631,-1.194372,-0.219245,-0.385266,-13.305664,107.299805,335.9375,0,0
3863,2024 10 24,05:24:42.182,0.633601,-0.646163,-0.372377,-0.205811,-1.169469,-0.257332,-0.353526,25.085449,116.882324,339.72168,0,0
3864,2024 10 24,05:24:42.190,0.626163,-0.633831,-0.39945,-0.215911,-1.274941,-0.214362,-0.36964,63.171387,129.211426,341.308594,0,0
3865,2024 10 24,05:24:42.198,0.619642,-0.619013,-0.427189,-0.224446,-1.436567,-0.124027,-0.386242,94.360352,132.93457,344.360352,0,0
3866,2024 10 24,05:24:42.207,0.619642,-0.619013,-0.427189,-0.224446,-1.436567,-0.124027,-0.386242,94.360352,132.93457,344.360352,0,0
3867,2024 10 24,05:24:42.215,0.61382,-0.60181,-0.455026,-0.232379,-1.558641,-0.043458,-0.427259,117.30957,126.281738,350.891113,0,0
3868,2024 10 24,05:24:42.223,0.608408,-0.582504,-0.482403,-0.240448,-1.650929,-0.003906,-0.448744,131.286621,113.40332,358.459473,0,0
3869,2024 10 24,05:24:42.232,0.603114,-0.561395,-0.509118,-0.248772,-1.653859,0.038087,-0.378918,139.770508,103.515625,365.05127,0,0
3870,2024 10 24,05:24:42.240,0.596813,-0.539362,-0.535634,-0.256904,-1.719779,-0.02588,-0.410657,139.099121,110.168457,371.154785,0,0
3871,2024 10 24,05:24:42.248,0.589291,-0.516554,-0.561965,-0.264771,-1.844295,-0.146977,-0.340831,136.901855,115.356445,377.380371,0,0
3872,2024 10 24,05:24:42.257,0.589291,-0.516554,-0.561965,-0.264771,-1.844295,-0.146977,-0.340831,136.901855,115.356445,377.380371,0,0
3873,2024 10 24,05:24:42.265,0.58032,-0.493175,-0.587986,-0.272543,-2.002014,-0.354503,-0.287606,131.652832,121.765137,383.728027,0,0
3874,2024 10 24,05:24:42.273,0.570048,-0.469608,-0.613211,-0.280151,-2.10651,-0.638203,-0.297372,123.840332,124.694824,382.93457,0,0
3875,2024 10 24,05:24:42.282,0.558905,-0.446408,-0.637049,-0.287253,-2.190985,-0.885281,-0.268075,114.257813,125.183105,371.948242,0,0
3876,2024 10 24,05:24:42.290,0.547032,-0.424355,-0.659062,-0.293796,-2.346751,-1.104038,-0.347667,99.365234,125.305176,353.088379,0,0
3877,2024 10 24,05:24:42.298,0.534894,-0.404149,-0.678499,-0.300318,-2.413648,-1.494186,-0.460952,75.561523,116.027832,327.636719,0,0
3878,2024 10 24,05:24:42.307,0.534894,-0.404149,-0.678499,-0.300318,-2.413648,-1.494186,-0.460952,75.561523,116.027832,327.636719,0,0
3879,2024 10 24,05:24:42.315,0.522917,-0.386665,-0.694699,-0.307312,-2.241279,-1.890194,-0.58742,42.297363,102.539063,294.250488,0,0
3880,2024 10 24,05:24:42.323,0.511232,-0.372926,-0.707521,-0.314614,-1.831599,-2.267647,-0.720725,5.310059,94.116211,250.12207,0,0
3881,2024 10 24,05:24:42.332,0.499577,-0.363971,-0.717317,-0.321566,-1.475631,-2.732017,-0.870632,-30.944824,98.083496,196.777344,0,0
3882,2024 10 24,05:24:42.340,0.488077,-0.360128,-0.724452,-0.327502,-1.231971,-3.087985,-1.169958,-59.082031,104.919434,137.878418,0,0
3883,2024 10 24,05:24:42.348,0.477874,-0.361268,-0.728671,-0.331904,-1.298379,-3.675893,-1.355998,-78.063965,101.989746,71.655273,0,0
3884,2024 10 24,05:24:42.357,0.477874,-0.361268,-0.728671,-0.331904,-1.298379,-3.675893,-1.355998,-78.063965,101.989746,71.655273,0,0
3885,2024 10 24,05:24:42.365,0.470333,-0.366183,-0.730091,-0.334162,-1.730033,-3.915647,-1.213904,-74.279785,82.214355,11.59668,0,0
3886,2024 10 24,05:24:42.373,0.468204,-0.372582,-0.727928,-0.334796,-2.042543,-3.380474,-0.882351,-58.959961,20.080566,-43.762207,0,0
3887,2024 10 24,05:24:42.382,0.47431,-0.380698,-0.728664,-0.314876,-4.098269,-0.734886,-5.132481,158.081055,44.128418,-246.459961,0,0
3888,2024 10 24,05:24:42.390,0.507356,-0.385189,-0.70471,-0.312414,-0.456557,0.205573,5.413739,151.062012,-369.873047,-266.723633,1,0
3889,2024 10 24,05:24:42.398,0.51612,-0.39319,-0.695238,-0.309299,-1.446821,-0.287606,-1.133335,-145.874023,-60.180664,-122.680664,0,0
3890,2024 10 24,05:24:42.407,0.51612,-0.39319,-0.695238,-0.309299,-1.446821,-0.287606,-1.133335,-145.874023,-60.180664,-122.680664,0,0
3891,2024 10 24,05:24:42.415,0.528747,-0.399856,-0.682014,-0.308867,-1.342814,1.044465,0.098148,-24.963379,-185.974121,-170.532227,0,0
3892,2024 10 24,05:24:42.423,0.542564,-0.411096,-0.660672,-0.316443,-1.129917,-0.711936,-1.481002,-135.375977,-230.957031,-194.458008,0,0
3893,2024 10 24,05:24:42.432,0.5559,-0.419739,-0.642157,-0.320046,-1.197302,-0.740257,-0.237312,-70.129395,-182.373047,-162.597656,0,0
3894,2024 10 24,05:24:42.440,0.567305,-0.424308,-0.62789,-0.322308,-0.965361,-0.268563,-0.17481,-35.339355,-163.146973,-113.708496,0,0
3895,2024 10 24,05:24:42.448,0.576399,-0.426778,-0.616418,-0.325043,-1.000031,0.343272,0.36964,-43.457031,-136.779785,-86.120605,0,0
3896,2024 10 24,05:24:42.457,0.582328,-0.432308,-0.60408,-0.330289,-1.041047,-0.129887,-0.001465,-99.609375,-129.455566,-89.599609,0,0
3897,2024 10 24,05:24:42.465,0.582328,-0.432308,-0.60408,-0.330289,-1.041047,-0.129887,-0.001465,-99.609375,-129.455566,-89.599609,0,0
3898,2024 10 24,05:24:42.473,0.588794,-0.436068,-0.592507,-0.334817,-0.862819,-0.219733,-0.057619,-55.297852,-128.540039,-69.824219,0,0
3899,2024 10 24,05:24:42.482,0.594873,-0.43795,-0.582151,-0.339746,-0.865261,-0.078616,-0.035646,-62.805176,-127.563477,-50.90332,0,0
3900,2024 10 24,05:24:42.490,0.599261,-0.44011,-0.572634,-0.345369,-0.855495,-0.117191,-0.225105,-61.279297,-106.262207,-38.696289,0,0
3901,2024 10 24,05:24:42.498,0.603016,-0.441374,-0.565381,-0.349148,-0.783227,-0.215339,-0.444349,-35.583496,-79.772949,-31.311035,0,0
3902,2024 10 24,05:24:42.507,0.606295,-0.441106,-0.561185,-0.350576,-0.93997,0.093753,0.021973,-2.868652,-50.170898,-19.714355,0,0
3903,2024 10 24,05:24:42.515,0.606295,-0.441106,-0.561185,-0.350576,-0.93997,0.093753,0.021973,-2.868652,-50.170898,-19.714355,0,0
3904,2024 10 24,05:24:42.523,0.608323,-0.441077,-0.558424,-0.351507,-0.868679,-0.10303,-0.261238,-2.746582,-32.165527,-15.991211,0,0
3905,2024 10 24,05:24:42.532,0.610334,-0.440544,-0.556829,-0.351219,-0.951201,0.050783,-0.020997,9.033203,-20.507813,-15.075684,0,0
3906,2024 10 24,05:24:42.540,0.611742,-0.440364,-0.555901,-0.350465,-0.953642,0.010743,-0.039552,11.71875,-10.070801,-16.357422,0,0
3907,2024 10 24,05:24:42.548,0.613182,-0.440165,-0.555274,-0.349188,-0.994659,-0.009766,-0.024903,16.174316,-6.896973,-17.63916,0,0
3908,2024 10 24,05:24:42.557,0.614679,-0.4399,-0.554741,-0.347736,-0.983917,-0.037111,-0.049318,16.113281,-6.591797,-17.700195,0,0
3909,2024 10 24,05:24:42.565,0.614679,-0.4399,-0.554741,-0.347736,-0.983917,-0.037111,-0.049318,16.113281,-6.591797,-17.700195,0,0
3910,2024 10 24,05:24:42.573,0.616229,-0.439463,-0.554283,-0.346272,-0.986847,0.013184,-0.014649,17.883301,-7.385254,-16.967773,0,0
3911,2024 10 24,05:24:42.582,0.61769,-0.439116,-0.553668,-0.345092,-0.988311,0.010743,-0.031251,14.343262,-9.155273,-15.686035,0,0
3912,2024 10 24,05:24:42.590,0.619029,-0.438825,-0.552876,-0.344329,-0.961943,0.015137,-0.049318,9.58252,-11.59668,-13.305664,0,0
3913,2024 10 24,05:24:42.598,0.620181,-0.438723,-0.551937,-0.343894,-0.961943,0.008301,-0.057619,5.004883,-11.59668,-12.268066,0,0
3914,2024 10 24,05:24:42.607,0.621158,-0.438758,-0.550986,-0.343611,-0.958525,-0.023927,-0.065432,2.13623,-10.864258,-11.413574,0,0
3915,2024 10 24,05:24:42.615,0.621158,-0.438758,-0.550986,-0.343611,-0.958525,-0.023927,-0.065432,2.13623,-10.864258,-11.413574,0,0
3916,2024 10 24,05:24:42.623,0.622053,-0.438831,-0.550074,-0.34336,-0.951689,-0.016114,-0.055666,1.525879,-9.94873,-10.864258,0,0
3917,2024 10 24,05:24:42.632,0.622966,-0.438885,-0.549186,-0.343058,-0.980987,-0.009278,-0.028809,3.234863,-10.192871,-11.291504,0,0
3918,2024 10 24,05:24:42.640,0.62397,-0.438829,-0.548296,-0.342727,-0.983428,-0.016114,-0.047365,4.333496,-11.413574,-11.59668,0,0
3919,2024 10 24,05:24:42.648,0.625093,-0.438726,-0.547307,-0.342392,-0.967803,-0.011231,-0.048341,3.90625,-12.756348,-12.084961,0,0
3920,2024 10 24,05:24:42.657,0.626133,-0.438773,-0.546201,-0.3422,-0.958037,-0.017579,-0.061525,0.793457,-12.939453,-12.268066,0,0
3921,2024 10 24,05:24:42.665,0.626133,-0.438773,-0.546201,-0.3422,-0.958037,-0.017579,-0.061525,0.793457,-12.939453,-12.268066,0,0
3922,2024 10 24,05:24:42.673,0.627081,-0.438934,-0.545073,-0.342056,-0.966338,-0.002441,-0.064455,-0.12207,-12.145996,-12.390137,0,0
3923,2024 10 24,05:24:42.682,0.627922,-0.439251,-0.543857,-0.34204,-0.96878,-0.013672,-0.056642,-3.417969,-12.695313,-12.512207,0,0
3924,2024 10 24,05:24:42.690,0.628818,-0.439554,-0.542536,-0.342104,-0.953642,-0.037599,-0.054689,-3.417969,-14.221191,-12.390137,0,0
3925,2024 10 24,05:24:42.698,0.629757,-0.439873,-0.541101,-0.342238,-0.967803,-0.037599,-0.067385,-3.78418,-15.50293,-12.390137,0,0
3926,2024 10 24,05:24:42.707,0.630826,-0.440057,-0.539559,-0.34247,-0.971709,-0.050783,-0.085452,-3.540039,-18.493652,-11.59668,0,0
3927,2024 10 24,05:24:42.715,0.630826,-0.440057,-0.539559,-0.34247,-0.971709,-0.050783,-0.085452,-3.540039,-18.493652,-11.59668,0,0
3928,2024 10 24,05:24:42.723,0.632022,-0.440134,-0.537954,-0.342688,-0.970244,-0.042482,-0.059572,-2.685547,-19.348145,-12.268066,0,0
3929,2024 10 24,05:24:42.732,0.633276,-0.440153,-0.536368,-0.342835,-0.969756,-0.046388,-0.078127,-0.732422,-20.263672,-12.878418,0,0
3930,2024 10 24,05:24:42.740,0.634642,-0.440102,-0.534724,-0.342945,-0.955596,-0.042482,-0.071291,0.305176,-20.874023,-13.427734,0,0
3931,2024 10 24,05:24:42.748,0.635996,-0.44012,-0.53307,-0.342987,-0.963408,-0.020508,-0.076174,-0.305176,-19.958496,-14.526367,0,0
3932,2024 10 24,05:24:42.757,0.637201,-0.44029,-0.531497,-0.342974,-0.991729,-0.055177,-0.113285,-2.01416,-17.822266,-14.770508,0,0
3933,2024 10 24,05:24:42.765,0.637201,-0.44029,-0.531497,-0.342974,-0.991729,-0.055177,-0.113285,-2.01416,-17.822266,-14.770508,0,0
3934,2024 10 24,05:24:42.773,0.638678,-0.440232,-0.529906,-0.342763,-0.973174,-0.014161,-0.093753,3.662109,-19.042969,-15.869141,0,0
3935,2024 10 24,05:24:42.782,0.640038,-0.440388,-0.528333,-0.342451,-0.981964,-0.050783,-0.132328,1.342773,-16.662598,-18.066406,0,0
3936,2024 10 24,05:24:42.790,0.641641,-0.440461,-0.526653,-0.341946,-0.975616,-0.022462,-0.074221,4.455566,-18.981934,-20.080566,0,0
3937,2024 10 24,05:24:42.798,0.643174,-0.440704,-0.525017,-0.341268,-0.991729,-0.051759,-0.131352,3.479004,-15.869141,-22.155762,0,0
3938,2024 10 24,05:24:42.807,0.644807,-0.440987,-0.523398,-0.340307,-0.989776,-0.0459,-0.11475,5.065918,-15.197754,-24.658203,0,0
3939,2024 10 24,05:24:42.815,0.644807,-0.440987,-0.523398,-0.340307,-0.989776,-0.0459,-0.11475,5.065918,-15.197754,-24.658203,0,0
3940,2024 10 24,05:24:42.823,0.646447,-0.441382,-0.521841,-0.339072,-0.989288,-0.063478,-0.11182,6.469727,-13.000488,-27.34375,0,0
3941,2024 10 24,05:24:42.832,0.648167,-0.441862,-0.520413,-0.337355,-0.997101,-0.049806,-0.104007,10.498047,-9.70459,-31.37207,0,0
3942,2024 10 24,05:24:42.840,0.649961,-0.442433,-0.519014,-0.335303,-1.030793,-0.054689,-0.128422,12.634277,-7.263184,-34.606934,0,0
3943,2024 10 24,05:24:42.848,0.651935,-0.443101,-0.517617,-0.332739,-1.057161,-0.052736,-0.113285,14.892578,-5.92041,-40.222168,0,0
3944,2024 10 24,05:24:42.857,0.654083,-0.443989,-0.516184,-0.32955,-1.098178,-0.028321,-0.113285,18.798828,-2.685547,-47.546387,0,0
3945,2024 10 24,05:24:42.865,0.656389,-0.445242,-0.51469,-0.325588,-1.126987,-0.037111,-0.101077,20.202637,1.159668,-57.189941,0,0
3946,2024 10 24,05:24:42.873,0.656389,-0.445242,-0.51469,-0.325588,-1.126987,-0.037111,-0.101077,20.202637,1.159668,-57.189941,0,0
3947,2024 10 24,05:24:42.882,0.658787,-0.446984,-0.513028,-0.320947,-1.160192,-0.019532,-0.102542,19.53125,5.004883,-66.101074,0,0
3948,2024 10 24,05:24:42.890,0.661316,-0.449235,-0.510981,-0.315828,-1.186071,0.012207,-0.08594,17.63916,4.211426,-75.195313,0,0
3949,2024 10 24,05:24:42.898,0.663555,-0.452401,-0.508673,-0.310291,-1.262246,0.043458,-0.205084,9.094238,11.535645,-85.693359,0,0
3950,2024 10 24,05:24:42.907,0.665883,-0.45648,-0.505891,-0.303809,-1.37846,-0.020508,-0.124027,9.094238,14.221191,-102.294922,0,0
3951,2024 10 24,05:24:42.915,0.66939,-0.460685,-0.50189,-0.296299,-1.3184,0.029786,0.030274,17.700195,0.610352,-122.009277,0,0
3952,2024 10 24,05:24:42.923,0.66939,-0.460685,-0.50189,-0.296299,-1.3184,0.029786,0.030274,17.700195,0.610352,-122.009277,0,0
3953,2024 10 24,05:24:42.932,0.673072,-0.465684,-0.497349,-0.287672,-1.336467,0.028809,-0.074221,14.099121,7.69043,-138.244629,0,0
3954,2024 10 24,05:24:42.940,0.677024,-0.471438,-0.492234,-0.277652,-1.416059,0.085452,-0.067873,19.042969,9.094238,-158.996582,0,0
3955,2024 10 24,05:24:42.948,0.681221,-0.478276,-0.485986,-0.266472,-1.456099,0.144536,-0.063967,9.338379,11.352539,-181.396484,0,0
3956,2024 10 24,05:24:42.957,0.685216,-0.486757,-0.478597,-0.253951,-1.615772,0.241218,-0.051271,0.366211,13.305664,-209.411621,0,0
3957,2024 10 24,05:24:42.965,0.688957,-0.497326,-0.46954,-0.23987,-1.856014,0.261238,-0.158696,-13.916016,19.40918,-244.567871,0,0
3958,2024 10 24,05:24:42.973,0.688957,-0.497326,-0.46954,-0.23987,-1.856014,0.261238,-0.158696,-13.916016,19.40918,-244.567871,0,0
3959,2024 10 24,05:24:42.982,0.693551,-0.508985,-0.458429,-0.223079,-2.121647,0.449721,-0.06592,-2.746582,10.986328,-290.039063,0,0
3960,2024 10 24,05:24:42.990,0.699274,-0.522045,-0.443851,-0.203668,-2.39021,0.45558,-0.164556,-4.943848,-2.929688,-345.88623,0,0
3961,2024 10 24,05:24:42.998,0.706073,-0.536514,-0.425268,-0.181001,-2.930753,0.514176,-0.202643,-6.347656,-17.63916,-409.973145,0,0
3962,2024 10 24,05:24:43.007,0.712293,-0.554482,-0.401437,-0.15504,-3.257912,0.218268,-0.331065,-36.254883,-28.686523,-486.38916,0,0
3963,2024 10 24,05:24:43.015,0.719106,-0.571925,-0.373319,-0.128146,-2.941496,0.052736,0.033692,-27.709961,-68.054199,-508.178711,0,0
3964,2024 10 24,05:24:43.023,0.719106,-0.571925,-0.373319,-0.128146,-2.941496,0.052736,0.033692,-27.709961,-68.054199,-508.178711,0,0
3965,2024 10 24,05:24:43.032,0.722624,-0.592331,-0.341821,-0.10058,-2.961516,-0.592303,-0.192389,-72.875977,-59.997559,-540.466309,0,1
3966,2024 10 24,05:24:43.040,0.725546,-0.610102,-0.309984,-0.072583,-2.390698,-0.735374,0.086917,-42.785645,-63.720703,-525.57373,0,0
3967,2024 10 24,05:24:43.048,0.727645,-0.624997,-0.279139,-0.044649,-2.523026,-0.295419,0.158696,-37.841797,-53.833008,-509.643555,0,0
3968,2024 10 24,05:24:43.057,0.729193,-0.637306,-0.248717,-0.016086,-2.014222,0.446791,0.420911,-8.666992,-48.095703,-505.79834,0,0
3969,2024 10 24,05:24:43.065,0.7294,-0.647832,-0.219371,0.012908,-1.407758,0.89114,0.456069,-5.615234,-25.390625,-494.873047,0,0
3970,2024 10 24,05:24:43.073,0.7294,-0.647832,-0.219371,0.012908,-1.407758,0.89114,0.456069,-5.615234,-25.390625,-494.873047,0,0
3971,2024 10 24,05:24:43.082,0.7283,-0.656097,-0.192721,0.044425,-1.056185,0.871609,0.807642,14.343262,26.550293,-487.243652,0,0
3972,2024 10 24,05:24:43.090,0.726144,-0.661423,-0.170082,0.079413,-1.167516,0.772485,0.660176,37.414551,90.576172,-481.506348,0,0
3973,2024 10 24,05:24:43.098,0.723738,-0.663288,-0.149288,0.118177,-0.693381,-0.139653,0.292489,71.289063,134.033203,-492.492676,0,0
3974,2024 10 24,05:24:43.107,0.725163,-0.658113,-0.136198,0.149922,0.720725,0.580096,1.075716,150.20752,132.019043,-286.865234,0,0
3975,2024 10 24,05:24:43.115,0.729696,-0.65025,-0.138165,0.160094,-0.086428,2.308664,0.247566,87.036133,93.200684,34.362793,0,0
3976,2024 10 24,05:24:43.123,0.729696,-0.65025,-0.138165,0.160094,-0.086428,2.308664,0.247566,87.036133,93.200684,34.362793,0,0
3977,2024 10 24,05:24:43.132,0.733942,-0.64429,-0.152427,0.15161,-1.065462,1.459517,-0.211432,36.437988,44.311523,234.375,0,0
3978,2024 10 24,05:24:43.140,0.738567,-0.639227,-0.170437,0.12984,-1.42436,0.984405,0.329112,-7.446289,-29.968262,350.830078,0,0
3979,2024 10 24,05:24:43.148,0.74276,-0.635046,-0.187376,0.099572,-0.951689,0.578631,0.445814,-17.272949,-94.116211,394.897461,0,0
3980,2024 10 24,05:24:43.157,0.745614,-0.631115,-0.203074,0.067194,-0.446303,0.306162,0.268563,-32.470703,-102.172852,393.493652,0,0
3981,2024 10 24,05:24:43.165,0.747252,-0.626271,-0.218811,0.039003,-0.146977,0.196783,0.385754,-22.705078,-57.312012,354.248047,0,0
3982,2024 10 24,05:24:43.173,0.747252,-0.626271,-0.218811,0.039003,-0.146977,0.196783,0.385754,-22.705078,-57.312012,354.248047,0,0
3983,2024 10 24,05:24:43.182,0.747497,-0.620865,-0.235515,0.017499,-0.079104,0.115238,0.375988,-6.286621,5.859375,304.931641,0,0
3984,2024 10 24,05:24:43.190,0.746712,-0.614931,-0.25353,0.001861,-0.241218,0.186041,0.333018,2.868652,57.128906,269.714355,0,0
3985,2024 10 24,05:24:43.198,0.745064,-0.608488,-0.272966,-0.010621,-0.580096,0.293954,0.243171,9.338379,89.050293,258.789063,0,0
3986,2024 10 24,05:24:43.207,0.74283,-0.601645,-0.292725,-0.023197,-0.866726,0.338878,0.171392,5.981445,83.068848,265.991211,0,0
3987,2024 10 24,05:24:43.215,0.740338,-0.594106,-0.312249,-0.037929,-1.044954,0.391614,0.04883,1.098633,64.697266,286.315918,0,0
3988,2024 10 24,05:24:43.223,0.740338,-0.594106,-0.312249,-0.037929,-1.044954,0.391614,0.04883,1.098633,64.697266,286.315918,0,0
3989,2024 10 24,05:24:43.232,0.737635,-0.58581,-0.331064,-0.055834,-1.034211,0.290048,0.080081,-5.249023,37.414551,311.828613,0,0
3990,2024 10 24,05:24:43.240,0.734388,-0.57663,-0.34981,-0.076194,-0.95999,0.147954,0.047853,-10.375977,25.695801,334.899902,0,0
3991,2024 10 24,05:24:43.248,0.730449,-0.566377,-0.369006,-0.097446,-0.874538,-0.003906,0.11475,-6.530762,29.47998,348.571777,0,0
3992,2024 10 24,05:24:43.257,0.725624,-0.555013,-0.389267,-0.117908,-0.847194,-0.074221,0.109378,3.173828,49.316406,353.69873,0,0
3993,2024 10 24,05:24:43.265,0.719765,-0.542656,-0.410816,-0.136721,-0.923368,-0.110355,0.120609,14.343262,75.256348,353.820801,0,0
3994,2024 10 24,05:24:43.273,0.712831,-0.529418,-0.433468,-0.153926,-1.089877,-0.088382,0.107425,22.460938,95.52002,353.393555,0,0
3995,2024 10 24,05:24:43.282,0.712831,-0.529418,-0.433468,-0.153926,-1.089877,-0.088382,0.107425,22.460938,95.52002,353.393555,0,0
3996,2024 10 24,05:24:43.290,0.704853,-0.515349,-0.456763,-0.170191,-1.356975,0.012696,0.053224,27.770996,107.48291,355.712891,0,0
3997,2024 10 24,05:24:43.298,0.695977,-0.500692,-0.479667,-0.186663,-1.585498,0.018067,-0.025391,23.071289,102.844238,358.947754,0,0
3998,2024 10 24,05:24:43.307,0.686552,-0.48559,-0.501277,-0.20389,-1.750542,0.030274,-0.026368,14.587402,88.989258,360.717773,0,0
3999,2024 10 24,05:24:43.315,0.676543,-0.470278,-0.521363,-0.222054,-1.791559,-0.024903,0.004395,5.187988,75.561523,362.243652,0,0
4000,2024 10 24,05:24:43.323,0.665869,-0.454827,-0.540079,-0.240967,-1.838435,-0.083987,0.078127,-5.737305,65.612793,364.379883,0,0
4001,2024 10 24,05:24:43.332,0.665869,-0.454827,-0.540079,-0.240967,-1.838435,-0.083987,0.078127,-5.737305,65.612793,364.379883,0,0
4002,2024 10 24,05:24:43.340,0.654132,-0.43942,-0.5579,-0.260325,-1.942442,-0.150884,0.151372,-17.272949,65.307617,366.271973,0,0
4003,2024 10 24,05:24:43.348,0.640933,-0.42442,-0.575047,-0.279989,-2.075259,-0.255867,0.165532,-32.470703,70.007324,367.004395,0,0
4004,2024 10 24,05:24:43.356,0.626294,-0.410175,-0.591305,-0.299783,-2.160222,-0.452651,0.157231,-48.706055,74.462891,363.586426,0,0
4005,2024 10 24,05:24:43.365,0.610306,-0.397116,-0.606395,-0.319548,-2.213446,-0.756859,0.162603,-68.054199,80.566406,354.980469,0,0
4006,2024 10 24,05:24:43.373,0.592899,-0.385589,-0.620385,-0.33899,-2.232002,-1.119175,0.202643,-87.768555,91.186523,344.299316,0,0
4007,2024 10 24,05:24:43.381,0.592899,-0.385589,-0.620385,-0.33899,-2.232002,-1.119175,0.202643,-87.768555,91.186523,344.299316,0,0
4008,2024 10 24,05:24:43.390,0.574106,-0.375928,-0.633193,-0.357976,-2.345286,-1.512741,0.271004,-107.910156,101.379395,329.833984,0,0
4009,2024 10 24,05:24:43.398,0.554598,-0.368275,-0.64426,-0.376462,-2.396069,-1.946837,0.312998,-128.356934,103.393555,308.227539,0,0
4010,2024 10 24,05:24:43.406,0.535187,-0.362842,-0.653152,-0.394098,-2.220771,-2.423902,0.350597,-144.40918,100.891113,277.404785,0,0
4011,2024 10 24,05:24:43.415,0.516609,-0.360001,-0.659731,-0.410207,-1.823786,-2.95761,0.341807,-155.029297,98.510742,235.534668,0,0
4012,2024 10 24,05:24:43.423,0.499477,-0.360093,-0.664182,-0.423931,-1.345256,-3.418561,0.115238,-156.494141,99.42627,184.570313,0,0
4013,2024 10 24,05:24:43.431,0.499477,-0.360093,-0.664182,-0.423931,-1.345256,-3.418561,0.115238,-156.494141,99.42627,184.570313,0,0
4014,2024 10 24,05:24:43.440,0.484666,-0.363247,-0.666878,-0.434078,-0.665548,-3.87756,-0.095218,-142.700195,105.224609,119.689941,0,0
4015,2024 10 24,05:24:43.448,0.470747,-0.370586,-0.669226,-0.439544,-0.992218,-4.560686,-0.347667,-124.023438,146.728516,62.683105,0,0
4016,2024 10 24,05:24:43.456,0.45914,-0.380285,-0.672016,-0.439282,-1.672414,-4.060183,-0.218268,-81.604004,150.32959,4.02832,0,0
4017,2024 10 24,05:24:43.465,0.455597,-0.393575,-0.673908,-0.428227,-1.889706,-3.164159,-2.23249,36.010742,175.90332,-180.480957,0,0
4018,2024 10 24,05:24:43.473,0.466794,-0.408951,-0.666098,-0.413734,-2.671468,-2.042054,-1.277383,73.303223,26.855469,-302.612305,0,0
4019,2024 10 24,05:24:43.481,0.466794,-0.408951,-0.666098,-0.413734,-2.671468,-2.042054,-1.277383,73.303223,26.855469,-302.612305,0,0
4020,2024 10 24,05:24:43.490,0.48793,-0.422108,-0.650845,-0.400188,-0.981475,-0.595233,0.555193,51.696777,-162.658691,-329.467773,1,0
4021,2024 10 24,05:24:43.498,0.509181,-0.431619,-0.636591,-0.386254,-1.88287,1.777886,-0.622578,31.616211,-119.750977,-300.231934,0,0
4022,2024 10 24,05:24:43.506,0.520681,-0.449081,-0.612991,-0.389178,-2.336009,-1.050813,-0.457533,-170.349121,-157.531738,-276.550293,0,0
4023,2024 10 24,05:24:43.515,0.536451,-0.459868,-0.589785,-0.391019,-1.991272,-1.036164,-0.772485,-103.57666,-231.262207,-235.778809,0,0
4024,2024 10 24,05:24:43.523,0.551613,-0.462934,-0.569564,-0.396247,-0.824732,-0.666524,0.292978,-42.907715,-217.102051,-133.605957,0,0
4025,2024 10 24,05:24:43.531,0.551613,-0.462934,-0.569564,-0.396247,-0.824732,-0.666524,0.292978,-42.907715,-217.102051,-133.605957,0,0
4026,2024 10 24,05:24:43.540,0.558638,-0.464115,-0.559775,-0.398966,-1.199744,0.065432,-0.25782,-44.921875,-101.074219,-55.358887,0,0
4027,2024 10 24,05:24:43.548,0.562554,-0.465608,-0.550114,-0.405114,-0.877468,0.010254,-0.126957,-68.054199,-107.788086,-40.710449,0,0
4028,2024 10 24,05:24:43.556,0.566211,-0.467122,-0.542204,-0.408923,-0.897,-0.193854,-0.162603,-46.142578,-83.496094,-44.555664,0,0
4029,2024 10 24,05:24:43.565,0.570311,-0.467428,-0.535062,-0.412268,-0.992706,-0.037111,0.041017,-33.508301,-88.195801,-32.714844,0,0
4030,2024 10 24,05:24:43.573,0.573774,-0.467142,-0.527859,-0.417046,-1.057161,-0.009278,0.110355,-46.203613,-98.754883,-21.118164,0,0
4031,2024 10 24,05:24:43.581,0.573774,-0.467142,-0.527859,-0.417046,-1.057161,-0.009278,0.110355,-46.203613,-98.754883,-21.118164,0,0
4032,2024 10 24,05:24:43.590,0.577017,-0.466793,-0.520539,-0.422132,-0.949248,-0.003906,-0.185064,-44.86084,-95.153809,-20.141602,0,0
4033,2024 10 24,05:24:43.598,0.580338,-0.466529,-0.513554,-0.426405,-0.939482,0.04297,-0.0918,-42.358398,-86.425781,-25.085449,0,0
4034,2024 10 24,05:24:43.606,0.582915,-0.466862,-0.507575,-0.429671,-0.784204,-0.097659,-0.321787,-28.686523,-62.805176,-25.146484,0,0
4035,2024 10 24,05:24:43.615,0.584738,-0.467043,-0.50416,-0.431015,-0.855007,0.000977,-0.223151,-14.404297,-30.883789,-18.127441,0,0
4036,2024 10 24,05:24:43.623,0.585782,-0.467553,-0.501998,-0.431569,-0.910672,-0.046388,-0.152837,-11.779785,-17.456055,-16.418457,0,0
4037,2024 10 24,05:24:43.631,0.586724,-0.468097,-0.500523,-0.431413,-0.948759,0.042482,-0.148442,-3.356934,-9.887695,-16.784668,0,0
4038,2024 10 24,05:24:43.640,0.586724,-0.468097,-0.500523,-0.431413,-0.948759,0.042482,-0.148442,-3.356934,-9.887695,-16.784668,0,0
4039,2024 10 24,05:24:43.648,0.587624,-0.46877,-0.499163,-0.431033,-0.989776,-0.005371,-0.111332,-4.577637,-8.666992,-19.470215,0,0
4040,2024 10 24,05:24:43.656,0.58876,-0.469204,-0.497877,-0.430497,-0.938994,0.003906,-0.132328,1.647949,-9.521484,-19.348145,0,0
4041,2024 10 24,05:24:43.665,0.58984,-0.469532,-0.496895,-0.429796,-0.931181,-0.021485,-0.122074,2.868652,-6.591797,-17.333984,0,0
4042,2024 10 24,05:24:43.673,0.590951,-0.469776,-0.49609,-0.42893,-0.954131,-0.001465,-0.12891,5.67627,-5.67627,-17.39502,0,0
4043,2024 10 24,05:24:43.681,0.59213,-0.469954,-0.495361,-0.427952,-0.977081,0.041017,-0.116703,6.591797,-4.882813,-18.371582,0,0
4044,2024 10 24,05:24:43.690,0.59213,-0.469954,-0.495361,-0.427952,-0.977081,0.041017,-0.116703,6.591797,-4.882813,-18.371582,0,0
4045,2024 10 24,05:24:43.698,0.593157,-0.470357,-0.494559,-0.427013,-1.00589,0.025391,-0.104495,2.929688,-4.150391,-19.470215,0,0
4046,2024 10 24,05:24:43.706,0.594084,-0.470952,-0.49363,-0.426143,-0.994171,0.010743,-0.124516,1.708984,-2.746582,-20.202637,0,0
4047,2024 10 24,05:24:43.715,0.5951,-0.471506,-0.492679,-0.425214,-1.006378,0.02295,-0.116703,1.708984,-5.065918,-20.629883,0,0
4048,2024 10 24,05:24:43.723,0.596139,-0.472113,-0.491545,-0.424395,-0.975616,-0.0,-0.150395,0.183105,-6.286621,-20.751953,0,0
4049,2024 10 24,05:24:43.731,0.597243,-0.472668,-0.490278,-0.42369,-0.961943,0.026368,-0.123539,-1.159668,-8.789063,-20.751953,0,0
4050,2024 10 24,05:24:43.740,0.597243,-0.472668,-0.490278,-0.42369,-0.961943,0.026368,-0.123539,-1.159668,-8.789063,-20.751953,0,0
4051,2024 10 24,05:24:43.748,0.598145,-0.473291,-0.488922,-0.42329,-0.911649,-0.039552,-0.143559,-3.845215,-8.117676,-18.066406,0,0
4052,2024 10 24,05:24:43.756,0.598872,-0.474122,-0.487521,-0.422947,-0.958037,-0.002441,-0.189459,-6.530762,-6.530762,-18.920898,0,0
4053,2024 10 24,05:24:43.765,0.599454,-0.475225,-0.48607,-0.422554,-0.997589,-0.012696,-0.159673,-9.82666,-4.272461,-20.629883,0,0
4054,2024 10 24,05:24:43.773,0.600217,-0.476324,-0.484639,-0.421877,-0.987823,-0.019044,-0.162114,-5.493164,-5.187988,-24.047852,0,0
4055,2024 10 24,05:24:43.781,0.601232,-0.47732,-0.483083,-0.42109,-0.997589,-0.02588,-0.142582,-4.211426,-6.286621,-25.32959,0,0
4056,2024 10 24,05:24:43.790,0.601232,-0.47732,-0.483083,-0.42109,-0.997589,-0.02588,-0.142582,-4.211426,-6.286621,-25.32959,0,0
4057,2024 10 24,05:24:43.798,0.602423,-0.478282,-0.48162,-0.41997,-1.008332,-0.041993,-0.167974,-0.12207,-5.981445,-28.259277,0,0
4058,2024 10 24,05:24:43.806,0.603983,-0.479048,-0.480107,-0.418588,-0.975616,-0.041505,-0.138676,4.394531,-7.263184,-30.883789,0,0
4059,2024 10 24,05:24:43.815,0.605658,-0.479792,-0.478584,-0.417055,-0.961455,-0.052736,-0.142094,5.249023,-7.385254,-32.165527,0,0
4060,2024 10 24,05:24:43.823,0.607404,-0.480498,-0.4771,-0.4154,-0.958037,-0.061037,-0.138188,6.713867,-7.141113,-32.592773,0,0
4061,2024 10 24,05:24:43.831,0.609215,-0.481146,-0.475614,-0.4137,-0.960479,-0.050295,-0.146489,8.178711,-7.385254,-33.02002,0,0
4062,2024 10 24,05:24:43.840,0.609215,-0.481146,-0.475614,-0.4137,-0.960479,-0.050295,-0.146489,8.178711,-7.385254,-33.02002,0,0
4063,2024 10 24,05:24:43.848,0.611028,-0.481812,-0.474167,-0.411907,-0.961943,-0.057619,-0.164068,7.93457,-6.164551,-33.569336,0,0
4064,2024 10 24,05:24:43.856,0.612851,-0.48248,-0.472719,-0.410077,-0.953642,-0.064455,-0.143559,8.300781,-6.469727,-33.874512,0,0
4065,2024 10 24,05:24:43.865,0.614694,-0.483173,-0.471244,-0.408196,-0.943876,-0.080081,-0.160649,8.361816,-6.04248,-34.484863,0,0
4066,2024 10 24,05:24:43.873,0.6166,-0.48383,-0.469839,-0.406157,-0.952666,-0.064455,-0.163579,10.620117,-5.371094,-35.461426,0,0
4067,2024 10 24,05:24:43.881,0.618527,-0.484534,-0.468422,-0.40402,-0.980499,-0.049806,-0.160649,10.375977,-4.577637,-36.92627,0,0
4068,2024 10 24,05:24:43.890,0.618527,-0.484534,-0.468422,-0.40402,-0.980499,-0.049806,-0.160649,10.375977,-4.577637,-36.92627,0,0
4069,2024 10 24,05:24:43.898,0.620394,-0.485436,-0.466979,-0.401739,-1.02591,-0.064455,-0.155766,9.82666,-2.746582,-39.672852,0,0
4070,2024 10 24,05:24:43.906,0.622447,-0.486385,-0.465413,-0.399224,-1.015656,-0.066408,-0.143559,10.864258,-3.356934,-43.029785,0,0
4071,2024 10 24,05:24:43.915,0.624642,-0.487457,-0.463736,-0.396431,-1.026399,-0.084964,-0.15186,11.962891,-2.685547,-47.119141,0,0
4072,2024 10 24,05:24:43.923,0.627096,-0.488564,-0.461967,-0.393245,-1.050325,-0.078127,-0.160161,15.014648,-2.380371,-51.940918,0,0
