frame,date,time,quaternion_x,quaternion_y,quaternion_z,quaternion_w,accel_x,accel_y,accel_z,gyro_x,gyro_y,gyro_z,HS,TO
3165,2024 10 24,05:24:36.365,-0.627457,-0.647171,-0.002546,-0.432968,-0.6592,0.345714,-0.131352,15.258789,-78.00293,210.571289,0,0
3166,2024 10 24,05:24:36.373,-0.618155,-0.650898,0.013898,-0.440481,-0.680197,0.289071,-0.114261,13.000488,-80.749512,220.703125,0,0
3167,2024 10 24,05:24:36.382,-0.6085,-0.654243,0.031224,-0.448018,-0.637226,0.225105,-0.167974,7.446289,-85.998535,229.064941,0,0
3168,2024 10 24,05:24:36.390,-0.598729,-0.657316,0.049884,-0.454941,-0.65334,0.186041,-0.125492,-1.281738,-99.914551,235.412598,0,0
3169,2024 10 24,05:24:36.398,-0.588946,-0.660091,0.070031,-0.460996,-0.72805,0.183111,-0.114261,-12.023926,-116.333008,240.905762,0,0
3170,2024 10 24,05:24:36.407,-0.579091,-0.662541,0.091731,-0.46613,-0.875027,0.186529,-0.050295,-22.216797,-130.859375,246.887207,0,0
3171,2024 10 24,05:24:36.415,-0.579091,-0.662541,0.091731,-0.46613,-0.875027,0.186529,-0.050295,-22.216797,-130.859375,246.887207,0,0
3172,2024 10 24,05:24:36.423,-0.569072,-0.664435,0.114658,-0.470676,-1.020539,0.19483,0.002441,-31.555176,-139.648438,253.295898,0,0
3173,2024 10 24,05:24:36.432,-0.558839,-0.665506,0.138364,-0.475033,-1.126011,0.17774,0.067873,-39.001465,-139.770508,260.009766,0,0
3174,2024 10 24,05:24:36.440,-0.548393,-0.665644,0.162575,-0.479326,-1.164098,0.178228,0.086917,-45.837402,-140.380859,265.991211,0,0
3175,2024 10 24,05:24:36.448,-0.537554,-0.665077,0.187537,-0.483258,-1.219764,0.213874,0.134281,-51.696777,-145.507813,273.376465,0,0
3176,2024 10 24,05:24:36.457,-0.526079,-0.663867,0.213202,-0.486894,-1.317423,0.2378,0.191412,-54.382324,-149.902344,281.799316,0,0
3177,2024 10 24,05:24:36.465,-0.526079,-0.663867,0.213202,-0.486894,-1.317423,0.2378,0.191412,-54.382324,-149.902344,281.799316,0,0
3178,2024 10 24,05:24:36.473,-0.513806,-0.662077,0.239352,-0.490273,-1.430708,0.250496,0.24073,-54.504395,-153.930664,289.367676,0,0
3179,2024 10 24,05:24:36.482,-0.500601,-0.659833,0.265696,-0.49338,-1.565477,0.260262,0.280282,-51.025391,-157.226563,295.227051,0,0
3180,2024 10 24,05:24:36.490,-0.486434,-0.657176,0.291904,-0.49628,-1.727592,0.24659,0.311045,-45.471191,-158.447266,299.377441,0,0
3181,2024 10 24,05:24:36.498,-0.471333,-0.654059,0.317631,-0.499162,-1.872127,0.196783,0.30372,-37.902832,-156.066895,302.429199,0,0
3182,2024 10 24,05:24:36.507,-0.45533,-0.650536,0.34271,-0.502024,-1.980529,0.106449,0.276864,-29.907227,-153.808594,304.443359,0,0
3183,2024 10 24,05:24:36.515,-0.45533,-0.650536,0.34271,-0.502024,-1.980529,0.106449,0.276864,-29.907227,-153.808594,304.443359,0,0
3184,2024 10 24,05:24:36.523,-0.438497,-0.646661,0.367075,-0.504782,-2.073794,-0.036622,0.256844,-22.033691,-152.893066,305.236816,0,0
3185,2024 10 24,05:24:36.532,-0.420972,-0.642566,0.39065,-0.507232,-2.145085,-0.213385,0.242195,-14.587402,-153.320313,303.222656,0,0
3186,2024 10 24,05:24:36.540,-0.402879,-0.638428,0.413332,-0.50917,-2.196356,-0.43556,0.239753,-8.056641,-156.005859,298.76709,0,0
3187,2024 10 24,05:24:36.548,-0.384341,-0.634386,0.435079,-0.510434,-2.232002,-0.67336,0.255379,-1.77002,-159.790039,292.236328,0,0
3188,2024 10 24,05:24:36.557,-0.365442,-0.630567,0.455756,-0.511002,-2.263253,-0.980499,0.279305,4.943848,-163.757324,283.813477,0,0
3189,2024 10 24,05:24:36.565,-0.365442,-0.630567,0.455756,-0.511002,-2.263253,-0.980499,0.279305,4.943848,-163.757324,283.813477,0,0
3190,2024 10 24,05:24:36.573,-0.346363,-0.627038,0.475203,-0.51092,-2.286691,-1.382855,0.351573,11.474609,-165.222168,273.4375,0,0
3191,2024 10 24,05:24:36.582,-0.327589,-0.623889,0.493116,-0.51018,-2.252998,-1.847713,0.452162,16.235352,-165.588379,256.713867,0,0
3192,2024 10 24,05:24:36.590,-0.309923,-0.621567,0.508983,-0.508467,-2.065004,-2.288644,0.645527,17.822266,-162.963867,226.257324,0,0
3193,2024 10 24,05:24:36.598,-0.294321,-0.620719,0.522109,-0.505455,-1.709525,-2.650471,0.868679,16.479492,-160.888672,179.870605,0,0
3194,2024 10 24,05:24:36.607,-0.281095,-0.62222,0.5322,-0.50059,-1.373089,-2.883877,1.181677,15.136719,-165.283203,124.023438,0,0
3195,2024 10 24,05:24:36.615,-0.281095,-0.62222,0.5322,-0.50059,-1.373089,-2.883877,1.181677,15.136719,-165.283203,124.023438,0,0
3196,2024 10 24,05:24:36.623,-0.270174,-0.626195,0.539291,-0.494015,-1.294473,-3.17832,1.452681,13.366699,-167.602539,71.166992,0,0
3197,2024 10 24,05:24:36.632,-0.262126,-0.631253,0.543593,-0.48715,-1.515183,-3.486434,1.471236,10.437012,-143.066406,32.714844,0,0
3198,2024 10 24,05:24:36.640,-0.258137,-0.635974,0.545546,-0.480918,-2.684164,-3.614856,1.129429,-6.591797,-102.233887,-3.234863,0,0
3199,2024 10 24,05:24:36.648,-0.263621,-0.64525,0.543233,-0.468033,-2.836512,-2.838465,4.804346,-71.350098,-111.816406,-166.809082,0,0
3200,2024 10 24,05:24:36.657,-0.283317,-0.647182,0.528486,-0.470732,-1.54741,-2.593341,1.566454,-31.555176,219.665527,-217.041016,0,0
3201,2024 10 24,05:24:36.665,-0.283317,-0.647182,0.528486,-0.470732,-1.54741,-2.593341,1.566454,-31.555176,219.665527,-217.041016,0,0
3202,2024 10 24,05:24:36.673,-0.309631,-0.644386,0.511581,-0.476634,-0.626972,0.780786,-1.551317,-109.191895,258.666992,-224.609375,1,0
3203,2024 10 24,05:24:36.682,-0.324249,-0.648186,0.498735,-0.475374,-1.567919,0.957549,0.226569,-19.042969,63.842773,-203.00293,0,0
3204,2024 10 24,05:24:36.690,-0.334049,-0.653641,0.484594,-0.475745,-1.766167,-0.013184,0.952666,36.315918,100.830078,-187.316895,0,0
3205,2024 10 24,05:24:36.698,-0.344029,-0.655325,0.467125,-0.483723,-1.155309,-0.347179,0.501968,78.491211,174.438477,-153.442383,0,0
3206,2024 10 24,05:24:36.707,-0.351494,-0.656257,0.452896,-0.490576,-1.204627,-0.435072,-0.001465,52.978516,123.535156,-114.135742,0,0
3207,2024 10 24,05:24:36.715,-0.351494,-0.656257,0.452896,-0.490576,-1.204627,-0.435072,-0.001465,52.978516,123.535156,-114.135742,0,0
3208,2024 10 24,05:24:36.723,-0.357617,-0.655928,0.442962,-0.495635,-1.001984,-0.071291,-0.055666,35.705566,107.299805,-77.087402,0,0
3209,2024 10 24,05:24:36.732,-0.361016,-0.655733,0.434317,-0.50105,-1.075228,0.027833,0.021485,56.57959,92.102051,-56.45752,0,0
3210,2024 10 24,05:24:36.740,-0.362889,-0.655336,0.425808,-0.507477,-1.040071,-0.143071,-0.178716,64.575195,93.261719,-43.457031,0,0
3211,2024 10 24,05:24:36.748,-0.364752,-0.654312,0.418624,-0.513406,-1.052767,-0.02002,0.038575,51.330566,87.95166,-32.592773,0,0
3212,2024 10 24,05:24:36.757,-0.365981,-0.652461,0.411909,-0.520273,-1.013703,0.013672,-0.059084,57.434082,96.679688,-16.967773,0,0
3213,2024 10 24,05:24:36.765,-0.366109,-0.650537,0.405465,-0.527602,-0.943876,-0.077639,0.15479,63.659668,91.73584,-7.507324,0,0
3214,2024 10 24,05:24:36.773,-0.366109,-0.650537,0.405465,-0.527602,-0.943876,-0.077639,0.15479,63.659668,91.73584,-7.507324,0,0
3215,2024 10 24,05:24:36.782,-0.366438,-0.648481,0.399713,-0.534252,-0.861843,-0.075686,0.149907,51.147461,82.885742,-6.958008,0,0
3216,2024 10 24,05:24:36.790,-0.366887,-0.646596,0.395398,-0.539415,-0.834498,-0.064455,0.217292,34.851074,63.598633,-3.234863,0,0
3217,2024 10 24,05:24:36.798,-0.367305,-0.645029,0.392521,-0.543094,-0.846706,-0.077639,0.212897,21.606445,44.616699,-1.098633,0,0
3218,2024 10 24,05:24:36.807,-0.36799,-0.643903,0.390803,-0.545202,-0.905301,0.011231,0.202643,8.911133,26.794434,-3.540039,0,0
3219,2024 10 24,05:24:36.815,-0.36857,-0.643211,0.389578,-0.546502,-0.983917,0.014161,0.08887,4.455566,18.737793,-4.943848,0,0
3220,2024 10 24,05:24:36.823,-0.36857,-0.643211,0.389578,-0.546502,-0.983917,0.014161,0.08887,4.455566,18.737793,-4.943848,0,0
3221,2024 10 24,05:24:36.832,-0.3694,-0.642674,0.388617,-0.547258,-1.035676,0.045412,0.096194,-0.366211,15.014648,-7.93457,0,0
3222,2024 10 24,05:24:36.840,-0.370331,-0.642171,0.387372,-0.5481,-1.034211,-0.023927,0.019532,3.051758,18.554688,-10.253906,0,0
3223,2024 10 24,05:24:36.848,-0.371445,-0.641593,0.386044,-0.54896,-1.018098,-0.047365,0.079104,2.258301,20.263672,-10.681152,0,0
3224,2024 10 24,05:24:36.857,-0.372644,-0.640831,0.384758,-0.549939,-0.999542,-0.015137,0.093753,0.427246,21.850586,-9.338379,0,0
3225,2024 10 24,05:24:36.865,-0.373796,-0.640003,0.383537,-0.550974,-0.992706,0.0,0.085452,-0.061035,22.094727,-8.361816,0,0
3226,2024 10 24,05:24:36.873,-0.373796,-0.640003,0.383537,-0.550974,-0.992706,0.0,0.085452,-0.061035,22.094727,-8.361816,0,0
3227,2024 10 24,05:24:36.882,-0.374986,-0.639176,0.382423,-0.551899,-0.979034,0.031739,0.154302,-2.441406,20.080566,-8.483887,0,0
3228,2024 10 24,05:24:36.890,-0.376102,-0.638433,0.38134,-0.552747,-0.964385,0.023438,0.141606,-1.647949,18.249512,-8.728027,0,0
3229,2024 10 24,05:24:36.898,-0.377176,-0.637845,0.380397,-0.553345,-0.975127,-0.015625,0.120609,-1.831055,14.709473,-9.338379,0,0
3230,2024 10 24,05:24:36.907,-0.378302,-0.637374,0.379517,-0.553723,-0.963897,-0.021973,0.117191,-2.746582,12.939453,-10.498047,0,0
3231,2024 10 24,05:24:36.915,-0.379454,-0.636944,0.37876,-0.553947,-0.964385,-0.010743,0.120609,-4.455566,10.986328,-10.192871,0,0
3232,2024 10 24,05:24:36.923,-0.379454,-0.636944,0.37876,-0.553947,-0.964385,-0.010743,0.120609,-4.455566,10.986328,-10.192871,0,0
3233,2024 10 24,05:24:36.932,-0.380603,-0.636534,0.378033,-0.554127,-0.952666,-0.014161,0.114261,-4.455566,10.681152,-10.498047,0,0
3234,2024 10 24,05:24:36.940,-0.381686,-0.636175,0.377315,-0.554284,-0.945341,-0.009278,0.13477,-3.845215,9.765625,-10.192871,0,0
3235,2024 10 24,05:24:36.948,-0.382671,-0.635865,0.376594,-0.55445,-0.936552,-0.022462,0.148442,-2.807617,9.094238,-9.82666,0,0
3236,2024 10 24,05:24:36.957,-0.383592,-0.635595,0.37591,-0.554588,-0.95706,-0.02002,0.133305,-2.746582,8.117676,-9.399414,0,0
3237,2024 10 24,05:24:36.965,-0.384498,-0.63536,0.37524,-0.554683,-0.955107,-0.023438,0.149907,-2.624512,7.568359,-9.399414,0,0
3238,2024 10 24,05:24:36.973,-0.384498,-0.63536,0.37524,-0.554683,-0.955107,-0.023438,0.149907,-2.624512,7.568359,-9.399414,0,0
3239,2024 10 24,05:24:36.982,-0.385401,-0.635148,0.374598,-0.554734,-0.976104,-0.018067,0.119633,-3.112793,7.080078,-9.765625,0,0
3240,2024 10 24,05:24:36.990,-0.386334,-0.634921,0.373938,-0.55479,-0.96292,-0.029786,0.1377,-3.479004,7.568359,-9.765625,0,0
3241,2024 10 24,05:24:36.998,-0.387298,-0.63467,0.37331,-0.554827,-0.986847,-0.046388,0.143559,-3.662109,7.751465,-9.94873,0,0
3242,2024 10 24,05:24:37.007,-0.388291,-0.634409,0.372668,-0.554864,-0.978545,-0.022462,0.144047,-3.845215,7.446289,-9.94873,0,0
3243,2024 10 24,05:24:37.015,-0.389349,-0.634126,0.372027,-0.554876,-0.950224,-0.009766,0.161626,-6.04248,7.995605,-10.620117,0,0
3244,2024 10 24,05:24:37.023,-0.389349,-0.634126,0.372027,-0.554876,-0.950224,-0.009766,0.161626,-6.04248,7.995605,-10.620117,0,0
3245,2024 10 24,05:24:37.032,-0.390496,-0.633809,0.371415,-0.554842,-0.96585,-0.045412,0.147465,-6.530762,8.117676,-11.230469,0,0
3246,2024 10 24,05:24:37.040,-0.39175,-0.633494,0.370812,-0.554722,-0.979522,-0.037111,0.134281,-6.225586,8.117676,-12.023926,0,0
3247,2024 10 24,05:24:37.048,-0.393046,-0.633249,0.370162,-0.554519,-1.01175,-0.00586,0.149907,-6.04248,7.080078,-13.366699,0,0
3248,2024 10 24,05:24:37.057,-0.394236,-0.633117,0.369265,-0.554422,-1.059114,-0.02295,0.100101,-2.319336,8.544922,-14.770508,0,0
3249,2024 10 24,05:24:37.065,-0.395523,-0.633039,0.368082,-0.554381,-1.049837,-0.02588,0.097659,-1.464844,10.681152,-17.63916,0,0
3250,2024 10 24,05:24:37.073,-0.395523,-0.633039,0.368082,-0.554381,-1.049837,-0.02588,0.097659,-1.464844,10.681152,-17.63916,0,0
3251,2024 10 24,05:24:37.082,-0.396983,-0.633008,0.366725,-0.554272,-1.028352,-0.015137,0.180181,-2.075195,10.192871,-20.568848,0,0
3252,2024 10 24,05:24:37.090,-0.398512,-0.633126,0.365113,-0.554105,-1.028352,-0.00293,0.21778,-0.244141,10.437012,-24.108887,0,0
3253,2024 10 24,05:24:37.098,-0.400004,-0.633446,0.363109,-0.553981,-1.057161,-0.032228,0.130863,4.02832,10.375977,-27.160645,0,0
3254,2024 10 24,05:24:37.107,-0.401653,-0.634066,0.361047,-0.553426,-1.084506,-0.00586,0.189947,2.319336,7.019043,-32.043457,0,0
3255,2024 10 24,05:24:37.115,-0.403696,-0.634684,0.358699,-0.552757,-1.086947,-0.062502,0.153325,-1.525879,9.216309,-37.841797,0,0
3256,2024 10 24,05:24:37.123,-0.403696,-0.634684,0.358699,-0.552757,-1.086947,-0.062502,0.153325,-1.525879,9.216309,-37.841797,0,0
3257,2024 10 24,05:24:37.132,-0.406416,-0.635424,0.356309,-0.551458,-1.147496,-0.056642,0.157231,-7.568359,6.225586,-46.203613,0,0
3258,2024 10 24,05:24:37.140,-0.409744,-0.636351,0.35365,-0.549636,-1.187048,-0.041505,0.126957,-11.657715,5.187988,-55.541992,0,0
3259,2024 10 24,05:24:37.148,-0.413626,-0.637408,0.350614,-0.547443,-1.213416,-0.037599,0.139164,-13.122559,6.774902,-63.903809,0,0
3260,2024 10 24,05:24:37.157,-0.418033,-0.638717,0.347084,-0.544813,-1.240761,-0.003418,0.142094,-14.831543,5.371094,-74.768066,0,0
3261,2024 10 24,05:24:37.165,-0.422682,-0.640299,0.342913,-0.542003,-1.24662,0.014649,0.241707,-9.94873,7.446289,-81.970215,0,0
3262,2024 10 24,05:24:37.173,-0.422682,-0.640299,0.342913,-0.542003,-1.24662,0.014649,0.241707,-9.94873,7.446289,-81.970215,0,0
3263,2024 10 24,05:24:37.182,-0.427488,-0.642148,0.337866,-0.539209,-1.251015,0.072268,0.296396,-5.065918,10.559082,-91.796875,0,0
3264,2024 10 24,05:24:37.190,-0.432233,-0.644534,0.331802,-0.536338,-1.244179,0.035646,0.316904,5.79834,9.70459,-101.318359,0,0
3265,2024 10 24,05:24:37.198,-0.437092,-0.647449,0.324701,-0.533225,-1.299356,0.056154,0.315928,12.634277,11.047363,-113.830566,0,0
3266,2024 10 24,05:24:37.207,-0.442335,-0.65071,0.316375,-0.529926,-1.394086,0.026368,0.339854,16.784668,17.883301,-128.356934,0,0
3267,2024 10 24,05:24:37.215,-0.4484,-0.654018,0.306621,-0.526481,-1.46733,0.004395,0.152837,18.981934,24.536133,-145.812988,0,0
3268,2024 10 24,05:24:37.223,-0.455341,-0.657573,0.295591,-0.522387,-1.638722,0.003418,0.127934,17.76123,29.846191,-165.649414,0,0
3269,2024 10 24,05:24:37.232,-0.455341,-0.657573,0.295591,-0.522387,-1.638722,0.003418,0.127934,17.76123,29.846191,-165.649414,0,0
3270,2024 10 24,05:24:37.240,-0.463526,-0.660986,0.282837,-0.517923,-1.753471,-0.003418,0.049806,17.76123,42.297363,-188.598633,0,0
3271,2024 10 24,05:24:37.248,-0.473137,-0.664224,0.268178,-0.512862,-1.843806,0.037599,0.021973,13.305664,54.199219,-215.881348,0,0
3272,2024 10 24,05:24:37.257,-0.484155,-0.667574,0.251654,-0.506566,-2.078677,0.072756,-0.116703,9.70459,53.649902,-246.948242,0,0
3273,2024 10 24,05:24:37.265,-0.496823,-0.670806,0.232777,-0.499,-2.323313,0.250984,0.145512,11.71875,72.20459,-283.569336,0,0
3274,2024 10 24,05:24:37.273,-0.510912,-0.673489,0.209688,-0.491338,-2.550371,0.373058,0.028809,23.071289,98.632813,-327.941895,0,0
3275,2024 10 24,05:24:37.282,-0.510912,-0.673489,0.209688,-0.491338,-2.550371,0.373058,0.028809,23.071289,98.632813,-327.941895,0,0
3276,2024 10 24,05:24:37.290,-0.525815,-0.67639,0.182769,-0.482297,-2.859462,0.232429,0.001465,34.301758,110.046387,-370.300293,0,0
3277,2024 10 24,05:24:37.298,-0.541927,-0.677863,0.151754,-0.473062,-2.901456,0.066408,0.066408,38.696289,157.165527,-407.470703,0,0
3278,2024 10 24,05:24:37.307,-0.55882,-0.67752,0.116542,-0.463795,-3.0206,-0.122074,-0.001465,40.83252,178.466797,-438.964844,0,0
3279,2024 10 24,05:24:37.315,-0.575408,-0.676251,0.079596,-0.45305,-3.354594,-0.352062,0.3296,45.776367,189.51416,-455.688477,0,0
3280,2024 10 24,05:24:37.323,-0.591489,-0.672309,0.040082,-0.443322,-3.03476,-0.109867,-0.017579,46.142578,228.637695,-464.172363,0,1
3281,2024 10 24,05:24:37.332,-0.591489,-0.672309,0.040082,-0.443322,-3.03476,-0.109867,-0.017579,46.142578,228.637695,-464.172363,0,0
3282,2024 10 24,05:24:37.340,-0.606239,-0.666984,0.00079,-0.433134,-2.916593,0.240242,0.019532,43.518066,219.238281,-452.514648,0,0
3283,2024 10 24,05:24:37.348,-0.61921,-0.660522,-0.037241,-0.422969,-2.729087,0.478042,-0.032716,45.593262,222.900391,-437.561035,0,0
3284,2024 10 24,05:24:37.357,-0.631079,-0.652449,-0.075528,-0.412728,-1.907773,0.840846,-0.69631,41.320801,230.224609,-435.668945,0,0
3285,2024 10 24,05:24:37.365,-0.642463,-0.644001,-0.111764,-0.400016,-1.386761,1.174352,-0.906766,32.165527,187.255859,-434.875488,0,0
3286,2024 10 24,05:24:37.373,-0.653342,-0.63615,-0.145309,-0.383853,-0.735862,1.296915,-0.87991,32.043457,142.944336,-435.852051,0,0
3287,2024 10 24,05:24:37.382,-0.653342,-0.63615,-0.145309,-0.383853,-0.735862,1.296915,-0.87991,32.043457,142.944336,-435.852051,0,0
3288,2024 10 24,05:24:37.390,-0.664107,-0.628364,-0.175994,-0.364893,-0.258309,0.668966,-1.481002,18.737793,94.909668,-429.016113,0,0
3289,2024 10 24,05:24:37.398,-0.677118,-0.620368,-0.199189,-0.342022,0.959502,-0.052736,-0.81399,-27.832031,-4.821777,-395.996094,0,0
3290,2024 10 24,05:24:37.407,-0.690143,-0.612857,-0.207529,-0.324099,0.756371,1.356975,-0.943876,-95.52002,-83.862305,-205.932617,0,0
3291,2024 10 24,05:24:37.415,-0.69831,-0.609527,-0.199918,-0.317603,0.21485,2.09479,-0.007813,-101.196289,-114.257813,21.057129,0,0
3292,2024 10 24,05:24:37.423,-0.698499,-0.61,-0.184316,-0.325617,-0.425794,1.526414,0.038575,-55.297852,-53.955078,220.214844,0,0
3293,2024 10 24,05:24:37.432,-0.698499,-0.61,-0.184316,-0.325617,-0.425794,1.526414,0.038575,-55.297852,-53.955078,220.214844,0,0
3294,2024 10 24,05:24:37.440,-0.690861,-0.613311,-0.165511,-0.345206,-0.900906,1.035676,0.023927,-20.996094,5.187988,345.76416,0,0
3295,2024 10 24,05:24:37.448,-0.678504,-0.616836,-0.146118,-0.371207,-0.767113,0.610859,-0.231452,-9.70459,45.288086,403.320313,0,0
3296,2024 10 24,05:24:37.457,-0.663896,-0.621153,-0.125185,-0.397165,-0.597186,0.34962,-0.37843,4.211426,18.371582,415.100098,0,0
3297,2024 10 24,05:24:37.465,-0.649336,-0.62565,-0.103234,-0.419842,-0.469741,0.21778,-0.591815,3.051758,-11.291504,390.74707,0,0
3298,2024 10 24,05:24:37.473,-0.636305,-0.630195,-0.080778,-0.437544,-0.386731,0.104495,-0.771996,-9.765625,-59.448242,346.984863,0,0
3299,2024 10 24,05:24:37.482,-0.636305,-0.630195,-0.080778,-0.437544,-0.386731,0.104495,-0.771996,-9.765625,-59.448242,346.984863,0,0
3300,2024 10 24,05:24:37.490,-0.625385,-0.63503,-0.05748,-0.449808,-0.440931,0.100101,-0.566912,-19.592285,-101.5625,305.236816,0,0
3301,2024 10 24,05:24:37.498,-0.615948,-0.639959,-0.033356,-0.458201,-0.584002,0.22364,-0.451674,-30.090332,-138.305664,280.639648,0,0
3302,2024 10 24,05:24:37.507,-0.606682,-0.644907,-0.008076,-0.464722,-0.767602,0.317392,-0.233894,-34.606934,-152.770996,279.541016,0,0
3303,2024 10 24,05:24:37.515,-0.596562,-0.649067,0.017904,-0.471704,-0.893094,0.315928,-0.154302,-36.376953,-147.094727,294.86084,0,0
3304,2024 10 24,05:24:37.523,-0.585354,-0.6521,0.044678,-0.479718,-0.938505,0.245125,-0.109378,-40.527344,-139.282227,313.659668,0,0
3305,2024 10 24,05:24:37.532,-0.585354,-0.6521,0.044678,-0.479718,-0.938505,0.245125,-0.109378,-40.527344,-139.282227,313.659668,0,0
3306,2024 10 24,05:24:37.540,-0.573343,-0.654196,0.072322,-0.487929,-0.95706,0.15186,-0.10596,-46.020508,-142.51709,324.09668,0,0
3307,2024 10 24,05:24:37.548,-0.561033,-0.655692,0.100823,-0.495121,-0.963408,0.091311,-0.081057,-53.588867,-153.991699,323.913574,0,0
3308,2024 10 24,05:24:37.557,-0.548702,-0.656875,0.130003,-0.500541,-1.0347,0.069826,-0.029298,-61.340332,-171.875,317.382813,0,0
3309,2024 10 24,05:24:37.565,-0.536221,-0.657988,0.159801,-0.503967,-1.222205,0.10303,0.080081,-65.917969,-190.246582,310.546875,0,0
3310,2024 10 24,05:24:37.573,-0.523181,-0.658878,0.189805,-0.506099,-1.440962,0.190924,0.232917,-64.208984,-198.852539,308.837891,0,0
3311,2024 10 24,05:24:37.582,-0.523181,-0.658878,0.189805,-0.506099,-1.440962,0.190924,0.232917,-64.208984,-198.852539,308.837891,0,0
3312,2024 10 24,05:24:37.590,-0.509102,-0.659185,0.219431,-0.508075,-1.614795,0.271493,0.342784,-56.518555,-194.396973,312.988281,0,0
3313,2024 10 24,05:24:37.598,-0.493682,-0.658748,0.248279,-0.510574,-1.765191,0.299326,0.39552,-43.212891,-184.814453,320.068359,0,0
3314,2024 10 24,05:24:37.607,-0.476771,-0.657595,0.276271,-0.513744,-1.858943,0.26075,0.418958,-29.47998,-176.086426,328.369141,0,0
3315,2024 10 24,05:24:37.615,-0.458418,-0.65586,0.30357,-0.517248,-1.954161,0.168462,0.364269,-17.51709,-173.095703,335.754395,0,0
3316,2024 10 24,05:24:37.623,-0.438678,-0.653726,0.33051,-0.520546,-2.093326,0.031739,0.333995,-8.239746,-176.147461,342.285156,0,0
3317,2024 10 24,05:24:37.632,-0.41774,-0.651169,0.357065,-0.523428,-2.253975,-0.123051,0.326182,-1.281738,-179.626465,346.496582,0,0
3318,2024 10 24,05:24:37.640,-0.41774,-0.651169,0.357065,-0.523428,-2.253975,-0.123051,0.326182,-1.281738,-179.626465,346.496582,0,0
3319,2024 10 24,05:24:37.648,-0.395886,-0.648115,0.382922,-0.52592,-2.430738,-0.297861,0.335948,5.737305,-179.077148,347.473145,0,0
3320,2024 10 24,05:24:37.657,-0.373598,-0.644487,0.407528,-0.528188,-2.553789,-0.531754,0.34376,12.695313,-172.424316,342.041016,0,0
3321,2024 10 24,05:24:37.665,-0.351679,-0.640371,0.430411,-0.530088,-2.485916,-0.885769,0.318857,15.930176,-164.001465,327.819824,0,0
3322,2024 10 24,05:24:37.673,-0.330475,-0.636384,0.451811,-0.530725,-2.393139,-1.315958,0.235847,12.023926,-168.457031,308.898926,0,0
3323,2024 10 24,05:24:37.682,-0.31012,-0.632994,0.472201,-0.529311,-2.492752,-1.732963,0.228034,3.601074,-178.527832,287.658691,0,0
3324,2024 10 24,05:24:37.690,-0.31012,-0.632994,0.472201,-0.529311,-2.492752,-1.732963,0.228034,3.601074,-178.527832,287.658691,0,0
3325,2024 10 24,05:24:37.698,-0.291404,-0.630133,0.490978,-0.526267,-2.554277,-2.096255,0.258309,-4.760742,-175.842285,257.141113,0,0
3326,2024 10 24,05:24:37.707,-0.275349,-0.627864,0.507297,-0.52213,-2.27546,-2.384838,0.282235,-12.207031,-163.146973,216.308594,0,0
3327,2024 10 24,05:24:37.715,-0.262195,-0.62671,0.521142,-0.516623,-1.285684,-2.383373,0.703146,-23.864746,-157.470703,170.166016,0,0
3328,2024 10 24,05:24:37.723,-0.251417,-0.628508,0.532938,-0.507684,0.15772,-1.842341,1.373577,-37.536621,-196.350098,106.201172,0,0
3329,2024 10 24,05:24:37.732,-0.236364,-0.637246,0.543305,-0.492818,-1.153844,-2.439528,1.984436,-7.873535,-319.335938,68.603516,0,0
3330,2024 10 24,05:24:37.740,-0.236364,-0.637246,0.543305,-0.492818,-1.153844,-2.439528,1.984436,-7.873535,-319.335938,68.603516,0,0
3331,2024 10 24,05:24:37.748,-0.21937,-0.648513,0.551375,-0.476753,-3.090915,-2.866298,2.774499,17.700195,-297.668457,52.124023,0,0
3332,2024 10 24,05:24:37.757,-0.211154,-0.652522,0.553506,-0.472504,-2.633381,-3.210547,1.979553,42.297363,-73.791504,38.452148,0,0
3333,2024 10 24,05:24:37.765,-0.211661,-0.651252,0.551143,-0.476772,-1.359905,-3.295999,1.353557,37.353516,57.922363,7.141113,0,0
3334,2024 10 24,05:24:37.773,-0.216871,-0.649841,0.546333,-0.481864,-0.862331,-2.652425,0.558611,15.869141,80.871582,-38.391113,0,0
3335,2024 10 24,05:24:37.782,-0.231876,-0.662167,0.541436,-0.463266,-2.631428,-2.836024,6.682333,-152.770996,-155.700684,-303.649902,0,0
3336,2024 10 24,05:24:37.790,-0.231876,-0.662167,0.541436,-0.463266,-2.631428,-2.836024,6.682333,-152.770996,-155.700684,-303.649902,0,0
3337,2024 10 24,05:24:37.798,-0.275019,-0.660445,0.523553,-0.462677,-1.823298,-0.500015,-5.064608,-288.452148,416.564941,-346.740723,1,0
3338,2024 10 24,05:24:37.807,-0.304751,-0.661263,0.5071,-0.461203,-1.569872,0.803735,-0.218268,-104.003906,135.009766,-264.160156,0,0
3339,2024 10 24,05:24:37.815,-0.323463,-0.663812,0.492421,-0.460703,-2.130436,0.36964,2.225166,-16.052246,165.405273,-217.285156,0,0
3340,2024 10 24,05:24:37.823,-0.338052,-0.661278,0.469553,-0.477443,-1.118686,-0.054201,-0.02881,110.046387,322.021484,-161.621094,0,0
3341,2024 10 24,05:24:37.832,-0.343022,-0.662243,0.450361,-0.490861,-1.207068,-0.779321,0.067873,132.385254,142.51709,-114.196777,0,0
3342,2024 10 24,05:24:37.840,-0.343022,-0.662243,0.450361,-0.490861,-1.207068,-0.779321,0.067873,132.385254,142.51709,-114.196777,0,0
3343,2024 10 24,05:24:37.848,-0.347004,-0.662383,0.437383,-0.499533,-1.172887,-0.111332,0.6133,84.899902,152.893066,-73.486328,0,0
3344,2024 10 24,05:24:37.857,-0.350971,-0.660101,0.424918,-0.510422,-0.863308,0.099612,-0.362804,87.036133,149.414063,-61.218262,0,0
3345,2024 10 24,05:24:37.865,-0.352303,-0.6596,0.413741,-0.519258,-1.089877,0.015625,-0.014161,103.149414,119.628906,-51.818848,0,0
3346,2024 10 24,05:24:37.873,-0.352259,-0.658119,0.402718,-0.529728,-0.982452,-0.264657,-0.170415,107.60498,132.751465,-29.11377,0,0
3347,2024 10 24,05:24:37.882,-0.352702,-0.655626,0.393909,-0.539065,-0.90286,-0.146001,0.082034,75.317383,117.858887,-16.052246,0,0
3348,2024 10 24,05:24:37.890,-0.352702,-0.655626,0.393909,-0.539065,-0.90286,-0.146001,0.082034,75.317383,117.858887,-16.052246,0,0
3349,2024 10 24,05:24:37.898,-0.353662,-0.65283,0.387117,-0.546696,-0.955107,-0.090823,0.087893,53.466797,101.44043,-13.000488,0,0
3350,2024 10 24,05:24:37.907,-0.3548,-0.650362,0.381817,-0.552596,-0.841823,-0.124027,0.270516,38.085938,77.941895,-11.901855,0,0
3351,2024 10 24,05:24:37.915,-0.35646,-0.648312,0.378035,-0.556523,-0.85989,0.029786,0.173833,16.296387,57.922363,-13.977051,0,0
3352,2024 10 24,05:24:37.923,-0.35795,-0.646948,0.375142,-0.559106,-0.96292,-0.024903,0.125492,11.59668,41.07666,-15.991211,0,0
3353,2024 10 24,05:24:37.932,-0.359405,-0.646107,0.372696,-0.560778,-0.966826,-0.024415,0.090823,7.141113,30.212402,-17.51709,0,0
3354,2024 10 24,05:24:37.940,-0.359405,-0.646107,0.372696,-0.560778,-0.966826,-0.024415,0.090823,7.141113,30.212402,-17.51709,0,0
3355,2024 10 24,05:24:37.948,-0.36102,-0.645492,0.370731,-0.56175,-0.989776,-0.00586,0.081545,1.831055,23.498535,-19.042969,0,0
3356,2024 10 24,05:24:37.957,-0.362599,-0.645152,0.368841,-0.562367,-0.966826,0.009766,0.104984,0.732422,19.165039,-20.996094,0,0
3357,2024 10 24,05:24:37.965,-0.364246,-0.644881,0.367178,-0.562702,-0.951689,-0.032228,0.068361,-1.281738,15.930176,-21.179199,0,0
3358,2024 10 24,05:24:37.973,-0.365865,-0.64479,0.365801,-0.562653,-0.940458,-0.023927,0.096683,-4.882813,10.803223,-20.446777,0,0
3359,2024 10 24,05:24:37.982,-0.367382,-0.644755,0.364681,-0.562432,-0.948271,-0.034181,0.125004,-5.126953,8.117676,-18.737793,0,0
3360,2024 10 24,05:24:37.990,-0.367382,-0.644755,0.364681,-0.562432,-0.948271,-0.034181,0.125004,-5.126953,8.117676,-18.737793,0,0
3361,2024 10 24,05:24:37.998,-0.368821,-0.644725,0.363747,-0.562129,-0.955107,-0.034181,0.122562,-6.530762,5.981445,-17.089844,0,0
3362,2024 10 24,05:24:38.007,-0.370159,-0.644718,0.362956,-0.561768,-0.975616,-0.036134,0.105472,-5.981445,4.943848,-15.869141,0,0
3363,2024 10 24,05:24:38.015,-0.371418,-0.644697,0.36223,-0.56143,-0.978057,-0.034181,0.119144,-6.103516,4.638672,-14.892578,0,0
3364,2024 10 24,05:24:38.023,-0.37264,-0.644686,0.361531,-0.561084,-0.976592,-0.032228,0.122562,-5.615234,4.089355,-14.709473,0,0
3365,2024 10 24,05:24:38.032,-0.373834,-0.644713,0.360842,-0.560702,-0.971709,-0.028321,0.098636,-5.79834,3.662109,-14.831543,0,0
3366,2024 10 24,05:24:38.040,-0.373834,-0.644713,0.360842,-0.560702,-0.971709,-0.028321,0.098636,-5.79834,3.662109,-14.831543,0,0
3367,2024 10 24,05:24:38.048,-0.374978,-0.644804,0.360127,-0.560292,-0.977569,-0.021485,0.133793,-4.699707,2.807617,-15.136719,0,0
3368,2024 10 24,05:24:38.057,-0.375993,-0.644967,0.35931,-0.55995,-0.957549,-0.032228,0.115238,-2.380371,2.685547,-15.014648,0,0
3369,2024 10 24,05:24:38.065,-0.376828,-0.645251,0.358441,-0.559618,-0.944853,-0.027833,0.142094,0.0,1.403809,-14.526367,0,0
3370,2024 10 24,05:24:38.073,-0.377494,-0.645628,0.357502,-0.559334,-0.952666,-0.038575,0.133793,1.89209,1.098633,-14.282227,0,0
3371,2024 10 24,05:24:38.082,-0.378035,-0.646056,0.356507,-0.55911,-0.980499,-0.040529,0.112796,3.601074,0.793457,-13.793945,0,0
3372,2024 10 24,05:24:38.090,-0.378035,-0.646056,0.356507,-0.55911,-0.980499,-0.040529,0.112796,3.601074,0.793457,-13.793945,0,0
3373,2024 10 24,05:24:38.098,-0.378538,-0.646451,0.355429,-0.559,-0.999542,-0.047853,0.121097,4.577637,3.051758,-13.549805,0,0
3374,2024 10 24,05:24:38.107,-0.379086,-0.646718,0.35424,-0.559074,-0.972686,-0.055666,0.103519,5.615234,5.67627,-13.183594,0,0
3375,2024 10 24,05:24:38.115,-0.379614,-0.646937,0.35306,-0.559208,-0.961455,-0.047365,0.13184,5.065918,5.79834,-12.512207,0,0
3376,2024 10 24,05:24:38.123,-0.38003,-0.647151,0.351838,-0.559449,-0.984893,-0.079104,0.098636,6.958008,6.469727,-11.59668,0,0
3377,2024 10 24,05:24:38.132,-0.380567,-0.647273,0.35063,-0.559701,-0.969268,-0.055666,0.128422,5.432129,7.507324,-11.962891,0,0
3378,2024 10 24,05:24:38.140,-0.381065,-0.647413,0.349424,-0.559954,-0.980499,-0.054201,0.138188,5.371094,7.385254,-11.962891,0,0
3379,2024 10 24,05:24:38.148,-0.381065,-0.647413,0.349424,-0.559954,-0.980499,-0.054201,0.138188,5.371094,7.385254,-11.962891,0,0
3380,2024 10 24,05:24:38.157,-0.381587,-0.647501,0.348146,-0.560293,-0.994171,-0.067385,0.107913,6.591797,8.605957,-12.023926,0,0
3381,2024 10 24,05:24:38.165,-0.382163,-0.647579,0.346804,-0.560643,-1.015168,-0.062014,0.115726,6.164551,9.58252,-12.878418,0,0
3382,2024 10 24,05:24:38.173,-0.382878,-0.647585,0.345321,-0.561063,-1.018586,-0.053713,0.11475,6.103516,11.962891,-14.526367,0,0
3383,2024 10 24,05:24:38.182,-0.383721,-0.6476,0.343717,-0.561454,-1.003449,-0.046876,0.162603,6.164551,12.268066,-16.479492,0,0
3384,2024 10 24,05:24:38.190,-0.384651,-0.647673,0.341928,-0.561826,-1.03177,-0.040529,0.137211,5.065918,12.207031,-19.40918,0,0
3385,2024 10 24,05:24:38.198,-0.384651,-0.647673,0.341928,-0.561826,-1.03177,-0.040529,0.137211,5.065918,12.207031,-19.40918,0,0
3386,2024 10 24,05:24:38.207,-0.385738,-0.64779,0.339938,-0.562154,-1.033235,-0.074221,0.132328,7.019043,13.977051,-21.728516,0,0
3387,2024 10 24,05:24:38.215,-0.387054,-0.648051,0.337871,-0.562195,-1.065462,-0.044923,0.139653,5.493164,11.047363,-26.000977,0,0
3388,2024 10 24,05:24:38.223,-0.388553,-0.648486,0.33564,-0.561995,-1.078646,-0.06299,0.118656,3.540039,10.070801,-30.578613,0,0
3389,2024 10 24,05:24:38.232,-0.39041,-0.649046,0.333264,-0.561475,-1.09476,-0.08594,0.12598,2.01416,9.277344,-35.766602,0,0
3390,2024 10 24,05:24:38.240,-0.392719,-0.649664,0.330715,-0.560658,-1.087924,-0.08301,0.13184,-1.708984,8.544922,-41.687012,0,0
3391,2024 10 24,05:24:38.248,-0.392719,-0.649664,0.330715,-0.560658,-1.087924,-0.08301,0.13184,-1.708984,8.544922,-41.687012,0,0
3392,2024 10 24,05:24:38.257,-0.395492,-0.650396,0.328037,-0.559431,-1.11185,-0.075686,0.096194,-5.981445,7.080078,-48.278809,0,0
3393,2024 10 24,05:24:38.265,-0.398617,-0.651376,0.325208,-0.557723,-1.144566,-0.080081,0.153325,-7.202148,4.211426,-54.626465,0,0
3394,2024 10 24,05:24:38.273,-0.402129,-0.652392,0.322002,-0.55587,-1.142125,-0.063967,0.143071,-7.995605,6.530762,-60.668945,0,0
3395,2024 10 24,05:24:38.282,-0.405814,-0.653632,0.318367,-0.553825,-1.159703,-0.069338,0.146977,-5.249023,5.737305,-67.016602,0,0
3396,2024 10 24,05:24:38.290,-0.409645,-0.655107,0.314252,-0.551608,-1.204138,-0.063478,0.159185,-3.112793,5.981445,-73.425293,0,0
3397,2024 10 24,05:24:38.298,-0.409645,-0.655107,0.314252,-0.551608,-1.204138,-0.063478,0.159185,-3.112793,5.981445,-73.425293,0,0
3398,2024 10 24,05:24:38.307,-0.413754,-0.656804,0.309596,-0.54915,-1.240272,-0.042482,0.202155,-1.647949,6.103516,-81.970215,0,0
3399,2024 10 24,05:24:38.315,-0.418207,-0.658803,0.304225,-0.546378,-1.262734,-0.042482,0.1919,0.366211,6.896973,-92.590332,0,0
3400,2024 10 24,05:24:38.323,-0.423065,-0.661089,0.29801,-0.543294,-1.313028,-0.047365,0.184088,3.356934,8.178711,-104.431152,0,0
3401,2024 10 24,05:24:38.332,-0.428499,-0.663578,0.290846,-0.539871,-1.432173,-0.058107,0.241218,3.723145,12.268066,-118.164063,0,0
3402,2024 10 24,05:24:38.340,-0.434878,-0.665899,0.28231,-0.536433,-1.531297,-0.02295,0.157231,5.615234,22.460938,-135.437012,0,0
3403,2024 10 24,05:24:38.348,-0.434878,-0.665899,0.28231,-0.536433,-1.531297,-0.02295,0.157231,5.615234,22.460938,-135.437012,0,0
3404,2024 10 24,05:24:38.357,-0.442365,-0.668464,0.272417,-0.53222,-1.665578,0.033204,0.119144,1.342773,26.184082,-159.423828,0,0
3405,2024 10 24,05:24:38.365,-0.451173,-0.670871,0.260665,-0.527663,-1.894101,0.046876,0.076174,1.586914,40.527344,-184.753418,0,0
3406,2024 10 24,05:24:38.373,-0.461323,-0.673444,0.246669,-0.522311,-2.173406,0.101566,0.096194,5.493164,46.936035,-216.61377,0,0
3407,2024 10 24,05:24:38.382,-0.473207,-0.675603,0.229512,-0.516682,-2.478103,0.102542,-0.054689,6.347656,74.09668,-254.150391,0,0
3408,2024 10 24,05:24:38.390,-0.487041,-0.677384,0.208614,-0.510316,-2.646565,0.211432,-0.225105,11.84082,92.407227,-300.598145,0,0
3409,2024 10 24,05:24:38.398,-0.487041,-0.677384,0.208614,-0.510316,-2.646565,0.211432,-0.225105,11.84082,92.407227,-300.598145,0,0
3410,2024 10 24,05:24:38.407,-0.502593,-0.679014,0.18425,-0.502386,-3.064058,0.210456,-0.027345,14.526367,111.38916,-348.754883,0,0
3411,2024 10 24,05:24:38.415,-0.519614,-0.679314,0.155015,-0.494474,-3.038179,0.056642,-0.006348,22.399902,152.709961,-392.456055,0,0
3412,2024 10 24,05:24:38.423,-0.537433,-0.678591,0.121664,-0.485673,-3.021577,-0.260262,-0.018555,30.578613,165.83252,-429.504395,0,0
3413,2024 10 24,05:24:38.432,-0.555399,-0.676928,0.08662,-0.475181,-2.958586,-0.290536,0.113285,33.081055,173.339844,-448.120117,0,0
3414,2024 10 24,05:24:38.440,-0.572994,-0.673647,0.050835,-0.463997,-2.578692,-0.00293,0.072268,23.681641,175.476074,-449.829102,0,1
3415,2024 10 24,05:24:38.448,-0.572994,-0.673647,0.050835,-0.463997,-2.578692,-0.00293,0.072268,23.681641,175.476074,-449.829102,0,0
3416,2024 10 24,05:24:38.457,-0.589001,-0.669415,0.016777,-0.452414,-2.75692,0.047365,0.167486,23.071289,165.222168,-427.978516,0,0
3417,2024 10 24,05:24:38.465,-0.60428,-0.663186,-0.016913,-0.441298,-2.003479,0.316904,-0.146001,10.375977,182.739258,-421.508789,0,0
3418,2024 10 24,05:24:38.473,-0.619195,-0.655933,-0.048863,-0.428908,-1.468795,0.640156,-0.658223,-5.126953,150.146484,-413.269043,0,0
3419,2024 10 24,05:24:38.482,-0.633636,-0.649318,-0.076983,-0.413479,-0.78518,0.780786,-0.71926,-12.023926,99.182129,-399.658203,0,0
3420,2024 10 24,05:24:38.490,-0.647609,-0.64306,-0.101256,-0.396009,0.281259,0.525407,-1.351604,-27.282715,52.490234,-376.708984,0,0
3421,2024 10 24,05:24:38.498,-0.647609,-0.64306,-0.101256,-0.396009,0.281259,0.525407,-1.351604,-27.282715,52.490234,-376.708984,0,0
3422,2024 10 24,05:24:38.507,-0.662699,-0.635616,-0.117286,-0.378241,1.33842,0.06006,-1.711966,-103.942871,-15.50293,-300.842285,0,0
3423,2024 10 24,05:24:38.515,-0.678872,-0.627906,-0.116244,-0.362429,-0.255379,0.76516,-0.404798,-178.771973,-133.178711,-147.705078,0,0
3424,2024 10 24,05:24:38.523,-0.691501,-0.620093,-0.105046,-0.355353,-0.822291,1.315958,-0.178716,-191.101074,-112.487793,-10.192871,0,0
3425,2024 10 24,05:24:38.532,-0.699679,-0.612537,-0.090721,-0.356394,-0.701682,1.362346,0.038087,-167.785645,-73.425293,83.435059,0,0
3426,2024 10 24,05:24:38.540,-0.702865,-0.606438,-0.076923,-0.363726,-0.534684,1.148961,-0.061037,-121.887207,-28.076172,142.578125,0,0
3427,2024 10 24,05:24:38.548,-0.702651,-0.602588,-0.064296,-0.372874,-0.283212,0.896512,-0.113773,-78.24707,-20.324707,156.005859,0,0
3428,2024 10 24,05:24:38.557,-0.702651,-0.602588,-0.064296,-0.372874,-0.283212,0.896512,-0.113773,-78.24707,-20.324707,156.005859,0,0
3429,2024 10 24,05:24:38.565,-0.700431,-0.601216,-0.052387,-0.38104,0.064943,0.743187,-0.377453,-45.715332,-38.94043,152.954102,0,0
3430,2024 10 24,05:24:38.573,-0.696903,-0.602508,-0.039505,-0.386975,0.082034,0.682638,-0.34376,-19.53125,-73.791504,151.733398,0,0
3431,2024 10 24,05:24:38.582,-0.692153,-0.605982,-0.025006,-0.391261,-0.081057,0.744163,-0.271981,-1.037598,-106.689453,157.897949,0,0
3432,2024 10 24,05:24:38.590,-0.685789,-0.611255,-0.008915,-0.394944,-0.280282,0.763695,-0.195318,17.51709,-127.502441,172.729492,0,0
3433,2024 10 24,05:24:38.598,-0.677609,-0.617715,0.008598,-0.398999,-0.423841,0.708518,-0.138188,31.799316,-139.831543,194.641113,0,0
3434,2024 10 24,05:24:38.607,-0.677609,-0.617715,0.008598,-0.398999,-0.423841,0.708518,-0.138188,31.799316,-139.831543,194.641113,0,0
3435,2024 10 24,05:24:38.615,-0.667639,-0.624848,0.027548,-0.403811,-0.533708,0.606952,-0.0918,42.175293,-147.277832,218.444824,0,0
3436,2024 10 24,05:24:38.623,-0.656234,-0.632011,0.047902,-0.409419,-0.605487,0.449721,-0.097171,44.250488,-153.137207,240.41748,0,0
3437,2024 10 24,05:24:38.632,-0.643936,-0.638676,0.069888,-0.415398,-0.643086,0.279794,-0.10596,36.560059,-161.499023,258.666992,0,0
3438,2024 10 24,05:24:38.640,-0.631408,-0.644376,0.093903,-0.421054,-0.740745,0.139653,-0.123539,18.493652,-175.90332,271.972656,0,0
3439,2024 10 24,05:24:38.648,-0.619312,-0.648736,0.120197,-0.425613,-0.862331,0.043458,-0.094241,-8.911133,-194.335938,278.808594,0,0
3440,2024 10 24,05:24:38.657,-0.619312,-0.648736,0.120197,-0.425613,-0.862331,0.043458,-0.094241,-8.911133,-194.335938,278.808594,0,0
3441,2024 10 24,05:24:38.665,-0.60816,-0.651341,0.148632,-0.428724,-1.016633,0.004883,-0.011719,-41.564941,-209.228516,281.677246,0,0
3442,2024 10 24,05:24:38.673,-0.598115,-0.651837,0.178774,-0.430589,-1.229041,0.027833,0.095706,-74.584961,-216.491699,282.958984,0,0
3443,2024 10 24,05:24:38.682,-0.589225,-0.649936,0.209896,-0.431673,-1.369182,0.100101,0.268075,-104.553223,-211.791992,283.447266,0,0
3444,2024 10 24,05:24:38.690,-0.581406,-0.645453,0.241158,-0.432667,-1.410688,0.158208,0.321299,-129.211426,-197.998047,284.423828,0,0
3445,2024 10 24,05:24:38.698,-0.574313,-0.638889,0.272487,-0.433285,-1.416059,0.210456,0.402844,-148.55957,-191.101074,284.545898,0,0
3446,2024 10 24,05:24:38.707,-0.574313,-0.638889,0.272487,-0.433285,-1.416059,0.210456,0.402844,-148.55957,-191.101074,284.545898,0,0
3447,2024 10 24,05:24:38.715,-0.567392,-0.630768,0.303951,-0.433373,-1.419965,0.260262,0.424329,-159.973145,-189.758301,286.743164,0,0
3448,2024 10 24,05:24:38.723,-0.560109,-0.621521,0.335755,-0.432733,-1.481002,0.281747,0.450209,-168.579102,-194.641113,290.466309,0,0
3449,2024 10 24,05:24:38.732,-0.552011,-0.611597,0.367856,-0.431177,-1.641163,0.293466,0.473159,-170.654297,-204.162598,292.724609,0,0
3450,2024 10 24,05:24:38.740,-0.542994,-0.601257,0.39977,-0.428755,-1.8399,0.245125,0.503433,-168.640137,-209.411621,291.442871,0,0
3451,2024 10 24,05:24:38.748,-0.533153,-0.590609,0.431001,-0.425637,-2.014222,0.159185,0.512711,-164.367676,-212.70752,287.719727,0,0
3452,2024 10 24,05:24:38.757,-0.533153,-0.590609,0.431001,-0.425637,-2.014222,0.159185,0.512711,-164.367676,-212.70752,287.719727,0,0
3453,2024 10 24,05:24:38.765,-0.52254,-0.579757,0.461362,-0.421876,-2.130924,-0.010743,0.59035,-159.179688,-214.599609,283.38623,0,0
3454,2024 10 24,05:24:38.773,-0.511189,-0.568878,0.490706,-0.417459,-2.213446,-0.233406,0.701193,-152.648926,-218.322754,276.977539,0,0
3455,2024 10 24,05:24:38.782,-0.499113,-0.558448,0.51879,-0.412163,-2.300851,-0.47853,0.888699,-143.066406,-224.365234,264.770508,0,0
3456,2024 10 24,05:24:38.790,-0.48634,-0.54886,0.545193,-0.406191,-2.391675,-0.705588,1.104038,-128.112793,-227.783203,249.694824,0,0
3457,2024 10 24,05:24:38.798,-0.473007,-0.54026,0.569353,-0.400275,-2.485916,-0.998077,1.33549,-106.323242,-221.740723,233.520508,0,0
3458,2024 10 24,05:24:38.807,-0.473007,-0.54026,0.569353,-0.400275,-2.485916,-0.998077,1.33549,-106.323242,-221.740723,233.520508,0,0
3459,2024 10 24,05:24:38.815,-0.459858,-0.532767,0.590373,-0.395158,-2.425367,-1.379925,1.528855,-80.871582,-202.209473,210.449219,0,0
3460,2024 10 24,05:24:38.823,-0.447683,-0.526736,0.60778,-0.390811,-2.073794,-1.687551,1.710501,-57.983398,-179.992676,178.039551,0,0
3461,2024 10 24,05:24:38.832,-0.436409,-0.522851,0.62186,-0.386606,-1.703177,-1.875546,1.997131,-35.888672,-169.494629,140.686035,0,0
3462,2024 10 24,05:24:38.840,-0.425607,-0.521261,0.632969,-0.382749,-1.630909,-2.093814,2.353587,-10.681152,-159.118652,109.25293,0,0
3463,2024 10 24,05:24:38.848,-0.416317,-0.520888,0.640548,-0.38086,-1.696341,-2.408765,2.524003,17.39502,-115.783691,84.960938,0,0
3464,2024 10 24,05:24:38.857,-0.416317,-0.520888,0.640548,-0.38086,-1.696341,-2.408765,2.524003,17.39502,-115.783691,84.960938,0,0
3465,2024 10 24,05:24:38.865,-0.410167,-0.520927,0.643767,-0.38205,-1.656789,-2.823817,2.338938,41.015625,-54.382324,57.006836,0,0
3466,2024 10 24,05:24:38.873,-0.407826,-0.521782,0.642723,-0.385135,-1.386761,-2.990814,1.99469,52.246094,0.488281,16.296387,0,0
3467,2024 10 24,05:24:38.882,-0.408722,-0.524164,0.638416,-0.388102,-1.31547,-2.712485,1.505905,50.78125,26.000977,-29.541016,0,0
3468,2024 10 24,05:24:38.890,-0.413973,-0.533532,0.636477,-0.372647,-1.664602,-0.430677,7.512924,-144.897461,-161.376953,-235.229492,1,0
3469,2024 10 24,05:24:38.898,-0.440132,-0.530971,0.617259,-0.37861,-1.367718,0.070315,-4.349254,-85.571289,437.133789,-177.79541,0,0
3470,2024 10 24,05:24:38.907,-0.440132,-0.530971,0.617259,-0.37861,-1.367718,0.070315,-4.349254,-85.571289,437.133789,-177.79541,0,0
3471,2024 10 24,05:24:38.915,-0.454432,-0.533388,0.605547,-0.37723,-1.44145,0.155766,-0.714866,-13.48877,2.13623,-150.695801,0,0
3472,2024 10 24,05:24:38.923,-0.46331,-0.538547,0.597795,-0.371419,-1.788629,0.448256,1.671926,-1.098633,114.501953,-150.817871,0,0
3473,2024 10 24,05:24:38.932,-0.474403,-0.542958,0.58118,-0.377317,-1.110385,-0.378918,-0.913602,58.776855,152.832031,-150.57373,0,0
3474,2024 10 24,05:24:38.940,-0.481022,-0.549315,0.568149,-0.379576,-1.298379,-0.333506,0.605976,75.927734,109.25293,-129.394531,0,0
3475,2024 10 24,05:24:38.948,-0.487449,-0.552502,0.554634,-0.386674,-0.743187,-0.208991,-0.21485,79.956055,141.174316,-81.542969,0,0
3476,2024 10 24,05:24:38.957,-0.487449,-0.552502,0.554634,-0.386674,-0.743187,-0.208991,-0.21485,79.956055,141.174316,-81.542969,0,0
3477,2024 10 24,05:24:38.965,-0.490738,-0.555175,0.544531,-0.392991,-1.033723,-0.073244,0.721702,78.857422,102.355957,-54.931641,0,0
3478,2024 10 24,05:24:38.973,-0.494802,-0.556065,0.535003,-0.399668,-0.737815,-0.238777,-0.079104,55.236816,110.046387,-44.433594,0,0
3479,2024 10 24,05:24:38.982,-0.498473,-0.556024,0.529138,-0.402958,-0.954131,0.105472,0.30665,21.728516,68.603516,-31.860352,0,0
3480,2024 10 24,05:24:38.990,-0.501018,-0.555996,0.523793,-0.406806,-0.8511,-0.066897,-0.178228,29.602051,67.321777,-24.291992,0,0
3481,2024 10 24,05:24:38.998,-0.503437,-0.555544,0.520166,-0.409084,-0.919462,-0.028809,0.192389,7.629395,48.217773,-17.944336,0,0
3482,2024 10 24,05:24:39.007,-0.505657,-0.554684,0.517105,-0.411387,-0.91409,-0.050783,-0.00586,8.483887,47.119141,-10.009766,0,0
3483,2024 10 24,05:24:39.015,-0.505657,-0.554684,0.517105,-0.411387,-0.91409,-0.050783,-0.00586,8.483887,47.119141,-10.009766,0,0
3484,2024 10 24,05:24:39.023,-0.507358,-0.553887,0.514861,-0.413177,-1.020539,0.009766,0.039064,5.493164,35.217285,-7.385254,0,0
3485,2024 10 24,05:24:39.032,-0.509019,-0.553113,0.512663,-0.4149,-0.994659,-0.012207,-0.043947,4.943848,36.560059,-8.178711,0,0
3486,2024 10 24,05:24:39.040,-0.510377,-0.552667,0.510711,-0.416231,-1.056185,-0.00293,0.083987,6.04248,27.770996,-9.460449,0,0
3487,2024 10 24,05:24:39.048,-0.511978,-0.552112,0.508542,-0.417656,-1.053255,-0.011719,-0.072756,5.79834,33.508301,-11.047363,0,0
3488,2024 10 24,05:24:39.057,-0.51363,-0.551608,0.506465,-0.418816,-1.020539,-0.003906,0.044435,2.807617,30.334473,-12.512207,0,0
3489,2024 10 24,05:24:39.065,-0.51363,-0.551608,0.506465,-0.418816,-1.020539,-0.003906,0.044435,2.807617,30.334473,-12.512207,0,0
3490,2024 10 24,05:24:39.073,-0.515311,-0.55107,0.50421,-0.420177,-1.011261,-0.005371,0.003906,5.249023,34.790039,-11.779785,0,0
3491,2024 10 24,05:24:39.082,-0.516975,-0.550515,0.501868,-0.421662,-1.010285,-0.029298,0.00586,5.92041,34.729004,-11.535645,0,0
3492,2024 10 24,05:24:39.090,-0.518681,-0.549838,0.499509,-0.423247,-0.98294,-0.031251,0.008301,5.79834,36.92627,-10.070801,0,0
3493,2024 10 24,05:24:39.098,-0.520423,-0.548995,0.497361,-0.424732,-0.969756,-0.020997,0.044923,2.13623,34.973145,-8.666992,0,0
3494,2024 10 24,05:24:39.107,-0.522133,-0.548104,0.495345,-0.426137,-0.968291,-0.011231,0.050783,1.708984,34.118652,-8.239746,0,0
3495,2024 10 24,05:24:39.115,-0.522133,-0.548104,0.495345,-0.426137,-0.968291,-0.011231,0.050783,1.708984,34.118652,-8.239746,0,0
3496,2024 10 24,05:24:39.123,-0.523797,-0.547242,0.493421,-0.427433,-0.976592,-0.02002,0.044923,1.159668,31.860352,-8.728027,0,0
3497,2024 10 24,05:24:39.132,-0.525423,-0.546481,0.491586,-0.428523,-0.986358,-0.018555,0.06299,0.244141,29.541016,-9.521484,0,0
3498,2024 10 24,05:24:39.140,-0.526962,-0.545865,0.489732,-0.429541,-0.990265,-0.034669,0.047365,1.89209,28.259277,-10.498047,0,0
3499,2024 10 24,05:24:39.148,-0.528467,-0.545348,0.487946,-0.43038,-0.980499,-0.020508,0.060549,0.976563,25.45166,-11.474609,0,0
3500,2024 10 24,05:24:39.157,-0.529891,-0.544926,0.486143,-0.431204,-0.98001,-0.013184,0.054689,2.13623,25.32959,-11.84082,0,0
3501,2024 10 24,05:24:39.165,-0.529891,-0.544926,0.486143,-0.431204,-0.98001,-0.013184,0.054689,2.13623,25.32959,-11.84082,0,0
3502,2024 10 24,05:24:39.173,-0.531195,-0.544648,0.484361,-0.431954,-0.980499,-0.021485,0.088382,3.234863,23.010254,-12.451172,0,0
3503,2024 10 24,05:24:39.182,-0.532452,-0.544434,0.482509,-0.432749,-0.959502,-0.053224,0.041505,5.065918,23.620605,-12.268066,0,0
3504,2024 10 24,05:24:39.190,-0.533684,-0.544212,0.480851,-0.433355,-0.946318,-0.029298,0.101566,2.01416,20.507813,-12.084961,0,0
3505,2024 10 24,05:24:39.198,-0.534817,-0.54402,0.479231,-0.433994,-0.949736,-0.047853,0.06299,3.479004,20.080566,-11.352539,0,0
3506,2024 10 24,05:24:39.207,-0.535904,-0.543855,0.477768,-0.434472,-0.963897,-0.041505,0.094729,1.89209,17.883301,-11.291504,0,0
3507,2024 10 24,05:24:39.215,-0.535904,-0.543855,0.477768,-0.434472,-0.963897,-0.041505,0.094729,1.89209,17.883301,-11.291504,0,0
3508,2024 10 24,05:24:39.223,-0.536962,-0.54369,0.476319,-0.434962,-0.966338,-0.048341,0.065432,2.807617,17.76123,-11.047363,0,0
3509,2024 10 24,05:24:39.232,-0.537996,-0.54353,0.474932,-0.435402,-0.971709,-0.04297,0.102054,2.13623,17.211914,-10.864258,0,0
3510,2024 10 24,05:24:39.240,-0.539024,-0.543355,0.473511,-0.435896,-0.972198,-0.035646,0.076662,2.502441,17.883301,-10.620117,0,0
3511,2024 10 24,05:24:39.248,-0.540063,-0.543191,0.472106,-0.436338,-0.965361,-0.041993,0.132817,2.685547,17.39502,-10.986328,0,0
3512,2024 10 24,05:24:39.257,-0.5411,-0.543024,0.470602,-0.436886,-0.96585,-0.075198,0.053713,2.990723,18.737793,-11.108398,0,0
3513,2024 10 24,05:24:39.265,-0.5411,-0.543024,0.470602,-0.436886,-0.96585,-0.075198,0.053713,2.990723,18.737793,-11.108398,0,0
3514,2024 10 24,05:24:39.273,-0.542198,-0.542846,0.469298,-0.43715,-0.966826,-0.027345,0.12891,-0.610352,14.892578,-11.84082,0,0
3515,2024 10 24,05:24:39.282,-0.543183,-0.542782,0.468072,-0.43732,-0.979034,-0.026856,0.141118,0.854492,13.305664,-12.268066,0,0
3516,2024 10 24,05:24:39.290,-0.544192,-0.542753,0.466777,-0.437486,-0.991729,-0.052736,0.076174,-0.244141,13.244629,-13.183594,0,0
3517,2024 10 24,05:24:39.298,-0.545279,-0.542768,0.465618,-0.437349,-1.010773,-0.038087,0.137211,-1.647949,11.230469,-14.953613,0,0
3518,2024 10 24,05:24:39.307,-0.54642,-0.542883,0.464337,-0.437143,-1.026399,-0.039064,0.099124,-0.732422,11.108398,-17.028809,0,0
3519,2024 10 24,05:24:39.315,-0.54642,-0.542883,0.464337,-0.437143,-1.026399,-0.039064,0.099124,-0.732422,11.108398,-17.028809,0,0
3520,2024 10 24,05:24:39.323,-0.547572,-0.543197,0.463022,-0.436706,-1.044465,-0.059084,0.085452,-1.037598,8.850098,-19.958496,0,0
3521,2024 10 24,05:24:39.332,-0.548912,-0.543577,0.461693,-0.435959,-1.059603,-0.052736,0.099124,-3.662109,8.117676,-23.376465,0,0
3522,2024 10 24,05:24:39.340,-0.550497,-0.544004,0.460272,-0.434927,-1.059114,-0.066408,0.107913,-6.286621,8.422852,-27.526855,0,0
3523,2024 10 24,05:24:39.348,-0.552345,-0.544486,0.458783,-0.433553,-1.076205,-0.078127,0.078616,-9.216309,6.164551,-31.616211,0,0
3524,2024 10 24,05:24:39.357,-0.554474,-0.54504,0.457306,-0.431696,-1.065951,-0.076662,0.105472,-12.512207,5.981445,-36.376953,0,0
3525,2024 10 24,05:24:39.365,-0.554474,-0.54504,0.457306,-0.431696,-1.065951,-0.076662,0.105472,-12.512207,5.981445,-36.376953,0,0
3526,2024 10 24,05:24:39.373,-0.556892,-0.545597,0.455707,-0.429566,-1.052767,-0.064455,0.112308,-14.831543,6.04248,-40.283203,0,0
3527,2024 10 24,05:24:39.382,-0.559425,-0.54629,0.454011,-0.427182,-1.052767,-0.078616,0.132817,-15.136719,4.638672,-43.701172,0,0
3528,2024 10 24,05:24:39.390,-0.562055,-0.547104,0.452148,-0.424658,-1.066439,-0.077639,0.110843,-14.831543,5.065918,-46.75293,0,0
3529,2024 10 24,05:24:39.398,-0.564746,-0.548095,0.45015,-0.421922,-1.065462,-0.070803,0.134281,-14.770508,3.967285,-50.109863,0,0
3530,2024 10 24,05:24:39.407,-0.567536,-0.54914,0.447799,-0.419314,-1.064486,-0.062502,0.156743,-12.084961,8.117676,-52.001953,0,0
3531,2024 10 24,05:24:39.415,-0.570291,-0.55043,0.445149,-0.416697,-1.147496,-0.064943,0.15772,-8.483887,7.751465,-55.786133,0,0
3532,2024 10 24,05:24:39.423,-0.570291,-0.55043,0.445149,-0.416697,-1.147496,-0.064943,0.15772,-8.483887,7.751465,-55.786133,0,0
3533,2024 10 24,05:24:39.432,-0.573188,-0.55193,0.442017,-0.414064,-1.201697,-0.075686,0.113773,-6.469727,11.535645,-61.340332,0,0
3534,2024 10 24,05:24:39.440,-0.576375,-0.553636,0.438362,-0.411239,-1.252968,-0.080569,0.084475,-5.981445,13.916016,-68.969727,0,0
3535,2024 10 24,05:24:39.448,-0.579975,-0.555577,0.434195,-0.407968,-1.252968,-0.053713,0.153813,-6.408691,15.930176,-78.735352,0,0
3536,2024 10 24,05:24:39.457,-0.58396,-0.557791,0.429249,-0.404481,-1.257851,-0.046388,0.17481,-4.272461,20.507813,-88.684082,0,0
3537,2024 10 24,05:24:39.465,-0.588227,-0.560426,0.423494,-0.400704,-1.293008,-0.037599,0.208502,0.061035,22.521973,-99.609375,0,0
3538,2024 10 24,05:24:39.473,-0.588227,-0.560426,0.423494,-0.400704,-1.293008,-0.037599,0.208502,0.061035,22.521973,-99.609375,0,0
3539,2024 10 24,05:24:39.482,-0.592699,-0.56367,0.416837,-0.396522,-1.358928,-0.027345,0.205084,5.065918,24.536133,-112.792969,0,0
3540,2024 10 24,05:24:39.490,-0.597562,-0.567455,0.409138,-0.391816,-1.478072,0.003418,0.267586,7.93457,27.832031,-128.540039,0,0
3541,2024 10 24,05:24:39.498,-0.603051,-0.57165,0.399879,-0.386837,-1.58208,0.040529,0.207526,13.977051,40.039063,-146.30127,0,0
3542,2024 10 24,05:24:39.507,-0.608927,-0.576696,0.38899,-0.381205,-1.773492,0.018067,0.122562,19.104004,42.663574,-169.067383,0,0
3543,2024 10 24,05:24:39.515,-0.615676,-0.582416,0.376291,-0.374352,-2.010315,0.06592,-0.022462,21.972656,49.865723,-198.974609,0,0
3544,2024 10 24,05:24:39.523,-0.615676,-0.582416,0.376291,-0.374352,-2.010315,0.06592,-0.022462,21.972656,49.865723,-198.974609,0,0
3545,2024 10 24,05:24:39.532,-0.623611,-0.588826,0.361478,-0.365689,-2.272042,0.115726,-0.015625,17.211914,57.189941,-237.182617,0,0
3546,2024 10 24,05:24:39.540,-0.633165,-0.595646,0.343559,-0.355352,-2.462966,0.116703,-0.078127,14.831543,74.523926,-281.066895,0,0
3547,2024 10 24,05:24:39.548,-0.644101,-0.602975,0.322349,-0.342995,-2.93466,0.145024,0.130863,17.76123,86.425781,-327.514648,0,0
3548,2024 10 24,05:24:39.557,-0.656058,-0.610727,0.296665,-0.329529,-2.847255,-0.037111,-0.010254,29.724121,120.239258,-373.046875,0,0
3549,2024 10 24,05:24:39.565,-0.668219,-0.618926,0.267236,-0.31464,-2.788659,-0.306162,0.008789,38.757324,127.319336,-408.14209,0,0
3550,2024 10 24,05:24:39.573,-0.668219,-0.618926,0.267236,-0.31464,-2.788659,-0.306162,0.008789,38.757324,127.319336,-408.14209,0,0
3551,2024 10 24,05:24:39.582,-0.679986,-0.626937,0.236779,-0.297499,-2.816981,-0.193365,0.211432,33.26416,120.849609,-427.062988,0,0
3552,2024 10 24,05:24:39.590,-0.691599,-0.6334,0.205021,-0.28011,-2.549882,0.007324,0.143559,27.22168,135.009766,-431.335449,0,1
3553,2024 10 24,05:24:39.598,-0.702329,-0.638184,0.173619,-0.263271,-2.405835,0.12598,0.17188,20.812988,137.939453,-413.879395,0,0
3554,2024 10 24,05:24:39.607,-0.712595,-0.641208,0.142079,-0.246725,-1.873592,0.345225,-0.087893,10.620117,148.254395,-411.376953,0,0
3555,2024 10 24,05:24:39.615,-0.722059,-0.643266,0.110986,-0.229178,-1.323771,0.592303,-0.39845,5.371094,129.02832,-411.010742,0,0
3556,2024 10 24,05:24:39.623,-0.722059,-0.643266,0.110986,-0.229178,-1.323771,0.592303,-0.39845,5.371094,129.02832,-411.010742,0,0
3557,2024 10 24,05:24:39.632,-0.730244,-0.645215,0.082132,-0.209035,-0.98001,0.566912,-0.55031,4.394531,86.669922,-410.705566,0,0
3558,2024 10 24,05:24:39.640,-0.737732,-0.646532,0.055928,-0.186066,-0.572771,0.576678,-0.65041,-11.657715,43.701172,-410.522461,0,0
3559,2024 10 24,05:24:39.648,-0.744943,-0.646526,0.033177,-0.161134,-0.253914,0.021973,-1.098178,-29.785156,3.967285,-393.188477,0,0
3560,2024 10 24,05:24:39.657,-0.753819,-0.642691,0.016864,-0.135722,0.348643,0.102542,-0.697287,-103.33252,-54.077148,-331.298828,0,0
3561,2024 10 24,05:24:39.665,-0.763188,-0.635492,0.012104,-0.11639,-0.059572,0.921903,-0.50734,-135.864258,-94.848633,-173.339844,0,0
3562,2024 10 24,05:24:39.673,-0.763188,-0.635492,0.012104,-0.11639,-0.059572,0.921903,-0.50734,-135.864258,-94.848633,-173.339844,0,0
3563,2024 10 24,05:24:39.682,-0.771388,-0.62707,0.016479,-0.107109,-0.292978,1.231483,-0.103519,-143.432617,-89.904785,-25.32959,0,0
3564,2024 10 24,05:24:39.690,-0.778002,-0.618386,0.025945,-0.107881,-0.460463,1.238807,0.070803,-128.295898,-56.884766,93.444824,0,0
3565,2024 10 24,05:24:39.698,-0.781857,-0.611258,0.038006,-0.116702,-0.462905,1.043977,0.034669,-91.674805,-29.052734,175.537109,0,0
3566,2024 10 24,05:24:39.707,-0.783198,-0.605967,0.051672,-0.129365,-0.317392,0.832545,-0.095218,-60.974121,-26.489258,213.684082,0,0
3567,2024 10 24,05:24:39.715,-0.7825,-0.602453,0.06668,-0.142473,-0.206061,0.693381,-0.198737,-34.423828,-44.921875,223.266602,0,0
3568,2024 10 24,05:24:39.723,-0.7825,-0.602453,0.06668,-0.142473,-0.206061,0.693381,-0.198737,-34.423828,-44.921875,223.266602,0,0
3569,2024 10 24,05:24:39.732,-0.780286,-0.600518,0.083015,-0.153754,-0.277352,0.687521,-0.009766,-14.892578,-72.692871,214.111328,0,0
3570,2024 10 24,05:24:39.740,-0.776658,-0.600102,0.099674,-0.163542,-0.435072,0.670919,-0.067385,6.286621,-88.684082,203.796387,0,0
3571,2024 10 24,05:24:39.748,-0.771616,-0.601011,0.116815,-0.17248,-0.637226,0.685568,0.073244,27.038574,-99.182129,202.453613,0,0
3572,2024 10 24,05:24:39.757,-0.765083,-0.602922,0.133929,-0.182197,-0.742698,0.641133,0.120609,47.119141,-94.909668,212.768555,0,0
3573,2024 10 24,05:24:39.765,-0.757124,-0.605307,0.151048,-0.193784,-0.761742,0.582049,0.136723,63.110352,-83.312988,233.581543,0,0
3574,2024 10 24,05:24:39.773,-0.757124,-0.605307,0.151048,-0.193784,-0.761742,0.582049,0.136723,63.110352,-83.312988,233.581543,0,0
3575,2024 10 24,05:24:39.782,-0.74789,-0.607583,0.168475,-0.207654,-0.700705,0.453627,0.076174,71.899414,-73.791504,259.460449,0,0
3576,2024 10 24,05:24:39.790,-0.737654,-0.609223,0.186969,-0.223063,-0.667501,0.270028,-0.038575,70.800781,-75.378418,283.325195,0,0
3577,2024 10 24,05:24:39.798,-0.726905,-0.609753,0.207083,-0.238595,-0.65627,0.0918,-0.126957,57.189941,-89.416504,297.363281,0,0
3578,2024 10 24,05:24:39.807,-0.71608,-0.608903,0.229245,-0.252809,-0.714377,-0.033692,-0.172369,34.790039,-114.257813,302.91748,0,0
3579,2024 10 24,05:24:39.815,-0.705536,-0.606408,0.253569,-0.264935,-0.855983,-0.073733,-0.137211,6.530762,-140.625,303.588867,0,0
3580,2024 10 24,05:24:39.823,-0.705536,-0.606408,0.253569,-0.264935,-0.855983,-0.073733,-0.137211,6.530762,-140.625,303.588867,0,0
3581,2024 10 24,05:24:39.832,-0.695386,-0.602192,0.279576,-0.275027,-1.111362,-0.064455,-0.033692,-20.385742,-159.912109,301.574707,0,0
3582,2024 10 24,05:24:39.840,-0.68578,-0.596206,0.306183,-0.283718,-1.355022,-0.039552,0.10596,-43.029785,-162.841797,297.180176,0,0
3583,2024 10 24,05:24:39.848,-0.676922,-0.588362,0.332361,-0.291792,-1.48442,-0.013184,0.208014,-61.828613,-153.137207,293.273926,0,0
3584,2024 10 24,05:24:39.857,-0.668749,-0.578718,0.357677,-0.299877,-1.530808,0.008789,0.274911,-76.23291,-136.71875,292.907715,0,0
3585,2024 10 24,05:24:39.865,-0.661116,-0.567347,0.382139,-0.30824,-1.510788,0.020508,0.298349,-88.378906,-121.704102,295.410156,0,0
3586,2024 10 24,05:24:39.873,-0.653571,-0.554552,0.406279,-0.316631,-1.496628,0.047365,0.300302,-97.961426,-116.699219,300.354004,0,0
3587,2024 10 24,05:24:39.882,-0.653571,-0.554552,0.406279,-0.316631,-1.496628,0.047365,0.300302,-97.961426,-116.699219,300.354004,0,0
3588,2024 10 24,05:24:39.890,-0.645621,-0.540681,0.430566,-0.324731,-1.558153,0.078616,0.315439,-104.431152,-119.262695,305.969238,0,0
3589,2024 10 24,05:24:39.898,-0.636897,-0.526092,0.455026,-0.332477,-1.684133,0.110843,0.345225,-106.201172,-124.389648,310.36377,0,0
3590,2024 10 24,05:24:39.907,-0.627183,-0.511147,0.479323,-0.340029,-1.840388,0.113285,0.39845,-101.501465,-127.807617,313.476563,0,0
3591,2024 10 24,05:24:39.915,-0.616321,-0.496174,0.50299,-0.347795,-1.995666,0.078616,0.462905,-89.538574,-127.929688,315.979004,0,0
3592,2024 10 24,05:24:39.923,-0.604224,-0.48153,0.525506,-0.35621,-2.10651,-0.029298,0.539567,-69.946289,-124.206543,317.321777,0,0
3593,2024 10 24,05:24:39.932,-0.604224,-0.48153,0.525506,-0.35621,-2.10651,-0.029298,0.539567,-69.946289,-124.206543,317.321777,0,0
3594,2024 10 24,05:24:39.940,-0.590829,-0.467648,0.54652,-0.365435,-2.158269,-0.242195,0.584979,-45.532227,-121.459961,315.673828,0,0
3595,2024 10 24,05:24:39.948,-0.576095,-0.45502,0.565827,-0.375382,-2.186102,-0.544939,0.599139,-17.63916,-120.605469,309.936523,0,0
3596,2024 10 24,05:24:39.957,-0.560109,-0.444002,0.583393,-0.385737,-2.178289,-0.904324,0.575213,9.216309,-123.291016,299.804688,0,0
3597,2024 10 24,05:24:39.965,-0.543009,-0.4348,0.599327,-0.396103,-2.167058,-1.325236,0.547868,32.958984,-128.78418,285.949707,0,0
3598,2024 10 24,05:24:39.973,-0.525267,-0.427604,0.613496,-0.406045,-2.140202,-1.780816,0.589862,53.100586,-132.93457,264.465332,0,0
3599,2024 10 24,05:24:39.982,-0.525267,-0.427604,0.613496,-0.406045,-2.140202,-1.780816,0.589862,53.100586,-132.93457,264.465332,0,0
3600,2024 10 24,05:24:39.990,-0.507635,-0.42256,0.625567,-0.415231,-2.04059,-2.20954,0.635762,69.030762,-132.385254,234.802246,0,0
3601,2024 10 24,05:24:39.998,-0.49094,-0.419794,0.635233,-0.423356,-1.837458,-2.60506,0.713889,81.237793,-127.13623,196.533203,0,0
3602,2024 10 24,05:24:40.007,-0.475818,-0.419633,0.642343,-0.43,-1.51323,-2.880459,0.890164,89.294434,-121.948242,149.353027,0,0
3603,2024 10 24,05:24:40.015,-0.462421,-0.422346,0.647081,-0.434829,-1.270547,-3.032807,1.07181,94.360352,-120.910645,99.365234,0,0
3604,2024 10 24,05:24:40.023,-0.450874,-0.427552,0.649713,-0.437933,-1.247108,-3.137303,1.095737,95.397949,-116.149902,54.626465,0,0
3605,2024 10 24,05:24:40.032,-0.450874,-0.427552,0.649713,-0.437933,-1.247108,-3.137303,1.095737,95.397949,-116.149902,54.626465,0,0
3606,2024 10 24,05:24:40.040,-0.441664,-0.434248,0.650437,-0.439651,-1.433637,-3.123142,1.158238,89.355469,-98.449707,17.51709,0,0
3607,2024 10 24,05:24:40.048,-0.436146,-0.440977,0.648761,-0.440935,-1.509323,-2.910245,1.02591,78.552246,-56.335449,-14.831543,0,0
3608,2024 10 24,05:24:40.057,-0.434775,-0.447227,0.644683,-0.441975,-1.339396,-2.505448,0.85403,66.28418,-13.48877,-46.447754,0,0
3609,2024 10 24,05:24:40.065,-0.43715,-0.45772,0.643807,-0.430006,-1.817927,-2.64217,5.544603,-125.732422,-178.466797,-215.698242,0,0
3610,2024 10 24,05:24:40.073,-0.458216,-0.464452,0.628433,-0.42355,-0.87991,0.673849,-2.433179,-101.135254,247.375488,-260.192871,0,0
3611,2024 10 24,05:24:40.082,-0.458216,-0.464452,0.628433,-0.42355,-0.87991,0.673849,-2.43318,-101.135254,247.375488,-260.192871,0,0
3612,2024 10 24,05:24:40.090,-0.475937,-0.47239,0.616056,-0.413288,-0.686544,1.444868,0.257332,-60.72998,16.357422,-268.920898,1,0
3613,2024 10 24,05:24:40.098,-0.485565,-0.485751,0.607017,-0.399753,-2.42732,0.077639,0.176763,-14.099121,15.686035,-267.211914,0,0
3614,2024 10 24,05:24:40.107,-0.500228,-0.496309,0.589427,-0.395,-2.160711,-0.333506,0.299326,25.756836,142.333984,-259.643555,0,0
3615,2024 10 24,05:24:40.115,-0.514342,-0.503176,0.570347,-0.396196,-1.558641,-0.63332,0.769555,65.185547,189.63623,-189.880371,0,0
3616,2024 10 24,05:24:40.123,-0.527336,-0.504904,0.553675,-0.400542,-1.02591,-0.319834,-0.778832,38.879395,184.753418,-122.619629,0,0
3617,2024 10 24,05:24:40.132,-0.527336,-0.504904,0.553675,-0.400542,-1.02591,-0.319834,-0.778832,38.879395,184.753418,-122.619629,0,0
3618,2024 10 24,05:24:40.140,-0.532895,-0.507441,0.543181,-0.404328,-1.236854,-0.013184,0.485366,54.748535,98.327637,-66.52832,0,0
3619,2024 10 24,05:24:40.148,-0.536715,-0.50849,0.532477,-0.412121,-0.863796,-0.339854,0.024903,91.247559,135.192871,-31.677246,0,0
3620,2024 10 24,05:24:40.157,-0.539956,-0.508301,0.525023,-0.417646,-0.732933,-0.041017,0.131352,32.104492,80.566406,-21.484375,0,0
3621,2024 10 24,05:24:40.165,-0.541871,-0.508075,0.520545,-0.421034,-1.05179,0.014649,0.063478,32.897949,60.302734,-11.291504,0,0
3622,2024 10 24,05:24:40.173,-0.543372,-0.507892,0.515415,-0.425604,-0.995148,-0.077151,-0.033204,44.006348,67.810059,-6.958008,0,0
3623,2024 10 24,05:24:40.182,-0.543372,-0.507892,0.515415,-0.425604,-0.995148,-0.077151,-0.033204,44.006348,67.810059,-6.958008,0,0
3624,2024 10 24,05:24:40.190,-0.544655,-0.507518,0.510798,-0.429955,-0.948759,-0.061037,0.133793,36.560059,62.561035,-3.234863,0,0
3625,2024 10 24,05:24:40.198,-0.545947,-0.506764,0.506795,-0.433925,-0.926298,-0.055177,0.087405,29.052734,55.603027,-0.549316,0,0
3626,2024 10 24,05:24:40.207,-0.546943,-0.506208,0.503714,-0.436897,-0.929228,-0.010743,0.178228,21.728516,41.442871,-1.647949,0,0
3627,2024 10 24,05:24:40.215,-0.547797,-0.505764,0.501291,-0.439122,-0.998077,0.007813,0.115238,15.74707,31.982422,-2.807617,0,0
3628,2024 10 24,05:24:40.223,-0.548527,-0.505545,0.499185,-0.440859,-0.993683,0.007324,0.111332,14.770508,26.916504,-5.004883,0,0
3629,2024 10 24,05:24:40.232,-0.548527,-0.505545,0.499185,-0.440859,-0.993683,0.007324,0.111332,14.770508,26.916504,-5.004883,0,0
3630,2024 10 24,05:24:40.240,-0.549208,-0.505512,0.497287,-0.442192,-1.022004,0.006836,0.102542,12.756348,22.033691,-6.958008,0,0
3631,2024 10 24,05:24:40.248,-0.549916,-0.505571,0.495427,-0.443331,-1.020051,0.0,0.06885,11.962891,21.42334,-8.422852,0,0
3632,2024 10 24,05:24:40.257,-0.550683,-0.505634,0.493626,-0.444314,-0.995636,0.009766,0.109867,10.742188,20.263672,-9.338379,0,0
3633,2024 10 24,05:24:40.265,-0.551386,-0.505767,0.49189,-0.445216,-0.973174,-0.011231,0.094241,10.375977,18.249512,-9.399414,0,0
3634,2024 10 24,05:24:40.273,-0.552094,-0.505919,0.490397,-0.445812,-0.941923,-0.007813,0.124516,7.385254,14.404297,-9.94873,0,0
3635,2024 10 24,05:24:40.282,-0.552094,-0.505919,0.490397,-0.445812,-0.941923,-0.007813,0.124516,7.385254,14.404297,-9.94873,0,0
3636,2024 10 24,05:24:40.290,-0.552709,-0.506116,0.489138,-0.446211,-0.949736,-0.008789,0.134281,6.225586,11.71875,-9.521484,0,0
3637,2024 10 24,05:24:40.298,-0.553293,-0.506314,0.488062,-0.44644,-0.948271,-0.021485,0.10596,3.78418,8.728027,-9.58252,0,0
3638,2024 10 24,05:24:40.307,-0.55388,-0.506488,0.48724,-0.446413,-0.946318,-0.01709,0.129398,1.098633,6.469727,-9.521484,0,0
3639,2024 10 24,05:24:40.315,-0.554486,-0.506607,0.486645,-0.446174,-0.957549,-0.010254,0.113773,-2.075195,3.845215,-9.460449,0,0
3640,2024 10 24,05:24:40.323,-0.555132,-0.506689,0.486199,-0.445764,-0.96878,-0.01709,0.113285,-3.356934,2.990723,-9.70459,0,0
3641,2024 10 24,05:24:40.332,-0.555838,-0.506711,0.485843,-0.445248,-0.965361,-0.014649,0.104984,-5.432129,2.075195,-9.765625,0,0
3642,2024 10 24,05:24:40.340,-0.555838,-0.506711,0.485843,-0.445248,-0.965361,-0.014649,0.104984,-5.432129,2.075195,-9.765625,0,0
3643,2024 10 24,05:24:40.348,-0.556541,-0.506705,0.48557,-0.444672,-0.953154,-0.001953,0.146977,-5.79834,1.953125,-9.521484,0,0
3644,2024 10 24,05:24:40.357,-0.557225,-0.506691,0.48527,-0.444158,-0.945341,-0.007324,0.13184,-5.004883,1.708984,-9.094238,0,0
3645,2024 10 24,05:24:40.365,-0.557792,-0.506765,0.485016,-0.443641,-0.960479,-0.015625,0.134281,-4.089355,0.488281,-8.728027,0,0
3646,2024 10 24,05:24:40.373,-0.558345,-0.50684,0.484759,-0.443141,-0.98587,-0.010743,0.114261,-4.211426,0.915527,-8.605957,0,0
3647,2024 10 24,05:24:40.382,-0.558992,-0.50685,0.484436,-0.442665,-0.977569,-0.00293,0.148442,-4.760742,2.624512,-9.033203,0,0
3648,2024 10 24,05:24:40.390,-0.558992,-0.50685,0.484436,-0.442665,-0.977569,-0.00293,0.148442,-4.760742,2.624512,-9.033203,0,0
3649,2024 10 24,05:24:40.398,-0.559676,-0.506832,0.483982,-0.442319,-0.965361,-0.015137,0.146977,-3.540039,4.150391,-8.972168,0,0
3650,2024 10 24,05:24:40.407,-0.560258,-0.506896,0.483497,-0.442039,-0.992706,-0.017579,0.138676,-0.732422,3.662109,-8.483887,0,0
3651,2024 10 24,05:24:40.415,-0.560778,-0.507,0.48289,-0.441922,-1.000031,0.012696,0.137211,0.488281,5.249023,-8.239746,0,0
3652,2024 10 24,05:24:40.423,-0.561268,-0.507123,0.482085,-0.442039,-0.984405,0.013184,0.149907,2.197266,7.629395,-7.93457,0,0
3653,2024 10 24,05:24:40.432,-0.5617,-0.507293,0.481174,-0.442287,-1.000031,-0.010743,0.1377,4.577637,8.239746,-7.69043,0,0
3654,2024 10 24,05:24:40.440,-0.5617,-0.507293,0.481174,-0.442287,-1.000031,-0.010743,0.1377,4.577637,8.239746,-7.69043,0,0
3655,2024 10 24,05:24:40.448,-0.562147,-0.507488,0.480094,-0.44267,-0.993683,-0.023927,0.153813,6.896973,10.620117,-7.93457,0,0
3656,2024 10 24,05:24:40.457,-0.562655,-0.507678,0.478814,-0.443193,-1.001495,-0.013184,0.130863,8.361816,13.000488,-8.605957,0,0
3657,2024 10 24,05:24:40.465,-0.56312,-0.507981,0.477358,-0.443825,-1.00589,-0.025391,0.12891,11.71875,13.73291,-9.399414,0,0
3658,2024 10 24,05:24:40.473,-0.563569,-0.508448,0.47576,-0.444435,-1.029328,-0.013184,0.149419,13.305664,13.183594,-11.352539,0,0
3659,2024 10 24,05:24:40.482,-0.564016,-0.50909,0.473984,-0.445032,-1.018586,0.015137,0.140141,14.099121,13.73291,-13.73291,0,0
3660,2024 10 24,05:24:40.490,-0.564016,-0.50909,0.473984,-0.445032,-1.018586,0.015137,0.140141,14.099121,13.73291,-13.73291,0,0
3661,2024 10 24,05:24:40.498,-0.564409,-0.50996,0.472046,-0.445596,-1.006378,-0.004395,0.168462,16.113281,11.962891,-16.113281,0,0
3662,2024 10 24,05:24:40.507,-0.564802,-0.511081,0.470004,-0.445973,-1.014679,-0.005371,0.173345,18.737793,11.413574,-19.165039,0,0
3663,2024 10 24,05:24:40.515,-0.565238,-0.512408,0.467838,-0.446175,-1.024934,-0.018067,0.147465,16.845703,8.728027,-22.705078,0,0
3664,2024 10 24,05:24:40.523,-0.565806,-0.513864,0.465699,-0.446017,-1.000519,-0.010743,0.250008,15.869141,8.178711,-26.245117,0,0
3665,2024 10 24,05:24:40.532,-0.566638,-0.51538,0.463299,-0.445711,-1.067904,-0.00586,0.161626,14.831543,9.033203,-30.761719,0,0
3666,2024 10 24,05:24:40.540,-0.566638,-0.51538,0.463299,-0.445711,-1.067904,-0.00586,0.161626,14.831543,9.033203,-30.761719,0,0
3667,2024 10 24,05:24:40.548,-0.567658,-0.517206,0.460979,-0.444704,-1.130406,-0.026856,0.193854,11.413574,3.723145,-37.841797,0,0
3668,2024 10 24,05:24:40.557,-0.569104,-0.519191,0.458493,-0.443109,-1.155797,-0.02002,0.142582,8.056641,2.685547,-46.142578,0,0
3669,2024 10 24,05:24:40.565,-0.570859,-0.521561,0.455827,-0.440814,-1.214881,-0.006348,0.208991,6.04248,0.183105,-55.908203,0,0
3670,2024 10 24,05:24:40.573,-0.573177,-0.524178,0.452591,-0.438026,-1.271523,-0.009278,0.141606,5.004883,2.990723,-67.260742,0,0
3671,2024 10 24,05:24:40.582,-0.575973,-0.527272,0.448993,-0.434333,-1.316446,0.019044,0.180181,1.831055,-1.647949,-80.810547,0,0
3672,2024 10 24,05:24:40.590,-0.575973,-0.527272,0.448993,-0.434333,-1.316446,0.019044,0.180181,1.831055,-1.647949,-80.810547,0,0
3673,2024 10 24,05:24:40.598,-0.579139,-0.530938,0.444825,-0.429922,-1.270547,0.018555,0.218757,3.662109,-1.525879,-94.055176,0,0
3674,2024 10 24,05:24:40.607,-0.582694,-0.535068,0.439914,-0.425024,-1.199255,0.011231,0.14893,5.981445,-0.244141,-105.529785,0,0
3675,2024 10 24,05:24:40.615,-0.586208,-0.539898,0.434757,-0.419353,-1.371624,0.013184,0.212409,7.080078,-9.033203,-115.661621,0,0
3676,2024 10 24,05:24:40.623,-0.5904,-0.545213,0.428955,-0.412514,-1.531297,0.06592,0.250496,3.173828,-7.873535,-136.474609,0,0
3677,2024 10 24,05:24:40.632,-0.595627,-0.551004,0.42175,-0.404659,-1.742729,0.049318,0.161138,1.037598,-1.159668,-160.705566,0,0
3678,2024 10 24,05:24:40.640,-0.595627,-0.551004,0.42175,-0.404659,-1.742729,0.049318,0.161138,1.037598,-1.159668,-160.705566,0,0
3679,2024 10 24,05:24:40.648,-0.602541,-0.556882,0.412588,-0.395725,-1.913144,0.123539,0.055666,-5.065918,16.296387,-190.856934,0,0
3680,2024 10 24,05:24:40.657,-0.61108,-0.563124,0.401163,-0.385411,-2.234931,0.24366,0.126957,-8.789063,29.052734,-226.379395,0,0
3681,2024 10 24,05:24:40.665,-0.621227,-0.569994,0.386351,-0.374056,-2.56209,0.254891,-0.009278,-2.563477,53.222656,-268.798828,0,0
3682,2024 10 24,05:24:40.673,-0.633316,-0.577229,0.367301,-0.361674,-2.691977,0.315928,-0.11475,0.061035,86.242676,-315.979004,0,0
3683,2024 10 24,05:24:40.682,-0.647049,-0.584788,0.343951,-0.34792,-2.891201,0.465835,-0.009278,4.089355,113.220215,-363.708496,0,0
3684,2024 10 24,05:24:40.690,-0.647049,-0.584788,0.343951,-0.34792,-2.891201,0.465835,-0.009278,4.089355,113.220215,-363.708496,0,0
3685,2024 10 24,05:24:40.698,-0.661466,-0.592824,0.316197,-0.33323,-3.231056,0.390149,0.293954,18.798828,139.221191,-403.930664,0,0
3686,2024 10 24,05:24:40.707,-0.675975,-0.600676,0.283225,-0.31942,-3.123142,0.261238,0.291025,44.86084,193.969727,-430.175781,0,0
3687,2024 10 24,05:24:40.715,-0.689257,-0.608645,0.245811,-0.30668,-2.833583,-0.345225,0.094241,75.622559,219.909668,-445.19043,0,1
3688,2024 10 24,05:24:40.723,-0.70136,-0.615691,0.20755,-0.293159,-2.632405,-0.226569,-0.022462,61.889648,218.383789,-444.335938,0,0
3689,2024 10 24,05:24:40.732,-0.712461,-0.620482,0.170336,-0.279977,-2.510819,0.104984,-0.122562,50.90332,220.336914,-419.677734,0,0
3690,2024 10 24,05:24:40.740,-0.712461,-0.620482,0.170336,-0.279977,-2.510819,0.104984,-0.122562,50.90332,220.336914,-419.677734,0,0
3691,2024 10 24,05:24:40.748,-0.722502,-0.623091,0.133932,-0.267975,-2.330149,0.456557,-0.107425,41.992188,229.309082,-402.954102,0,0
3692,2024 10 24,05:24:40.757,-0.731175,-0.624497,0.096616,-0.257004,-1.801324,0.726585,-0.706076,48.76709,244.750977,-395.507813,0,0
3693,2024 10 24,05:24:40.765,-0.738215,-0.625528,0.060651,-0.245101,-1.525926,0.883816,-0.889187,47.607422,216.491699,-387.512207,0,0
3694,2024 10 24,05:24:40.773,-0.744037,-0.626029,0.026401,-0.231945,-1.03177,1.059603,-0.788598,46.447754,198.791504,-380.493164,0,0
3695,2024 10 24,05:24:40.782,-0.74872,-0.625557,-0.006568,-0.219214,-0.277352,1.004913,-1.310099,39.489746,192.016602,-355.529785,0,0
3696,2024 10 24,05:24:40.790,-0.752753,-0.623593,-0.034922,-0.208026,1.123081,0.170904,-1.181677,6.591797,156.005859,-290.344238,0,0
3697,2024 10 24,05:24:40.798,-0.752753,-0.623593,-0.034922,-0.208026,1.123081,0.170904,-1.181677,6.591797,156.005859,-290.344238,0,0
3698,2024 10 24,05:24:40.807,-0.757499,-0.6193,-0.048923,-0.200672,0.683615,0.828639,-0.74221,-47.729492,48.461914,-125.549316,0,0
3699,2024 10 24,05:24:40.815,-0.76064,-0.615029,-0.048936,-0.201919,0.204596,1.138707,-0.530778,-69.030762,12.878418,43.334961,0,0
3700,2024 10 24,05:24:40.823,-0.761906,-0.610604,-0.040025,-0.212272,-0.458998,1.154332,-0.270516,-72.631836,3.295898,178.527832,0,0
3701,2024 10 24,05:24:40.832,-0.760163,-0.606767,-0.027217,-0.23075,-0.936064,0.912625,-0.02002,-56.152344,41.992188,268.188477,0,0
3702,2024 10 24,05:24:40.840,-0.755538,-0.603227,-0.014796,-0.255071,-0.750999,0.687033,-0.189459,-31.37207,78.613281,312.683105,0,0
3703,2024 10 24,05:24:40.848,-0.755538,-0.603227,-0.014796,-0.255071,-0.750999,0.687033,-0.189459,-31.37207,78.613281,312.683105,0,0
3704,2024 10 24,05:24:40.857,-0.748698,-0.60041,-0.002164,-0.280987,-0.620136,0.539567,-0.287118,-14.099121,81.787109,329.89502,0,0
3705,2024 10 24,05:24:40.865,-0.740464,-0.598052,0.010481,-0.306492,-0.536149,0.425306,-0.438002,-3.601074,72.44873,326.416016,0,0
3706,2024 10 24,05:24:40.873,-0.731576,-0.596139,0.023596,-0.329936,-0.540056,0.277352,-0.546892,-0.12207,51.330566,313.537598,0,0
3707,2024 10 24,05:24:40.882,-0.722359,-0.594506,0.036996,-0.35127,-0.540056,0.236335,-0.563494,3.417969,36.92627,299.438477,0,0
3708,2024 10 24,05:24:40.890,-0.712862,-0.593055,0.051071,-0.370817,-0.486831,0.278329,-0.542497,2.197266,13.977051,292.480469,0,0
3709,2024 10 24,05:24:40.898,-0.712862,-0.593055,0.051071,-0.370817,-0.486831,0.278329,-0.542497,2.197266,13.977051,292.480469,0,0
3710,2024 10 24,05:24:40.907,-0.702609,-0.592085,0.066609,-0.389023,-0.573748,0.340831,-0.36964,5.859375,-6.774902,297.546387,0,0
3711,2024 10 24,05:24:40.915,-0.691009,-0.591415,0.083253,-0.407191,-0.714377,0.372082,-0.379406,13.916016,-17.63916,311.950684,0,0
3712,2024 10 24,05:24:40.923,-0.677637,-0.590993,0.101107,-0.425808,-0.870144,0.364757,-0.313974,23.132324,-24.658203,332.275391,0,0
3713,2024 10 24,05:24:40.932,-0.662319,-0.590497,0.119639,-0.445346,-0.972686,0.296396,-0.34669,33.813477,-24.475098,352.783203,0,0
3714,2024 10 24,05:24:40.940,-0.645187,-0.589875,0.138716,-0.465337,-1.040071,0.185553,-0.388195,42.358398,-28.259277,368.041992,0,0
3715,2024 10 24,05:24:40.948,-0.645187,-0.589875,0.138716,-0.465337,-1.040071,0.185553,-0.388195,42.358398,-28.259277,368.041992,0,0
3716,2024 10 24,05:24:40.957,-0.626545,-0.589161,0.158425,-0.485007,-1.109409,0.102542,-0.432142,47.058105,-38.94043,376.831055,0,0
3717,2024 10 24,05:24:40.965,-0.606629,-0.5885,0.1787,-0.503721,-1.233924,0.020997,-0.462905,50.415039,-51.574707,379.699707,0,0
3718,2024 10 24,05:24:40.973,-0.585736,-0.588,0.199353,-0.520987,-1.372112,-0.028321,-0.448744,52.612305,-67.565918,376.342773,0,0
3719,2024 10 24,05:24:40.982,-0.564015,-0.587737,0.220118,-0.536656,-1.502976,-0.034669,-0.424329,56.030273,-81.481934,370.727539,0,0
3720,2024 10 24,05:24:40.990,-0.541306,-0.587717,0.240822,-0.550982,-1.660207,-0.02002,-0.387219,62.37793,-94.055176,368.164063,0,0
3721,2024 10 24,05:24:40.998,-0.541306,-0.587717,0.240822,-0.550982,-1.660207,-0.02002,-0.387219,62.37793,-94.055176,368.164063,0,0
3722,2024 10 24,05:24:41.007,-0.517366,-0.587877,0.261432,-0.564257,-1.820856,-0.022462,-0.34962,69.824219,-104.187012,369.262695,0,0
3723,2024 10 24,05:24:41.015,-0.49209,-0.588063,0.281803,-0.576729,-1.969298,-0.087893,-0.357921,78.430176,-112.426758,372.009277,0,0
3724,2024 10 24,05:24:41.023,-0.465553,-0.588261,0.301933,-0.588257,-2.127506,-0.22071,-0.403821,84.960938,-121.948242,373.962402,0,0
3725,2024 10 24,05:24:41.032,-0.438055,-0.588458,0.321819,-0.598545,-2.315012,-0.397961,-0.480972,87.768555,-132.202148,372.436523,0,0
3726,2024 10 24,05:24:41.040,-0.410181,-0.588507,0.341339,-0.60737,-2.463454,-0.624531,-0.576189,85.205078,-139.587402,366.088867,0,0
3727,2024 10 24,05:24:41.048,-0.410181,-0.588507,0.341339,-0.60737,-2.463454,-0.624531,-0.576189,85.205078,-139.587402,366.088867,0,0
3728,2024 10 24,05:24:41.057,-0.382583,-0.588366,0.360436,-0.614444,-2.567461,-0.927274,-0.617206,77.331543,-146.484375,354.675293,0,0
3729,2024 10 24,05:24:41.065,-0.355787,-0.587977,0.379079,-0.619676,-2.607502,-1.320841,-0.651387,65.856934,-151.977539,341.247559,0,0
3730,2024 10 24,05:24:41.073,-0.330146,-0.587395,0.397261,-0.623021,-2.622639,-1.693411,-0.609882,52.978516,-156.005859,325.134277,0,0
3731,2024 10 24,05:24:41.082,-0.305893,-0.586924,0.414381,-0.62469,-2.638264,-1.983947,-0.533219,45.776367,-158.203125,301.574707,0,0
3732,2024 10 24,05:24:41.090,-0.283362,-0.587306,0.429572,-0.624696,-2.543046,-2.203681,-0.351085,45.166016,-161.804199,265.014648,0,0
3733,2024 10 24,05:24:41.098,-0.283362,-0.587306,0.429572,-0.624696,-2.543046,-2.203681,-0.351085,45.166016,-161.804199,265.014648,0,0
3734,2024 10 24,05:24:41.107,-0.262705,-0.589382,0.441925,-0.623152,-2.268136,-2.392163,-0.182134,53.161621,-168.518066,218.62793,0,0
3735,2024 10 24,05:24:41.115,-0.243384,-0.593965,0.451259,-0.619947,-1.796442,-2.529862,0.016602,65.917969,-186.035156,172.668457,0,0
3736,2024 10 24,05:24:41.123,-0.225141,-0.60148,0.458032,-0.614606,-0.618183,-2.377026,0.920438,70.556641,-212.82959,124.145508,0,0
3737,2024 10 24,05:24:41.132,-0.206004,-0.614412,0.461613,-0.605783,-0.483413,-2.404859,1.057649,102.416992,-287.658691,67.687988,0,0
3738,2024 10 24,05:24:41.140,-0.184609,-0.63311,0.461487,-0.593398,-2.139714,-3.072848,1.48735,140.991211,-344.848633,24.719238,0,0
3739,2024 10 24,05:24:41.148,-0.184609,-0.63311,0.461487,-0.593398,-2.139714,-3.072848,1.48735,140.991211,-344.848633,24.719238,0,0
3740,2024 10 24,05:24:41.157,-0.166515,-0.648741,0.45691,-0.585356,-2.954192,-3.349712,1.75689,158.691406,-214.904785,3.601074,0,0
3741,2024 10 24,05:24:41.165,-0.157005,-0.655392,0.447687,-0.587697,-1.85699,-3.463973,0.773461,155.395508,-31.37207,-19.714355,0,0
3742,2024 10 24,05:24:41.173,-0.15452,-0.658858,0.437355,-0.592241,-6.141301,-3.604114,-1.528855,98.999023,8.728027,-68.603516,0,0
3743,2024 10 24,05:24:41.182,-0.166526,-0.670615,0.42223,-0.586742,-1.674367,-1.722709,2.511795,-4.516602,31.616211,-269.348145,0,0
3744,2024 10 24,05:24:41.190,-0.186092,-0.674084,0.402078,-0.591028,-0.60744,-0.487808,-0.963897,-3.112793,154.23584,-285.15625,1,0
3745,2024 10 24,05:24:41.198,-0.186092,-0.674084,0.402078,-0.591028,-0.60744,-0.487808,-0.963897,-3.112793,154.23584,-285.15625,0,0
3746,2024 10 24,05:24:41.207,-0.206048,-0.679496,0.386261,-0.588754,-1.158238,1.083041,0.53029,-26.977539,37.475586,-278.015137,0,0
3747,2024 10 24,05:24:41.215,-0.218455,-0.687199,0.370455,-0.58549,-2.537675,-0.437513,0.273934,18.554688,17.456055,-242.492676,0,0
3748,2024 10 24,05:24:41.223,-0.233484,-0.687185,0.354116,-0.5898,-1.761773,-0.39259,1.377483,14.404297,176.086426,-202.392578,0,0
3749,2024 10 24,05:24:41.232,-0.248444,-0.680101,0.338189,-0.601138,-0.734397,-0.257332,-0.638691,19.165039,229.431152,-151.123047,0,0
3750,2024 10 24,05:24:41.240,-0.255943,-0.677933,0.328372,-0.605864,-1.095248,-0.285653,-0.119633,18.676758,72.021484,-88.378906,0,0
3751,2024 10 24,05:24:41.248,-0.257764,-0.676709,0.32189,-0.609926,-1.337443,0.031251,0.444349,56.70166,78.369141,-33.691406,0,0
3752,2024 10 24,05:24:41.257,-0.257764,-0.676709,0.32189,-0.609926,-1.337443,0.031251,0.444349,56.70166,78.369141,-33.691406,0,0
3753,2024 10 24,05:24:41.265,-0.257843,-0.672704,0.314525,-0.61811,-0.868679,-0.193854,-0.280282,65.734863,110.961914,-15.686035,0,0
3754,2024 10 24,05:24:41.273,-0.258063,-0.670729,0.309742,-0.622564,-1.011261,0.054201,0.123051,37.658691,47.546387,-17.944336,0,0
3755,2024 10 24,05:24:41.282,-0.257667,-0.668958,0.305376,-0.626776,-1.100131,0.018555,0.034669,46.386719,62.744141,-10.009766,0,0
3756,2024 10 24,05:24:41.290,-0.257048,-0.666185,0.300568,-0.632284,-0.997589,-0.082034,-0.013184,49.255371,74.829102,-5.493164,0,0
3757,2024 10 24,05:24:41.298,-0.256742,-0.663822,0.296575,-0.636763,-0.990265,-0.061037,0.034669,37.841797,55.847168,-6.652832,0,0
3758,2024 10 24,05:24:41.307,-0.256742,-0.663822,0.296575,-0.636763,-0.990265,-0.061037,0.034669,37.841797,55.847168,-6.652832,0,0
3759,2024 10 24,05:24:41.315,-0.256773,-0.662052,0.29336,-0.640074,-0.927274,-0.027833,0.197272,26.794434,44.98291,-9.399414,0,0
3760,2024 10 24,05:24:41.323,-0.257265,-0.660766,0.290778,-0.642379,-0.907254,0.002441,0.163091,17.456055,31.188965,-12.695313,0,0
3761,2024 10 24,05:24:41.332,-0.257711,-0.660394,0.28873,-0.643505,-0.93997,-0.00586,0.124516,12.268066,13.427734,-14.587402,0,0
3762,2024 10 24,05:24:41.340,-0.258191,-0.660615,0.287166,-0.643786,-1.017609,-0.007324,0.150884,8.605957,4.760742,-15.197754,0,0
3763,2024 10 24,05:24:41.348,-0.258819,-0.660788,0.285603,-0.644052,-1.045442,-0.016114,0.054201,7.93457,7.141113,-16.113281,0,0
3764,2024 10 24,05:24:41.357,-0.258819,-0.660788,0.285603,-0.644052,-1.045442,-0.016114,0.054201,7.93457,7.141113,-16.113281,0,0
3765,2024 10 24,05:24:41.365,-0.259624,-0.660876,0.284082,-0.64431,-1.023469,-0.005371,0.107425,5.67627,8.178711,-16.967773,0,0
3766,2024 10 24,05:24:41.373,-0.26053,-0.660946,0.282621,-0.644515,-1.015168,-0.002441,0.096194,4.02832,7.019043,-17.211914,0,0
3767,2024 10 24,05:24:41.382,-0.261455,-0.66104,0.281197,-0.644667,-0.983428,-0.000977,0.122074,4.577637,6.835938,-17.150879,0,0
3768,2024 10 24,05:24:41.390,-0.262174,-0.661185,0.279741,-0.64486,-0.967315,-0.015137,0.134281,6.896973,5.92041,-15.74707,0,0
3769,2024 10 24,05:24:41.398,-0.262755,-0.661408,0.278384,-0.644982,-0.944365,-0.014649,0.142582,6.347656,3.540039,-14.587402,0,0
3770,2024 10 24,05:24:41.407,-0.262755,-0.661408,0.278384,-0.644982,-0.944365,-0.014649,0.142582,6.347656,3.540039,-14.587402,0,0
3771,2024 10 24,05:24:41.415,-0.263217,-0.661806,0.277123,-0.644928,-0.947783,-0.026368,0.14893,6.835938,0.0,-14.099121,0,0
3772,2024 10 24,05:24:41.423,-0.263626,-0.662369,0.275974,-0.644676,-0.953642,-0.02002,0.108402,6.04248,-2.868652,-14.099121,0,0
3773,2024 10 24,05:24:41.432,-0.263994,-0.663039,0.274937,-0.64428,-0.970244,-0.027833,0.121097,5.187988,-4.699707,-13.73291,0,0
3774,2024 10 24,05:24:41.440,-0.264481,-0.66368,0.273977,-0.643828,-0.952178,-0.008301,0.149419,3.601074,-4.638672,-14.221191,0,0
3775,2024 10 24,05:24:41.448,-0.264928,-0.664412,0.272967,-0.643319,-0.942412,0.0,0.160161,5.310059,-6.286621,-14.892578,0,0
3776,2024 10 24,05:24:41.457,-0.264928,-0.664412,0.272967,-0.643319,-0.942412,0.0,0.160161,5.310059,-6.286621,-14.892578,0,0
3777,2024 10 24,05:24:41.465,-0.265181,-0.665355,0.27181,-0.642729,-0.954619,-0.005371,0.156255,8.178711,-8.911133,-15.686035,0,0
3778,2024 10 24,05:24:41.473,-0.265292,-0.666443,0.270519,-0.642101,-0.95999,-0.013672,0.149419,10.314941,-9.70459,-16.113281,0,0
3779,2024 10 24,05:24:41.482,-0.265295,-0.667604,0.269108,-0.641486,-0.967803,-0.018067,0.121097,12.573242,-9.94873,-16.357422,0,0
3780,2024 10 24,05:24:41.490,-0.265186,-0.668757,0.267556,-0.640979,-0.970733,-0.032716,0.136235,14.343262,-8.422852,-16.052246,0,0
3781,2024 10 24,05:24:41.498,-0.26501,-0.669819,0.265904,-0.64063,-0.983428,-0.022462,0.155766,16.113281,-6.591797,-15.50293,0,0
3782,2024 10 24,05:24:41.507,-0.26501,-0.669819,0.265904,-0.64063,-0.983428,-0.022462,0.155766,16.113281,-6.591797,-15.50293,0,0
3783,2024 10 24,05:24:41.515,-0.264767,-0.670802,0.26413,-0.640437,-0.9888,-0.035157,0.119144,17.578125,-4.211426,-15.258789,0,0
3784,2024 10 24,05:24:41.523,-0.264556,-0.671654,0.262243,-0.640405,-0.987823,-0.053224,0.113285,18.005371,-1.647949,-15.563965,0,0
3785,2024 10 24,05:24:41.532,-0.26446,-0.672385,0.260373,-0.640442,-0.978057,-0.056642,0.12598,16.052246,-0.366211,-15.808105,0,0
3786,2024 10 24,05:24:41.540,-0.26452,-0.672999,0.258575,-0.640501,-1.004425,-0.058596,0.102542,14.343262,0.793457,-15.869141,0,0
3787,2024 10 24,05:24:41.548,-0.26479,-0.673524,0.256824,-0.640541,-1.001495,-0.055666,0.121097,11.962891,2.258301,-17.150879,0,0
3788,2024 10 24,05:24:41.557,-0.26479,-0.673524,0.256824,-0.640541,-1.001495,-0.055666,0.121097,11.962891,2.258301,-17.150879,0,0
3789,2024 10 24,05:24:41.565,-0.265212,-0.673952,0.255016,-0.640639,-1.003449,-0.059084,0.110355,11.59668,3.540039,-18.188477,0,0
3790,2024 10 24,05:24:41.573,-0.265761,-0.674392,0.253177,-0.640678,-1.018098,-0.0459,0.122074,10.375977,3.234863,-19.714355,0,0
3791,2024 10 24,05:24:41.582,-0.266514,-0.674883,0.251265,-0.6406,-1.000031,-0.050783,0.127445,9.155273,3.112793,-22.766113,0,0
3792,2024 10 24,05:24:41.590,-0.267451,-0.675472,0.24929,-0.64036,-1.03177,-0.049806,0.138188,7.93457,0.671387,-25.32959,0,0
3793,2024 10 24,05:24:41.598,-0.268656,-0.676128,0.2472,-0.639974,-1.063509,-0.055666,0.114261,6.469727,1.464844,-29.174805,0,0
3794,2024 10 24,05:24:41.607,-0.268656,-0.676128,0.2472,-0.639974,-1.063509,-0.055666,0.114261,6.469727,1.464844,-29.174805,0,0
3795,2024 10 24,05:24:41.615,-0.27028,-0.676869,0.244981,-0.63936,-1.060091,-0.06885,0.102054,3.417969,0.0,-34.362793,0,0
3796,2024 10 24,05:24:41.623,-0.272336,-0.677658,0.242677,-0.638531,-1.079623,-0.072268,0.117679,0.427246,0.0,-38.879395,0,0
3797,2024 10 24,05:24:41.632,-0.274882,-0.678587,0.240246,-0.63737,-1.099643,-0.053713,0.137211,-2.868652,-2.624512,-45.471191,0,0
3798,2024 10 24,05:24:41.640,-0.277898,-0.679585,0.237487,-0.636033,-1.15482,-0.060549,0.069826,-4.577637,-1.281738,-52.429199,0,0
3799,2024 10 24,05:24:41.648,-0.281397,-0.680739,0.234407,-0.6344,-1.168004,-0.031739,0.136235,-5.554199,-3.112793,-59.936523,0,0
3800,2024 10 24,05:24:41.657,-0.285269,-0.68204,0.230717,-0.632624,-1.197302,-0.007813,0.181646,-4.150391,-0.793457,-68.786621,0,0
3801,2024 10 24,05:24:41.665,-0.285269,-0.68204,0.230717,-0.632624,-1.197302,-0.007813,0.181646,-4.150391,-0.793457,-68.786621,0,0
3802,2024 10 24,05:24:41.673,-0.289514,-0.683663,0.226244,-0.630556,-1.296915,0.013672,0.185553,-0.488281,-4.272461,-80.688477,0,0
3803,2024 10 24,05:24:41.682,-0.294279,-0.68555,0.220797,-0.628228,-1.322306,-0.005371,0.17188,3.601074,-2.441406,-94.055176,0,0
3804,2024 10 24,05:24:41.690,-0.299698,-0.687606,0.214323,-0.625656,-1.359416,-0.01709,0.150395,5.310059,-0.366211,-108.337402,0,0
3805,2024 10 24,05:24:41.698,-0.306076,-0.689792,0.206817,-0.62268,-1.453658,0.013672,0.169927,2.868652,2.807617,-126.342773,0,0
3806,2024 10 24,05:24:41.707,-0.313661,-0.692008,0.198039,-0.619292,-1.53618,-0.028809,0.046876,1.831055,5.065918,-147.766113,0,0
3807,2024 10 24,05:24:41.715,-0.313661,-0.692008,0.198039,-0.619292,-1.53618,-0.028809,0.046876,1.831055,5.065918,-147.766113,0,0
3808,2024 10 24,05:24:41.723,-0.322863,-0.694223,0.188014,-0.615195,-1.722221,0.023927,0.027833,-4.272461,9.765625,-172.241211,0,0
3809,2024 10 24,05:24:41.732,-0.333969,-0.696082,0.176212,-0.610642,-1.973693,0.120121,-0.009766,-9.155273,21.118164,-203.674316,0,0
3810,2024 10 24,05:24:41.740,-0.347265,-0.697634,0.162072,-0.605348,-2.245674,0.257332,0.224616,-11.71875,29.418945,-243.225098,0,0
3811,2024 10 24,05:24:41.748,-0.362601,-0.698625,0.14434,-0.599674,-2.507889,0.347667,0.082522,-5.432129,50.842285,-289.794922,0,0
3812,2024 10 24,05:24:41.757,-0.380113,-0.69905,0.122613,-0.593135,-2.724693,0.361339,0.069826,2.01416,66.894531,-341.674805,0,0
3813,2024 10 24,05:24:41.765,-0.380113,-0.69905,0.122613,-0.593135,-2.724693,0.361339,0.069826,2.01416,66.894531,-341.674805,0,0
3814,2024 10 24,05:24:41.773,-0.399926,-0.698397,0.096854,-0.585594,-2.989349,0.425794,0.038087,4.394531,87.890625,-393.127441,0,0
3815,2024 10 24,05:24:41.782,-0.421124,-0.69664,0.06694,-0.576945,-3.162694,0.300302,0.526383,18.859863,110.778809,-438.964844,0,0
3816,2024 10 24,05:24:41.790,-0.441886,-0.693087,0.031776,-0.568645,-3.048921,0.068361,0.339854,51.208496,151.428223,-473.449707,0,0
3817,2024 10 24,05:24:41.798,-0.46122,-0.688316,-0.006733,-0.559867,-2.786218,-0.267586,0.101566,74.707031,165.100098,-487.121582,0,0
3818,2024 10 24,05:24:41.807,-0.479899,-0.682235,-0.045453,-0.549714,-2.450758,-0.102542,0.041017,63.049316,159.301758,-487.365723,0,1
3819,2024 10 24,05:24:41.815,-0.479899,-0.682235,-0.045453,-0.549714,-2.450758,-0.102542,0.041017,63.049316,159.301758,-487.365723,0,0
3820,2024 10 24,05:24:41.823,-0.497806,-0.674609,-0.082332,-0.538807,-2.260811,0.191412,-0.259285,57.067871,156.37207,-469.665527,0,0
3821,2024 10 24,05:24:41.832,-0.515178,-0.666075,-0.1176,-0.526408,-1.958068,0.488784,-0.064943,44.311523,140.319824,-471.191406,0,0
3822,2024 10 24,05:24:41.840,-0.532185,-0.656774,-0.152314,-0.512081,-1.529344,0.664083,-0.660176,42.785645,124.084473,-474.365234,0,0
3823,2024 10 24,05:24:41.848,-0.548487,-0.648091,-0.184689,-0.495004,-1.480514,0.714866,-0.450697,41.564941,84.350586,-465.698242,0,0
3824,2024 10 24,05:24:41.857,-0.564126,-0.640552,-0.21391,-0.475077,-1.350139,0.800806,-0.796899,38.513184,31.37207,-451.11084,0,0
3825,2024 10 24,05:24:41.865,-0.564126,-0.640552,-0.21391,-0.475077,-1.350139,0.800806,-0.796899,38.513184,31.37207,-451.11084,0,0
3826,2024 10 24,05:24:41.873,-0.58016,-0.630726,-0.237266,-0.457497,-0.245125,1.96295,-1.191931,-38.024902,51.391602,-381.774902,0,0
3827,2024 10 24,05:24:41.882,-0.588001,-0.619233,-0.256879,-0.452568,0.907743,1.112339,-0.382824,1.342773,156.494141,-197.998047,0,0
3828,2024 10 24,05:24:41.890,-0.58661,-0.61277,-0.266136,-0.457791,0.243171,1.237831,-0.222663,-6.408691,126.525879,9.94873,0,0
3829,2024 10 24,05:24:41.898,-0.578227,-0.610788,-0.265649,-0.471192,0.500015,1.171911,-0.573748,2.01416,131.774902,166.992188,0,0
3830,2024 10 24,05:24:41.907,-0.565678,-0.613563,-0.256043,-0.487842,-0.035646,0.790551,-0.843287,-1.220703,50.537109,280.517578,0,0
3831,2024 10 24,05:24:41.915,-0.565678,-0.613563,-0.256043,-0.487842,-0.035646,0.790551,-0.843287,-1.220703,50.537109,280.517578,0,0
3832,2024 10 24,05:24:41.923,-0.551203,-0.619763,-0.238728,-0.505053,-0.629414,0.630879,-0.263192,-9.82666,16.723633,342.407227,0,0
3833,2024 10 24,05:24:41.932,-0.534635,-0.626269,-0.219461,-0.523249,-0.700217,0.388195,-0.730491,-4.943848,12.145996,363.708496,0,0
3834,2024 10 24,05:24:41.940,-0.518778,-0.633163,-0.198498,-0.539048,-0.787133,0.294931,-0.466811,-12.878418,-21.240234,350.463867,0,0
3835,2024 10 24,05:24:41.948,-0.50438,-0.638968,-0.177798,-0.552909,-0.846706,0.137211,-0.603046,-25.878906,-24.902344,322.875977,0,0
3836,2024 10 24,05:24:41.957,-0.491728,-0.64368,-0.157299,-0.564922,-0.889187,0.132328,-0.426283,-40.95459,-33.508301,300.415039,0,0
3837,2024 10 24,05:24:41.965,-0.491728,-0.64368,-0.157299,-0.564922,-0.889187,0.132328,-0.426283,-40.95459,-33.508301,300.415039,0,0
3838,2024 10 24,05:24:41.973,-0.479712,-0.646522,-0.137158,-0.577124,-0.763695,0.182134,-0.431166,-52.307129,-12.634277,296.386719,0,0
3839,2024 10 24,05:24:41.982,-0.467285,-0.647878,-0.116532,-0.590185,-0.699728,0.259774,-0.330576,-60.791016,-2.197266,309.143066,0,0
3840,2024 10 24,05:24:41.990,-0.453921,-0.648132,-0.094651,-0.604088,-0.688009,0.248054,-0.285165,-68.481445,5.310059,328.979492,0,0
3841,2024 10 24,05:24:41.998,-0.439497,-0.647692,-0.071271,-0.61827,-0.68215,0.229987,-0.315928,-75.073242,2.258301,347.65625,0,0
3842,2024 10 24,05:24:42.007,-0.424297,-0.647085,-0.046319,-0.63175,-0.776391,0.163579,-0.306162,-80.993652,-9.70459,359.375,0,0
3843,2024 10 24,05:24:42.015,-0.424297,-0.647085,-0.046319,-0.63175,-0.776391,0.163579,-0.306162,-80.993652,-9.70459,359.375,0,0
3844,2024 10 24,05:24:42.023,-0.408816,-0.646334,-0.020252,-0.643981,-0.838893,0.127934,-0.284188,-85.449219,-24.719238,361.206055,0,0
3845,2024 10 24,05:24:42.032,-0.393245,-0.645895,0.006408,-0.654322,-0.893094,0.104984,-0.234382,-87.219238,-44.98291,356.628418,0,0
3846,2024 10 24,05:24:42.040,-0.377569,-0.645867,0.033391,-0.662708,-1.023957,0.12891,-0.232429,-85.449219,-63.476563,350.524902,0,0
3847,2024 10 24,05:24:42.048,-0.361499,-0.646543,0.060304,-0.669077,-1.218787,0.135746,-0.159673,-78.613281,-83.862305,343.505859,0,0
3848,2024 10 24,05:24:42.057,-0.344851,-0.647721,0.086633,-0.673818,-1.356975,0.180181,-0.087893,-67.565918,-95.397949,336.547852,0,0
3849,2024 10 24,05:24:42.065,-0.344851,-0.647721,0.086633,-0.673818,-1.356975,0.180181,-0.087893,-67.565918,-95.397949,336.547852,0,0
3850,2024 10 24,05:24:42.073,-0.327206,-0.649304,0.111929,-0.677357,-1.482955,0.22071,-0.020997,-50.048828,-103.942871,332.397461,0,0
3851,2024 10 24,05:24:42.082,-0.308058,-0.651422,0.136129,-0.679866,-1.613819,0.210944,0.010743,-28.686523,-114.929199,332.214355,0,0
3852,2024 10 24,05:24:42.090,-0.287241,-0.654013,0.159236,-0.681471,-1.762261,0.145024,-0.020508,-7.69043,-123.962402,333.862305,0,0
3853,2024 10 24,05:24:42.098,-0.264964,-0.657163,0.181404,-0.681926,-1.948302,-0.02002,-0.077151,8.178711,-137.268066,333.80127,0,0
3854,2024 10 24,05:24:42.107,-0.241816,-0.660601,0.202861,-0.68116,-2.111392,-0.262703,-0.159185,16.845703,-147.216797,331.970215,0,0
3855,2024 10 24,05:24:42.115,-0.21865,-0.664005,0.223819,-0.679113,-2.19245,-0.54445,-0.22071,15.686035,-154.47998,325.622559,0,0
3856,2024 10 24,05:24:42.123,-0.21865,-0.664005,0.223819,-0.679113,-2.19245,-0.54445,-0.22071,15.686035,-154.47998,325.622559,0,0
3857,2024 10 24,05:24:42.132,-0.196241,-0.66746,0.24438,-0.675474,-2.244697,-0.840846,-0.223151,7.202148,-165.222168,313.049316,0,0
3858,2024 10 24,05:24:42.140,-0.175189,-0.671167,0.264449,-0.670007,-2.359447,-1.112827,-0.187017,-4.02832,-176.513672,294.98291,0,0
3859,2024 10 24,05:24:42.148,-0.155793,-0.675086,0.283667,-0.662964,-2.537675,-1.376995,-0.093753,-13.73291,-182.128906,273.193359,0,0
3860,2024 10 24,05:24:42.157,-0.138286,-0.678647,0.301645,-0.65523,-2.58797,-1.628956,-0.018555,-20.874023,-174.133301,251.708984,0,0
3861,2024 10 24,05:24:42.165,-0.122572,-0.681614,0.318341,-0.647331,-2.41316,-1.887265,0.026368,-26.489258,-163.635254,231.994629,0,0
3862,2024 10 24,05:24:42.173,-0.122572,-0.681614,0.318341,-0.647331,-2.41316,-1.887265,0.026368,-26.489258,-163.635254,231.994629,0,0
3863,2024 10 24,05:24:42.182,-0.108675,-0.684426,0.333745,-0.639034,-2.065493,-2.116764,0.068361,-32.226563,-160.15625,208.496094,0,0
3864,2024 10 24,05:24:42.190,-0.096557,-0.68829,0.347631,-0.629354,-1.761773,-2.269112,0.178716,-38.757324,-175.048828,176.452637,0,0
3865,2024 10 24,05:24:42.198,-0.086107,-0.694095,0.359615,-0.617653,-1.641163,-2.326243,0.355968,-43.029785,-197.814941,138.73291,0,0
3866,2024 10 24,05:24:42.207,-0.077561,-0.701641,0.369377,-0.604356,-1.023469,-2.22663,1.093295,-48.828125,-209.655762,97.717285,0,0
3867,2024 10 24,05:24:42.215,-0.071033,-0.711408,0.376167,-0.589365,-0.125004,-1.841365,1.777886,-42.84668,-242.736816,43.334961,0,0
3868,2024 10 24,05:24:42.223,-0.071033,-0.711408,0.376167,-0.589365,-0.125004,-1.841365,1.777886,-42.84668,-242.736816,43.334961,0,0
3869,2024 10 24,05:24:42.232,-0.06156,-0.725744,0.37993,-0.570227,-2.093814,-2.518143,2.225166,-14.953613,-323.486328,25.634766,0,0
3870,2024 10 24,05:24:42.240,-0.054042,-0.735915,0.381895,-0.556475,-3.02353,-2.648518,2.431226,2.868652,-179.382324,29.47998,0,0
3871,2024 10 24,05:24:42.248,-0.052599,-0.736777,0.381428,-0.555793,-2.1236,-2.923917,1.58208,14.099121,5.249023,12.634277,0,0
3872,2024 10 24,05:24:42.257,-0.061406,-0.73768,0.380113,-0.554592,-6.085635,-5.019684,3.002533,-144.592285,-26.428223,-101.928711,0,0
3873,2024 10 24,05:24:42.265,-0.082912,-0.740696,0.366623,-0.556851,-1.843318,-1.233436,4.805323,-54.626465,195.922852,-248.413086,0,0
3874,2024 10 24,05:24:42.273,-0.082912,-0.740696,0.366623,-0.556851,-1.843318,-1.233436,4.805323,-54.626465,195.922852,-248.413086,0,0
3875,2024 10 24,05:24:42.282,-0.113657,-0.725844,0.348807,-0.581864,0.61037,0.901395,-3.071871,-84.350586,436.401367,-267.456055,1,0
3876,2024 10 24,05:24:42.290,-0.130031,-0.731021,0.333223,-0.581088,-2.065981,0.683126,0.57619,-22.888184,-57.373047,-264.038086,0,0
3877,2024 10 24,05:24:42.298,-0.141966,-0.734883,0.316346,-0.582853,-2.6451,-0.077639,1.969787,52.55127,139.099121,-217.529297,0,0
3878,2024 10 24,05:24:42.307,-0.152862,-0.725636,0.296866,-0.601628,-0.730979,-0.46144,-0.163091,92.468262,280.151367,-157.897949,0,0
3879,2024 10 24,05:24:42.315,-0.15988,-0.72162,0.283311,-0.611095,-1.101108,-0.350108,-0.179693,47.424316,116.210938,-117.675781,0,0
3880,2024 10 24,05:24:42.323,-0.15988,-0.72162,0.283311,-0.611095,-1.101108,-0.350108,-0.179693,47.424316,116.210938,-117.675781,0,0
3881,2024 10 24,05:24:42.332,-0.163443,-0.718716,0.274615,-0.617511,-1.188513,0.01709,0.167486,50.720215,107.727051,-59.448242,0,0
3882,2024 10 24,05:24:42.340,-0.163154,-0.71463,0.266565,-0.625801,-1.038606,-0.089846,-0.242195,87.280273,102.355957,-30.212402,0,0
3883,2024 10 24,05:24:42.348,-0.16246,-0.711328,0.259986,-0.632477,-0.972686,-0.055177,-0.109378,57.739258,86.608887,-24.414063,0,0
3884,2024 10 24,05:24:42.357,-0.161339,-0.707471,0.253884,-0.639529,-1.07474,-0.091311,0.036134,76.599121,102.172852,-13.73291,0,0
3885,2024 10 24,05:24:42.365,-0.159476,-0.701969,0.2474,-0.648537,-1.034211,-0.011719,-0.206061,83.496094,121.643066,-5.065918,0,0
3886,2024 10 24,05:24:42.373,-0.159476,-0.701969,0.2474,-0.648537,-1.034211,-0.011719,-0.206061,83.496094,121.643066,-5.065918,0,0
3887,2024 10 24,05:24:42.382,-0.157651,-0.696803,0.241168,-0.656848,-0.942412,-0.02002,0.168462,70.678711,110.290527,-7.324219,0,0
3888,2024 10 24,05:24:42.390,-0.156546,-0.692133,0.235629,-0.664021,-0.820338,-0.028809,0.169439,58.654785,91.61377,-9.58252,0,0
3889,2024 10 24,05:24:42.398,-0.155887,-0.68882,0.231472,-0.669064,-0.773461,-0.098636,0.333506,38.879395,62.438965,-9.277344,0,0
3890,2024 10 24,05:24:42.407,-0.156137,-0.686482,0.22889,-0.67229,-0.887722,0.115726,0.156743,19.226074,41.320801,-10.437012,0,0
3891,2024 10 24,05:24:42.415,-0.156202,-0.685244,0.226696,-0.674278,-0.966826,0.009278,0.089358,15.319824,24.963379,-11.71875,0,0
3892,2024 10 24,05:24:42.423,-0.156202,-0.685244,0.226696,-0.674278,-0.966826,0.009278,0.089358,15.319824,24.963379,-11.71875,0,0
3893,2024 10 24,05:24:42.432,-0.156757,-0.684527,0.224896,-0.675479,-1.000519,-0.014649,0.078616,11.59668,17.39502,-15.014648,0,0
3894,2024 10 24,05:24:42.440,-0.157713,-0.683952,0.223336,-0.676355,-0.98294,0.001953,0.08887,4.089355,15.441895,-16.174316,0,0
3895,2024 10 24,05:24:42.448,-0.158867,-0.683401,0.222083,-0.677056,-0.9888,0.010254,0.059572,0.671387,13.977051,-15.869141,0,0
3896,2024 10 24,05:24:42.457,-0.160161,-0.682883,0.220957,-0.677641,-0.985382,0.012207,0.072268,-1.342773,13.366699,-16.235352,0,0
3897,2024 10 24,05:24:42.465,-0.161503,-0.682321,0.219935,-0.678221,-0.979522,0.015625,0.097659,-2.624512,13.793945,-15.441895,0,0
3898,2024 10 24,05:24:42.473,-0.161503,-0.682321,0.219935,-0.678221,-0.979522,0.015625,0.097659,-2.624512,13.793945,-15.441895,0,0
3899,2024 10 24,05:24:42.482,-0.162813,-0.681751,0.21898,-0.67879,-0.981964,0.012207,0.107425,-2.563477,12.878418,-14.831543,0,0
3900,2024 10 24,05:24:42.490,-0.164108,-0.681227,0.21804,-0.679306,-0.971221,0.024415,0.115726,-2.319336,11.901855,-14.831543,0,0
3901,2024 10 24,05:24:42.498,-0.165388,-0.680799,0.217098,-0.679726,-0.972198,0.014649,0.114261,-2.746582,10.437012,-15.319824,0,0
3902,2024 10 24,05:24:42.507,-0.166704,-0.680489,0.216178,-0.680009,-0.98001,0.004883,0.102542,-2.929688,8.544922,-15.930176,0,0
3903,2024 10 24,05:24:42.515,-0.168109,-0.68028,0.215336,-0.680139,-0.962432,0.029786,0.135746,-4.699707,6.286621,-16.784668,0,0
3904,2024 10 24,05:24:42.523,-0.168109,-0.68028,0.215336,-0.680139,-0.962432,0.029786,0.135746,-4.699707,6.286621,-16.784668,0,0
3905,2024 10 24,05:24:42.532,-0.169377,-0.680174,0.214354,-0.680241,-0.945341,0.022462,0.144536,-1.708984,5.371094,-17.150879,0,0
3906,2024 10 24,05:24:42.540,-0.170543,-0.680266,0.21332,-0.680182,-0.940458,0.02295,0.148442,-1.281738,1.586914,-17.51709,0,0
3907,2024 10 24,05:24:42.548,-0.171569,-0.680514,0.212242,-0.680013,-0.947295,0.004883,0.1377,0.671387,0.183105,-17.150879,0,0
3908,2024 10 24,05:24:42.557,-0.172502,-0.680863,0.211122,-0.679776,-0.964385,-0.016114,0.095218,1.586914,-1.403809,-17.089844,0,0
3909,2024 10 24,05:24:42.565,-0.173436,-0.681322,0.210059,-0.679408,-0.960967,0.001953,0.118168,1.281738,-3.295898,-17.028809,0,0
3910,2024 10 24,05:24:42.573,-0.174253,-0.681793,0.208942,-0.679071,-0.967315,-0.01709,0.12598,2.258301,-2.258301,-16.601563,0,0
3911,2024 10 24,05:24:42.582,-0.174253,-0.681793,0.208942,-0.679071,-0.967315,-0.01709,0.12598,2.258301,-2.258301,-16.601563,0,0
3912,2024 10 24,05:24:42.590,-0.175128,-0.682183,0.20785,-0.678789,-0.963408,-0.009278,0.12598,2.13623,-1.953125,-16.479492,0,0
3913,2024 10 24,05:24:42.598,-0.175891,-0.682572,0.206735,-0.678541,-0.978057,-0.012696,0.124516,2.807617,-1.586914,-15.74707,0,0
3914,2024 10 24,05:24:42.607,-0.176619,-0.682844,0.205544,-0.678441,-0.98587,-0.009766,0.135746,4.02832,1.464844,-15.563965,0,0
3915,2024 10 24,05:24:42.615,-0.177361,-0.683026,0.204292,-0.678442,-0.998077,-0.015625,0.113773,4.089355,2.13623,-15.991211,0,0
3916,2024 10 24,05:24:42.623,-0.178165,-0.683149,0.202977,-0.678503,-1.003937,-0.016114,0.124027,4.455566,3.78418,-16.723633,0,0
3917,2024 10 24,05:24:42.632,-0.178165,-0.683149,0.202977,-0.678503,-1.003937,-0.016114,0.124027,4.455566,3.78418,-16.723633,0,0
3918,2024 10 24,05:24:42.640,-0.179013,-0.683203,0.201551,-0.67865,-1.011261,-0.005371,0.136235,5.249023,4.821777,-17.63916,0,0
3919,2024 10 24,05:24:42.648,-0.179932,-0.683204,0.19999,-0.678867,-1.02591,-0.012696,0.121586,5.126953,6.835938,-19.348145,0,0
3920,2024 10 24,05:24:42.657,-0.181034,-0.683174,0.198322,-0.679093,-1.020539,-0.012207,0.143559,4.699707,7.141113,-21.606445,0,0
3921,2024 10 24,05:24:42.665,-0.182318,-0.68318,0.196516,-0.67927,-1.030793,-0.015137,0.157231,4.455566,7.263184,-24.291992,0,0
3922,2024 10 24,05:24:42.673,-0.183775,-0.683177,0.194543,-0.679447,-1.043001,-0.020508,0.125004,3.356934,7.141113,-27.22168,0,0
3923,2024 10 24,05:24:42.682,-0.183775,-0.683177,0.194543,-0.679447,-1.043001,-0.020508,0.125004,3.356934,7.141113,-27.22168,0,0
3924,2024 10 24,05:24:42.690,-0.185485,-0.683285,0.192447,-0.679471,-1.063509,-0.050783,0.102542,3.417969,7.507324,-30.395508,0,0
3925,2024 10 24,05:24:42.698,-0.187606,-0.683308,0.190297,-0.679472,-1.083529,-0.04883,0.0918,-0.915527,8.178711,-34.240723,0,0
3926,2024 10 24,05:24:42.707,-0.190245,-0.683291,0.188128,-0.679359,-1.096713,-0.057131,0.093265,-5.187988,9.521484,-38.574219,0,0
3927,2024 10 24,05:24:42.715,-0.19349,-0.683218,0.185917,-0.679125,-1.112827,-0.054201,0.082034,-9.70459,10.131836,-44.006348,0,0
3928,2024 10 24,05:24:42.723,-0.197257,-0.6832,0.183578,-0.678695,-1.123081,-0.042482,0.123539,-13.305664,9.094238,-49.926758,0,0
3929,2024 10 24,05:24:42.732,-0.197257,-0.6832,0.183578,-0.678695,-1.123081,-0.042482,0.123539,-13.305664,9.094238,-49.926758,0,0
3930,2024 10 24,05:24:42.740,-0.201443,-0.683239,0.180933,-0.678136,-1.131871,-0.031739,0.138188,-12.878418,9.460449,-56.091309,0,0
3931,2024 10 24,05:24:42.748,-0.205855,-0.683413,0.177838,-0.677454,-1.164586,0.00293,0.173345,-10.437012,7.995605,-62.194824,0,0
3932,2024 10 24,05:24:42.757,-0.210369,-0.683854,0.174076,-0.676599,-1.188025,0.010254,0.1919,-5.79834,6.774902,-69.702148,0,0
3933,2024 10 24,05:24:42.765,-0.215023,-0.684571,0.169593,-0.675548,-1.212439,0.022462,0.194342,-0.427246,4.272461,-77.758789,0,0
3934,2024 10 24,05:24:42.773,-0.219831,-0.685734,0.164285,-0.674132,-1.279824,0.017579,0.273446,4.821777,0.366211,-88.012695,0,0
3935,2024 10 24,05:24:42.782,-0.219831,-0.685734,0.164285,-0.674132,-1.279824,0.017579,0.273446,4.821777,0.366211,-88.012695,0,0
3936,2024 10 24,05:24:42.790,-0.225067,-0.687007,0.15796,-0.672618,-1.363811,0.004395,0.132817,8.850098,3.356934,-100.463867,0,0
3937,2024 10 24,05:24:42.798,-0.231164,-0.688523,0.150712,-0.67066,-1.435591,-0.003418,0.125492,7.263184,1.708984,-117.004395,0,0
3938,2024 10 24,05:24:42.807,-0.238512,-0.689852,0.142411,-0.668533,-1.587939,0.006836,0.145024,4.760742,9.94873,-135.925293,0,0
3939,2024 10 24,05:24:42.815,-0.247372,-0.690658,0.132662,-0.666483,-1.759331,0.004883,0.037111,3.234863,20.019531,-159.484863,0,0
3940,2024 10 24,05:24:42.823,-0.258306,-0.690973,0.12144,-0.664144,-1.902402,0.131352,0.116703,-4.455566,30.029297,-189.086914,0,0
3941,2024 10 24,05:24:42.832,-0.258306,-0.690973,0.12144,-0.664144,-1.902402,0.131352,0.116703,-4.455566,30.029297,-189.086914,0,0
3942,2024 10 24,05:24:42.840,-0.270975,-0.690895,0.107917,-0.661506,-2.117252,0.227058,0.115726,-1.037598,38.818359,-223.327637,0,0
3943,2024 10 24,05:24:42.848,-0.285559,-0.690217,0.091494,-0.658548,-2.340404,0.256844,0.02002,5.249023,54.138184,-263.427734,0,0
3944,2024 10 24,05:24:42.857,-0.302355,-0.688726,0.071768,-0.655048,-2.564531,0.385754,-0.001465,9.94873,71.777344,-310.36377,0,0
3945,2024 10 24,05:24:42.865,-0.321413,-0.686242,0.048409,-0.650708,-2.939054,0.413587,0.076174,13.671875,86.303711,-360.900879,0,0
3946,2024 10 24,05:24:42.873,-0.342245,-0.682173,0.020565,-0.645821,-2.974212,0.376965,0.142094,27.648926,114.013672,-410.15625,0,0
3947,2024 10 24,05:24:42.882,-0.342245,-0.682173,0.020565,-0.645821,-2.974212,0.376965,0.142094,27.648926,114.013672,-410.15625,0,0
3948,2024 10 24,05:24:42.890,-0.364383,-0.676063,-0.011479,-0.640337,-2.850185,0.059084,0.125492,42.785645,137.512207,-453.918457,0,0
3949,2024 10 24,05:24:42.898,-0.387245,-0.669083,-0.046104,-0.632648,-3.023041,-0.127934,0.193365,51.940918,131.408691,-482.971191,0,0
3950,2024 10 24,05:24:42.907,-0.409894,-0.660847,-0.081183,-0.623441,-2.899503,0.079104,0.457533,48.278809,136.779785,-489.013672,0,1
3951,2024 10 24,05:24:42.915,-0.431374,-0.650579,-0.116123,-0.614148,-2.514725,0.25782,0.041505,46.936035,149.841309,-476.44043,0,0
3952,2024 10 24,05:24:42.923,-0.451286,-0.639468,-0.149213,-0.604282,-2.288644,0.384289,-0.00293,39.794922,142.272949,-459.106445,0,0
3953,2024 10 24,05:24:42.932,-0.451286,-0.639468,-0.149213,-0.604282,-2.288644,0.384289,-0.00293,39.794922,142.272949,-459.106445,0,0
3954,2024 10 24,05:24:42.940,-0.470785,-0.626915,-0.181376,-0.593668,-1.604541,0.651387,-0.46437,30.517578,142.089844,-457.397461,0,0
3955,2024 10 24,05:24:42.948,-0.490644,-0.614556,-0.211599,-0.580358,-1.15775,0.797876,-0.802271,19.775391,100.646973,-458.740234,0,0
3956,2024 10 24,05:24:42.957,-0.511387,-0.60315,-0.238514,-0.563741,-0.878933,0.888211,-0.595233,2.807617,51.269531,-454.162598,0,0
3957,2024 10 24,05:24:42.965,-0.532205,-0.592025,-0.26165,-0.545714,-0.593768,0.741234,-1.080111,-20.263672,21.179199,-427.55127,0,0
3958,2024 10 24,05:24:42.973,-0.551882,-0.581646,-0.277813,-0.529088,0.479507,0.503433,-0.826197,-63.842773,-16.052246,-341.430664,0,0
3959,2024 10 24,05:24:42.982,-0.551882,-0.581646,-0.277813,-0.529088,0.479507,0.503433,-0.826197,-63.842773,-16.052246,-341.430664,0,0
3960,2024 10 24,05:24:42.990,-0.565814,-0.573161,-0.281688,-0.521529,0.527848,1.439497,-0.546403,-112.731934,-17.883301,-126.586914,0,0
3961,2024 10 24,05:24:42.998,-0.570718,-0.569521,-0.274457,-0.524023,0.504898,1.23246,-0.420423,-110.656738,-27.709961,66.772461,0,0
3962,2024 10 24,05:24:43.007,-0.569898,-0.569354,-0.258201,-0.533277,0.154302,1.26664,-0.436537,-121.154785,-48.095703,202.880859,0,0
3963,2024 10 24,05:24:43.015,-0.564421,-0.57281,-0.236061,-0.54552,-0.212897,1.115268,-0.219733,-111.877441,-75.744629,282.226563,0,0
3964,2024 10 24,05:24:43.023,-0.555989,-0.578618,-0.211667,-0.55792,-0.420423,0.923368,-0.402356,-87.097168,-95.092773,308.47168,0,0
3965,2024 10 24,05:24:43.032,-0.546659,-0.585871,-0.18699,-0.56829,-0.548357,0.786157,-0.30665,-69.763184,-113.40332,299.072266,0,0
3966,2024 10 24,05:24:43.040,-0.546659,-0.585871,-0.18699,-0.56829,-0.548357,0.786157,-0.30665,-69.763184,-113.40332,299.072266,0,0
3967,2024 10 24,05:24:43.048,-0.537303,-0.593686,-0.163182,-0.576381,-0.626484,0.584979,-0.335948,-59.082031,-128.173828,278.503418,0,0
3968,2024 10 24,05:24:43.057,-0.528057,-0.601812,-0.139853,-0.582597,-0.661641,0.537614,-0.213385,-52.368164,-137.573242,266.845703,0,0
3969,2024 10 24,05:24:43.065,-0.518224,-0.609721,-0.116619,-0.588289,-0.668477,0.581561,-0.179693,-47.912598,-136.657715,270.385742,0,0
3970,2024 10 24,05:24:43.073,-0.507282,-0.617134,-0.092847,-0.594297,-0.698752,0.584979,-0.139653,-48.034668,-132.324219,284.667969,0,0
3971,2024 10 24,05:24:43.082,-0.495257,-0.623909,-0.068097,-0.600683,-0.706076,0.494156,-0.170904,-52.490234,-131.164551,300.292969,0,0
3972,2024 10 24,05:24:43.090,-0.495257,-0.623909,-0.068097,-0.600683,-0.706076,0.494156,-0.170904,-52.490234,-131.164551,300.292969,0,0
3973,2024 10 24,05:24:43.098,-0.482821,-0.630199,-0.041774,-0.60662,-0.673849,0.43556,-0.188971,-64.941406,-143.005371,310.180664,0,0
3974,2024 10 24,05:24:43.107,-0.470498,-0.636192,-0.013531,-0.611317,-0.730979,0.36671,-0.149419,-81.481934,-161.071777,315.246582,0,0
3975,2024 10 24,05:24:43.115,-0.458743,-0.641833,0.016501,-0.614274,-0.894559,0.333506,-0.08594,-99.487305,-182.006836,313.415527,0,0
3976,2024 10 24,05:24:43.123,-0.447714,-0.647014,0.047894,-0.61533,-1.090365,0.331065,0.028809,-115.905762,-197.937012,307.189941,0,0
3977,2024 10 24,05:24:43.132,-0.437407,-0.651449,0.080199,-0.614702,-1.261757,0.391125,0.123051,-132.446289,-209.899902,300.476074,0,0
3978,2024 10 24,05:24:43.140,-0.437407,-0.651449,0.080199,-0.614702,-1.261757,0.391125,0.123051,-132.446289,-209.899902,300.476074,0,0
3979,2024 10 24,05:24:43.148,-0.427396,-0.654984,0.113053,-0.612819,-1.429731,0.448256,0.24659,-142.211914,-212.524414,297.546387,0,0
3980,2024 10 24,05:24:43.157,-0.417216,-0.657427,0.14609,-0.610228,-1.529344,0.516129,0.357921,-147.033691,-212.158203,298.828125,0,0
3981,2024 10 24,05:24:43.165,-0.406388,-0.65891,0.179253,-0.607087,-1.614307,0.627949,0.502945,-146.911621,-212.524414,303.649902,0,0
3982,2024 10 24,05:24:43.173,-0.394383,-0.659601,0.212248,-0.603606,-1.704642,0.674337,0.566912,-139.892578,-211.914063,310.791016,0,0
3983,2024 10 24,05:24:43.182,-0.380909,-0.659813,0.244817,-0.599683,-1.874569,0.691916,0.618671,-129.02832,-214.84375,316.28418,0,0
3984,2024 10 24,05:24:43.190,-0.380909,-0.659813,0.244817,-0.599683,-1.874569,0.691916,0.618671,-129.02832,-214.84375,316.28418,0,0
3985,2024 10 24,05:24:43.198,-0.366263,-0.659579,0.276786,-0.595144,-1.996155,0.535173,0.632832,-120.361328,-217.468262,318.115234,0,0
3986,2024 10 24,05:24:43.207,-0.35085,-0.658704,0.308563,-0.589747,-2.190496,0.261238,0.493179,-121.643066,-222.412109,322.998047,0,0
3987,2024 10 24,05:24:43.215,-0.335216,-0.657003,0.340635,-0.583048,-2.37849,-0.012207,0.592303,-132.019043,-228.149414,324.768066,0,0
3988,2024 10 24,05:24:43.223,-0.320252,-0.654395,0.372597,-0.574784,-2.520097,-0.318857,0.709983,-147.277832,-231.445313,316.650391,0,0
3989,2024 10 24,05:24:43.232,-0.306643,-0.651048,0.403904,-0.564772,-2.700278,-0.597674,0.910184,-162.719727,-232.055664,299.743652,0,0
3990,2024 10 24,05:24:43.240,-0.306643,-0.651048,0.403904,-0.564772,-2.700278,-0.597674,0.910184,-162.719727,-232.055664,299.743652,0,0
3991,2024 10 24,05:24:43.248,-0.294734,-0.647191,0.433651,-0.553374,-2.88876,-0.824732,1.256874,-171.447754,-225.219727,274.780273,0,0
3992,2024 10 24,05:24:43.257,-0.285013,-0.642508,0.460809,-0.541854,-2.872646,-1.089877,1.53325,-173.339844,-198.486328,246.948242,0,0
3993,2024 10 24,05:24:43.265,-0.277864,-0.636801,0.484945,-0.531135,-2.490799,-1.327189,1.686087,-171.081543,-164.18457,218.017578,0,0
3994,2024 10 24,05:24:43.273,-0.2724,-0.631375,0.506011,-0.520689,-1.99762,-1.441939,2.022523,-159.667969,-151.611328,184.143066,0,0
3995,2024 10 24,05:24:43.282,-0.267693,-0.627384,0.523527,-0.510539,-1.627979,-1.546434,2.548906,-134.155273,-143.310547,145.935059,0,0
3996,2024 10 24,05:24:43.290,-0.267693,-0.627384,0.523527,-0.510539,-1.627979,-1.546434,2.548906,-134.155273,-143.310547,145.935059,0,0
3997,2024 10 24,05:24:43.298,-0.263361,-0.624871,0.5369,-0.501913,-1.509812,-1.8399,2.963469,-96.191406,-124.816895,111.694336,0,0
3998,2024 10 24,05:24:43.307,-0.259474,-0.62308,0.545783,-0.496554,-1.783257,-2.578692,3.040132,-49.560547,-85.449219,86.853027,0,0
3999,2024 10 24,05:24:43.315,-0.257566,-0.621015,0.549879,-0.495614,-1.905332,-3.16953,2.748131,-11.169434,-19.592285,57.434082,0,0
4000,2024 10 24,05:24:43.323,-0.259607,-0.618717,0.548805,-0.498605,-1.445357,-3.290628,2.053285,11.291504,49.621582,8.850098,0,0
4001,2024 10 24,05:24:43.332,-0.264937,-0.617963,0.543993,-0.501998,-1.731498,-2.860439,1.029328,11.413574,63.659668,-45.532227,0,0
4002,2024 10 24,05:24:43.340,-0.264937,-0.617963,0.543993,-0.501998,-1.731498,-2.860439,1.029328,11.413574,63.659668,-45.532227,0,0
4003,2024 10 24,05:24:43.348,-0.279665,-0.628215,0.538246,-0.487261,-2.056215,-0.83694,6.301462,-125.732422,-89.355469,-272.399902,1,0
4004,2024 10 24,05:24:43.356,-0.312096,-0.619913,0.523221,-0.494514,0.743675,1.42143,-4.23841,-158.02002,405.883789,-211.791992,0,0
4005,2024 10 24,05:24:43.365,-0.323103,-0.62733,0.519353,-0.48201,-2.073794,0.953154,1.024445,-148.010254,-150.20752,-180.358887,0,0
4006,2024 10 24,05:24:43.373,-0.332684,-0.632523,0.511325,-0.477267,-2.021058,0.129887,1.31254,25.390625,111.26709,-149.230957,0,0
4007,2024 10 24,05:24:43.381,-0.341178,-0.633887,0.494786,-0.486797,-1.130406,-0.633808,-0.864284,80.444336,145.812988,-136.779785,0,0
4008,2024 10 24,05:24:43.390,-0.341178,-0.633887,0.494786,-0.486797,-1.130406,-0.633808,-0.864284,80.444336,145.812988,-136.779785,0,0
4009,2024 10 24,05:24:43.398,-0.348831,-0.635843,0.481818,-0.491804,-1.340373,0.010743,0.733421,63.964844,132.751465,-117.797852,0,0
4010,2024 10 24,05:24:43.406,-0.35386,-0.63585,0.467253,-0.502149,-0.806665,-0.153813,-0.321787,101.867676,150.32959,-86.425781,0,0
4011,2024 10 24,05:24:43.415,-0.357124,-0.636412,0.455941,-0.509471,-1.067415,-0.077151,0.361339,79.650879,110.168457,-69.946289,0,0
4012,2024 10 24,05:24:43.423,-0.360761,-0.635539,0.445357,-0.5173,-0.881863,-0.154302,-0.219733,69.396973,120.727539,-57.434082,0,0
4013,2024 10 24,05:24:43.431,-0.364058,-0.634065,0.437813,-0.523205,-0.970733,0.004883,0.017579,39.306641,94.177246,-37.231445,0,0
4014,2024 10 24,05:24:43.440,-0.366686,-0.632086,0.431431,-0.529033,-0.910184,-0.04297,-0.005371,37.902832,92.956543,-25.45166,0,0
4015,2024 10 24,05:24:43.448,-0.366686,-0.632086,0.431431,-0.529033,-0.910184,-0.04297,-0.005371,37.902832,92.956543,-25.45166,0,0
4016,2024 10 24,05:24:43.456,-0.369342,-0.629849,0.426239,-0.534038,-0.89993,0.042482,0.056642,24.597168,80.566406,-20.446777,0,0
4017,2024 10 24,05:24:43.465,-0.371596,-0.627629,0.421936,-0.538487,-0.89993,-0.011231,0.086917,19.65332,71.899414,-13.793945,0,0
4018,2024 10 24,05:24:43.473,-0.373613,-0.625658,0.418463,-0.542083,-0.940458,0.023927,0.089358,14.831543,57.861328,-12.573242,0,0
4019,2024 10 24,05:24:43.481,-0.375397,-0.62415,0.415526,-0.544842,-0.947295,0.023438,0.062502,12.207031,45.898438,-13.427734,0,0
4020,2024 10 24,05:24:43.490,-0.376897,-0.623164,0.412939,-0.546897,-0.994659,0.049806,0.047853,10.253906,36.437988,-14.953613,0,0
4021,2024 10 24,05:24:43.498,-0.376897,-0.623164,0.412939,-0.546897,-0.994659,0.049806,0.047853,10.253906,36.437988,-14.953613,0,0
4022,2024 10 24,05:24:43.506,-0.378315,-0.622406,0.410377,-0.548707,-1.053743,0.004395,-0.085452,10.070801,35.15625,-16.357422,0,0
4023,2024 10 24,05:24:43.515,-0.379928,-0.621728,0.408052,-0.550093,-0.994171,0.009766,0.013672,6.164551,29.846191,-17.578125,0,0
4024,2024 10 24,05:24:43.523,-0.381562,-0.620982,0.405916,-0.551383,-0.981964,-0.00293,0.008789,4.150391,30.761719,-16.113281,0,0
4025,2024 10 24,05:24:43.531,-0.383176,-0.620185,0.403995,-0.55257,-1.000519,-0.000488,-0.00293,1.831055,27.954102,-14.892578,0,0
4026,2024 10 24,05:24:43.540,-0.384812,-0.619339,0.402251,-0.553655,-0.993194,-0.00293,0.017579,0.183105,28.137207,-13.977051,0,0
4027,2024 10 24,05:24:43.548,-0.384812,-0.619339,0.402251,-0.553655,-0.993194,-0.00293,0.017579,0.183105,28.137207,-13.977051,0,0
4028,2024 10 24,05:24:43.556,-0.386512,-0.618362,0.400668,-0.554709,-0.976592,-0.004395,0.044923,-2.319336,27.587891,-12.634277,0,0
4029,2024 10 24,05:24:43.565,-0.388189,-0.61731,0.399244,-0.555735,-0.974639,-0.004395,0.043947,-2.380371,26.977539,-11.230469,0,0
4030,2024 10 24,05:24:43.573,-0.389782,-0.616273,0.397885,-0.556745,-0.978545,0.004883,0.036622,-2.075195,26.062012,-10.681152,0,0
4031,2024 10 24,05:24:43.581,-0.39127,-0.615239,0.396546,-0.557799,-0.987823,0.009766,0.04004,-1.403809,26.672363,-9.887695,0,0
4032,2024 10 24,05:24:43.590,-0.392701,-0.614251,0.395165,-0.558862,-1.006867,0.003418,0.018067,-1.586914,25.57373,-9.94873,0,0
4033,2024 10 24,05:24:43.598,-0.392701,-0.614251,0.395165,-0.558862,-1.006867,0.003418,0.018067,-1.586914,25.57373,-9.94873,0,0
4034,2024 10 24,05:24:43.606,-0.39415,-0.61327,0.393717,-0.55994,-1.007843,-0.008789,0.012207,0.427246,26.855469,-10.559082,0,0
4035,2024 10 24,05:24:43.615,-0.395633,-0.61223,0.392193,-0.5611,-0.969268,0.00586,0.074221,-0.12207,28.259277,-10.375977,0,0
4036,2024 10 24,05:24:43.623,-0.397017,-0.611218,0.390607,-0.56233,-0.953154,0.010254,0.057619,1.586914,27.404785,-10.253906,0,0
4037,2024 10 24,05:24:43.631,-0.398304,-0.610338,0.389039,-0.563462,-0.973174,0.004883,0.102054,1.159668,25.57373,-10.498047,0,0
4038,2024 10 24,05:24:43.640,-0.399609,-0.609431,0.387424,-0.564633,-0.999054,0.001953,0.039552,2.197266,26.733398,-10.864258,0,0
4039,2024 10 24,05:24:43.648,-0.399609,-0.609431,0.387424,-0.564633,-0.999054,0.001953,0.039552,2.197266,26.733398,-10.864258,0,0
4040,2024 10 24,05:24:43.656,-0.400957,-0.608551,0.385837,-0.56571,-0.966338,-0.018067,0.082522,0.793457,25.817871,-11.291504,0,0
4041,2024 10 24,05:24:43.665,-0.402369,-0.607629,0.384258,-0.566774,-0.976104,-0.050295,0.119144,0.854492,26.245117,-11.474609,0,0
4042,2024 10 24,05:24:43.673,-0.403846,-0.606722,0.382695,-0.567751,-0.982452,0.004395,0.099612,-0.854492,25.32959,-12.329102,0,0
4043,2024 10 24,05:24:43.681,-0.405245,-0.605883,0.381046,-0.568759,-0.993683,-0.009766,0.08301,2.685547,25.817871,-12.817383,0,0
4044,2024 10 24,05:24:43.690,-0.406666,-0.605093,0.379363,-0.56971,-0.989288,-0.011719,0.093265,1.831055,25.268555,-13.549805,0,0
4045,2024 10 24,05:24:43.698,-0.406666,-0.605093,0.379363,-0.56971,-0.989288,-0.011719,0.093265,1.831055,25.268555,-13.549805,0,0
4046,2024 10 24,05:24:43.706,-0.408032,-0.604427,0.377579,-0.570624,-0.992218,-0.016602,0.133793,3.479004,23.803711,-14.648438,0,0
4047,2024 10 24,05:24:43.715,-0.409383,-0.603838,0.375671,-0.571539,-1.006867,-0.000977,0.085452,4.699707,24.169922,-15.808105,0,0
4048,2024 10 24,05:24:43.723,-0.410652,-0.603452,0.373715,-0.572318,-1.029328,-0.020997,0.104495,6.164551,21.484375,-17.456055,0,0
4049,2024 10 24,05:24:43.731,-0.41207,-0.603128,0.371655,-0.572982,-1.020051,-0.020508,0.08887,4.821777,22.155762,-19.897461,0,0
4050,2024 10 24,05:24:43.740,-0.413642,-0.602925,0.369572,-0.573409,-1.047395,-0.030274,0.127445,3.90625,19.775391,-22.888184,0,0
4051,2024 10 24,05:24:43.748,-0.413642,-0.602925,0.369572,-0.573409,-1.047395,-0.030274,0.127445,3.90625,19.775391,-22.888184,0,0
4052,2024 10 24,05:24:43.756,-0.415455,-0.602826,0.367465,-0.573556,-1.055208,-0.024903,0.113285,2.441406,18.371582,-26.306152,0,0
4053,2024 10 24,05:24:43.765,-0.417394,-0.602932,0.365247,-0.573455,-1.032258,-0.0459,0.117191,0.244141,16.357422,-30.395508,0,0
4054,2024 10 24,05:24:43.773,-0.419586,-0.603164,0.362962,-0.573062,-1.039094,-0.028809,0.140629,-0.488281,14.709473,-34.240723,0,0
4055,2024 10 24,05:24:43.781,-0.421941,-0.603547,0.360633,-0.572399,-1.055696,-0.050783,0.093753,-2.746582,12.573242,-37.658691,0,0
4056,2024 10 24,05:24:43.790,-0.424584,-0.604037,0.358227,-0.571438,-1.109409,-0.041017,0.114261,-5.004883,11.901855,-42.236328,0,0
4057,2024 10 24,05:24:43.798,-0.424584,-0.604037,0.358227,-0.571438,-1.109409,-0.041017,0.114261,-5.004883,11.901855,-42.236328,0,0
4058,2024 10 24,05:24:43.806,-0.42764,-0.604533,0.355628,-0.570257,-1.137242,-0.021973,0.172857,-6.958008,13.793945,-47.607422,0,0
4059,2024 10 24,05:24:43.815,-0.431094,-0.60502,0.352674,-0.568972,-1.133335,-0.036134,0.10596,-7.324219,15.563965,-53.344727,0,0
4060,2024 10 24,05:24:43.823,-0.434899,-0.60574,0.349533,-0.567246,-1.189001,-0.023927,0.138188,-10.070801,13.366699,-60.72998,0,0
4061,2024 10 24,05:24:43.831,-0.43922,-0.606554,0.34606,-0.565173,-1.261269,-0.043947,0.097659,-11.779785,14.770508,-68.664551,0,0
4062,2024 10 24,05:24:43.840,-0.444147,-0.607516,0.34216,-0.562658,-1.291055,-0.055177,0.094729,-13.916016,15.258789,-78.613281,0,0
4063,2024 10 24,05:24:43.848,-0.444147,-0.607516,0.34216,-0.562658,-1.291055,-0.055177,0.094729,-13.916016,15.258789,-78.613281,0,0
4064,2024 10 24,05:24:43.856,-0.449665,-0.60864,0.337671,-0.559765,-1.306192,-0.034181,0.072268,-15.869141,16.723633,-89.72168,0,0
4065,2024 10 24,05:24:43.865,-0.455715,-0.610017,0.332565,-0.55642,-1.400433,-0.016602,0.150395,-14.587402,16.845703,-100.708008,0,0
4066,2024 10 24,05:24:43.873,-0.462554,-0.611502,0.326497,-0.552729,-1.522996,0.012696,0.094729,-14.587402,24.414063,-116.455078,0,0
4067,2024 10 24,05:24:43.881,-0.470212,-0.613325,0.319098,-0.548552,-1.687063,0.012207,0.019044,-12.878418,26.794434,-136.962891,0,0
4068,2024 10 24,05:24:43.890,-0.479057,-0.615583,0.310292,-0.543397,-1.922422,0.015137,0.056154,-13.549805,31.677246,-162.841797,0,0
4069,2024 10 24,05:24:43.898,-0.48976,-0.617854,0.299357,-0.537379,-2.125065,0.043947,-0.116214,-18.005371,45.776367,-196.594238,0,0
4070,2024 10 24,05:24:43.906,-0.48976,-0.617854,0.299357,-0.537379,-2.125065,0.043947,-0.116214,-18.005371,45.776367,-196.594238,0,0
4071,2024 10 24,05:24:43.915,-0.502644,-0.620091,0.28601,-0.530126,-2.332102,0.136723,-0.112796,-21.66748,57.922363,-236.694336,0,0
4072,2024 10 24,05:24:43.923,-0.517591,-0.622663,0.269678,-0.521214,-2.612384,0.279305,-0.049318,-19.714355,67.749023,-284.484863,0,0
4073,2024 10 24,05:24:43.931,-0.534563,-0.625645,0.249498,-0.510452,-2.964446,0.49855,-0.085452,-16.052246,84.106445,-339.660645,0,0
4074,2024 10 24,05:24:43.940,-0.553088,-0.628948,0.224354,-0.498179,-3.124119,0.347179,-0.014649,4.943848,107.299805,-397.644043,0,0
4075,2024 10 24,05:24:43.948,-0.573269,-0.632067,0.194522,-0.483752,-2.959563,0.325205,-0.264168,7.629395,125.244141,-452.758789,0,0
4076,2024 10 24,05:24:43.956,-0.573269,-0.632067,0.194522,-0.483752,-2.959563,0.325205,-0.264168,7.629395,125.244141,-452.758789,0,0
