frame,date,time,quaternion_x_left,quaternion_y_left,quaternion_z_left,quaternion_w_left,accel_x_left,accel_y_left,accel_z_left,gyro_x_left,gyro_y_left,gyro_z_left,HS_left,TO_left,filtered_quaternion_x_left,filtered_quaternion_y_left,filtered_quaternion_z_left,filtered_quaternion_w_left,filtered_accel_x_left,filtered_accel_y_left,filtered_accel_z_left,filtered_gyro_x_left,filtered_gyro_y_left,filtered_gyro_z_left,quaternion_x_right,quaternion_y_right,quaternion_z_right,quaternion_w_right,accel_x_right,accel_y_right,accel_z_right,gyro_x_right,gyro_y_right,gyro_z_right,HS_right,TO_right,filtered_quaternion_x_right,filtered_quaternion_y_right,filtered_quaternion_z_right,filtered_quaternion_w_right,filtered_accel_x_right,filtered_accel_y_right,filtered_accel_z_right,filtered_gyro_x_right,filtered_gyro_y_right,filtered_gyro_z_right
3510,2024 8 08,15:40:38.653,0.727971,0.118144,-0.614823,0.279452,-0.949215,-0.244127,-0.096421,-0.315103,0.463132,-0.455757,0,0,0.727971,0.118144,-0.614823,0.279452,-0.949215,-0.244127,-0.096421,-0.315103,0.463132,-0.455757,0.662861,0.418522,-0.527779,0.32696,-1.038161,-0.130067,0.011744,-0.309537,0.532578,0.247926,0,0,0.662861,0.418522,-0.527779,0.32696,-1.038161,-0.130067,0.011744,-0.309537,0.532578,0.247926
3511,2024 8 08,15:40:38.661,0.7279,0.118094,-0.614903,0.279481,-0.948873,-0.246712,-0.090379,-0.261768,0.482034,-0.617825,0,0,0.72796745,0.1181415,-0.614827,0.27945345,-0.9491979,-0.24425625,-0.0961189,-0.31243625,0.4640770999999999,-0.4638604,0.662858,0.41825,-0.527877,0.327157,-1.037742,-0.129981,0.011725,-0.306259,0.486879,0.263689,0,0,0.66286085,0.4185084,-0.5277839,0.3269698499999999,-1.0381400499999998,-0.1300626999999999,0.0117430499999999,-0.3093731,0.5302930499999999,0.24871415
3512,2024 8 08,15:40:38.670,0.727829,0.118035,-0.614986,0.279508,-0.949877,-0.248435,-0.088532,-0.384689,0.441336,-0.657612,0,0,0.7279605275,0.1181361749999999,-0.61483495,0.2794561774999999,-0.9492318549999998,-0.2444651875,-0.0957395549999999,-0.3160488875,0.4629400449999999,-0.47354798,0.662844,0.418198,-0.527913,0.327195,-1.03954,-0.130078,0.012015,-0.305454,0.366592,0.397444,0,0,0.6628600075,0.4184928799999999,-0.5277903549999999,0.3269811074999999,-1.0382100474999998,-0.1300634649999999,0.0117566474999999,-0.309177145,0.5221079974999998,0.2561506425
3513,2024 8 08,15:40:38.678,0.727764,0.117968,-0.615065,0.27953,-0.948339,-0.250307,-0.095951,-0.460752,0.386176,-0.533281,0,0,0.7279507011249999,0.1181277662499999,-0.6148464524999999,0.2794598686249999,-0.9491872122499998,-0.244757278125,-0.0957501272499999,-0.323284043125,0.45910184275,-0.4765346309999999,0.662816,0.418139,-0.527969,0.327237,-1.03838,-0.128959,0.013949,-0.317369,0.130118,0.521075,0,0,0.6628578071249999,0.4184751859999999,-0.5277992872499999,0.3269939021249999,-1.0382185451249997,-0.1300082417499999,0.0118662651249999,-0.30958673775,0.5025084976249998,0.269396860375
3514,2024 8 08,15:40:38.686,0.727747,0.11795,-0.615086,0.279537,-0.947935,-0.250798,-0.0979,-0.480735,0.371684,-0.500617,0,0,0.72794051606875,0.1181188779374999,-0.614858429875,0.2794637251937499,-0.9491246016374998,-0.24505931421875,-0.0958576208874999,-0.33115659096875,0.4547309506124999,-0.4777387494499999,0.662777,0.418081,-0.528038,0.327279,-1.039751,-0.129182,0.013978,-0.397126,-0.008635,0.630182,0,0,0.6628537667687497,0.4184554766999999,-0.5278112228874998,0.3270081570187499,-1.0382951678687498,-0.1299669296624999,0.01197185186875,-0.3139637008625,0.4769513227437498,0.2874361173562499
3515,2024 8 08,15:40:38.695,0.727696,0.117908,-0.615146,0.279556,-0.943971,-0.24793,-0.095464,-0.267132,0.41156,-0.44796,0,0,0.7279282902653125,0.1181083340406249,-0.6148728083812499,0.2794683389340623,-0.9488669215556248,-0.2452028485078125,-0.0958379398431249,-0.3279553614203124,0.4525724030818749,-0.4762498119774998,0.662735,0.418016,-0.528117,0.327319,-1.041364,-0.128447,0.010671,-0.424665,-0.046242,0.6716,0,0,0.6628478284303123,0.4184335028649999,-0.5278265117431248,0.3270236991678124,-1.0384486094753125,-0.1298909331793749,0.0119068092753125,-0.3194987658193749,0.4507916566065623,0.3066443114884374
3516,2024 8 08,15:40:38.703,0.727627,0.117873,-0.615226,0.279574,-0.945983,-0.245914,-0.093543,-0.2075,0.595952,-0.303315,0,0,0.7279132257520468,0.1180965673385937,-0.6148904679621874,0.2794736219873592,-0.9487227254778434,-0.2452384060824218,-0.0957231928509687,-0.3219325933492968,0.4597413829277811,-0.4676030713786248,0.662695,0.417955,-0.528192,0.327357,-1.043911,-0.127043,0.007949,-0.469812,-0.05674,0.758079,0,0,0.6628401870087967,0.4184095777217499,-0.5278447861559685,0.3270403642094218,-1.0387217290015467,-0.1297485365204062,0.0117089188115468,-0.3270144275284061,0.4254150737762341,0.3292160459140156
3517,2024 8 08,15:40:38.711,0.727555,0.117834,-0.615317,0.279578,-0.946904,-0.248787,-0.096089,-0.361728,0.691733,-0.218946,0,0,0.7278953144644443,0.118083438971664,-0.614911794564078,0.2794788408879913,-0.9486317892039512,-0.2454158357783007,-0.0957414832084203,-0.323922363681832,0.471340963781392,-0.4551702178096935,0.662679,0.417931,-0.528223,0.32737,-1.044597,-0.126594,0.007353,-0.494359,-0.082923,0.771325,0,0,0.6628321276583568,0.4183856488356624,-0.5278636968481701,0.3270568459989507,-1.0390154925514692,-0.1295908096943858,0.0114911228709695,-0.3353816561519858,0.3999981700874224,0.3513214936183148
3518,2024 8 08,15:40:38.720,0.727481,0.117804,-0.615406,0.279588,-0.948531,-0.248279,-0.090061,-0.237731,0.719979,-0.194066,0,0,0.7278745987412222,0.1180694670230808,-0.614936504835874,0.2794842988435917,-0.9486267497437536,-0.2455589939893857,-0.0954574590479992,-0.3196127954977404,0.4837728655923223,-0.4421150069192088,0.662643,0.417877,-0.528299,0.327389,-1.04446,-0.126305,0.00835,-0.56915,-0.242937,0.707678,0,0,0.6628226712754389,0.4183602163938792,-0.5278854620057617,0.3270734536990031,-1.0392877179238955,-0.1294265192096665,0.011334066727421,-0.3470700733443865,0.3678514115830513,0.3691393189373991
3519,2024 8 08,15:40:38.728,0.727404,0.117781,-0.615494,0.279604,-0.947347,-0.247119,-0.092931,-0.116395,0.644699,-0.270364,0,0,0.7278510688041611,0.1180550436719267,-0.6149643795940803,0.2794902839014121,-0.9485627622565658,-0.2456369942899164,-0.0953311360955993,-0.3094519057228533,0.4918191723127062,-0.4335274565732483,0.662599,0.417813,-0.528389,0.327414,-1.044355,-0.127088,0.008289,-0.544196,-0.327588,0.690667,0,0,0.6628114877116669,0.4183328555741853,-0.5279106389054736,0.3270904810140529,-1.039541082027701,-0.1293095932491832,0.01118181339105,-0.3569263696771672,0.3330794410038987,0.3852157029905291
3520,2024 8 08,15:40:38.736,0.727325,0.117748,-0.615589,0.279614,-0.949302,-0.247754,-0.094485,-0.078786,0.621365,-0.294014,0,0,0.727824765363953,0.1180396914883304,-0.6149956106143764,0.2794964697063415,-0.9485997241437376,-0.2457428445754205,-0.0952888292908193,-0.2979186104367106,0.4982964636970709,-0.4265517837445859,0.662556,0.417759,-0.528477,0.327428,-1.045308,-0.072014,0.021899,-0.470352,-0.370646,0.464639,0,0,0.6627987133260835,0.418304162795476,-0.5279389569602,0.3271073569633503,-1.0398294279263158,-0.1264448135867241,0.0117176727214974,-0.3625976511933089,0.2978931689537037,0.3891868678410027
3521,2024 8 08,15:40:38.745,0.7273,0.117738,-0.615619,0.279617,-0.949922,-0.247956,-0.094977,-0.313013,0.696015,-0.26049,0,0,0.7277985270957553,0.1180246069139139,-0.6150267800836575,0.2795024962210244,-0.9486658379365506,-0.2458535023466495,-0.0952732378262783,-0.2986733299148751,0.5081823905122174,-0.4182486945573566,0.662504,0.417717,-0.528569,0.327439,-1.042551,-0.126201,0.014875,-0.443572,-0.501839,0.357451,0,0,0.6627839776597793,0.4182748046557021,-0.52797045911219,0.3271239391151828,-1.03996550653,-0.1264326229073879,0.0118755390854226,-0.3666463686336434,0.2579065605060185,0.3876000744489525
3522,2024 8 08,15:40:38.753,0.727234,0.117704,-0.615699,0.279627,-0.949473,-0.247372,-0.091565,-0.3078,0.801426,-0.371408,0,0,0.7277703007409676,0.1180085765682182,-0.6150603910794746,0.2795087214099732,-0.9487061960397232,-0.245929427229317,-0.0950878259349644,-0.2991296634191313,0.5228445709866065,-0.4159066598294887,0.662448,0.417693,-0.528652,0.327447,-1.040252,-0.124755,0.015374,-0.189128,-0.614614,0.32268,0,0,0.6627671787767903,0.418245714422917,-0.5280045361565805,0.3271400921594236,-1.0399798312035,-0.1263487417620185,0.0120504621311514,-0.3577704502019612,0.2142805324807176,0.3843540707265049
3523,2024 8 08,15:40:38.761,0.727131,0.117627,-0.615824,0.279653,-0.947998,-0.246664,-0.098217,-0.51398,0.645126,-0.687592,0,0,0.7277383357039192,0.1179894977398073,-0.6150985715255008,0.2795159353394745,-0.9486707862377368,-0.2459661558678512,-0.0952442846382162,-0.3098721802481747,0.5289586424372762,-0.4294909268380143,0.66242,0.417682,-0.528694,0.327451,-1.039107,-0.124035,0.015623,-0.062464,-0.670753,0.305371,0,0,0.6627498198379507,0.4182175287017711,-0.5280390093487515,0.3271556375514524,-1.039936189643325,-0.1262330546739175,0.0122290890245939,-0.3430051276918631,0.1700288558566817,0.3804049171901796
3524,2024 8 08,15:40:38.770,0.727042,0.117547,-0.615925,0.279695,-0.952723,-0.237957,-0.095464,-0.445598,0.76545,-1.039612,0,0,0.7277035189187232,0.1179673728528169,-0.6151398929492258,0.2795248885725007,-0.94887339692585,-0.2455656980744586,-0.0952552704063054,-0.316658471235766,0.5407832103154124,-0.4599969804961136,0.662338,0.417685,-0.528785,0.327465,-1.042898,-0.126405,0.007543,0.057788,-0.849661,0.18632,0,0,0.6627292288460531,0.4181909022666825,-0.5280763088813138,0.3271711056738798,-1.0400842801611587,-0.1262416519402217,0.0119947845733642,-0.3229654713072699,0.1190443630638476,0.3707006713306706
3525,2024 8 08,15:40:38.778,0.726943,0.117404,-0.616053,0.27973,-0.948745,-0.242881,-0.101239,-1.541635,0.842929,-1.602413,0,0,0.727665492972787,0.117939204210176,-0.6151855483017645,0.2795351441438757,-0.9488669770795576,-0.2454314631707356,-0.0955544568859901,-0.3779072976739777,0.5558904997996419,-0.5171177814713079,0.662261,0.417694,-0.528874,0.327467,-1.03925,-0.123188,0.015294,-0.056167,-0.854294,0.066168,0,0,0.6627058174037505,0.4181660571533483,-0.5281161934372481,0.3271859003901858,-1.0400425661531008,-0.1260889693432106,0.012159745344696,-0.3096255477419064,0.0703774449106552,0.3554740377641371
3526,2024 8 08,15:40:38.786,0.726817,0.117213,-0.616225,0.27976,-0.948235,-0.248068,-0.086512,-1.707541,1.352534,-1.852704,0,0,0.7276230683241477,0.1179028939996672,-0.6152375208866763,0.2795463869366819,-0.9488353782255796,-0.2455632900121988,-0.0951023340416906,-0.4443889827902788,0.5957226748096598,-0.5838970923977426,0.662163,0.417733,-0.528977,0.32745,-1.040487,-0.126749,0.012839,0.112229,-1.431132,0.003654,0,0,0.6626786765335629,0.4181444042956809,-0.5281592337653856,0.3271991053706765,-1.0400647878454456,-0.12612197087605,0.0121937080774612,-0.2885328203548111,-0.0046980273348775,0.3378830358759302
3527,2024 8 08,15:40:38.795,0.726793,0.117178,-0.616257,0.279766,-0.948269,-0.248965,-0.083252,-1.708885,1.45709,-1.889371,0,0,0.7275815649079402,0.1178666492996838,-0.6152884948423424,0.2795573675898478,-0.9488070593143004,-0.2457333755115889,-0.094509817339606,-0.5076137836507648,0.6387910410691768,-0.6491707877778554,0.662043,0.417782,-0.529105,0.327422,-1.05101,-0.125124,0.010433,0.121391,-1.689801,0.000252,0,0,0.6626468927068848,0.4181262840808968,-0.5282065220771164,0.3272102501021426,-1.0406120484531731,-0.1260720723322475,0.0121056726735881,-0.2680366293370705,-0.0889531759681336,0.3210014840821336
3528,2024 8 08,15:40:38.803,0.726684,0.117013,-0.616405,0.279791,-0.943622,-0.249413,-0.097753,-1.708976,1.318916,-1.988724,0,0,0.7275366866625432,0.1178239668346996,-0.6153443201002252,0.2795690492103554,-0.9485478063485854,-0.2459173567360094,-0.0946719764726257,-0.5676818944682266,0.6727972890157179,-0.7161484483889626,0.661935,0.417831,-0.529213,0.327403,-1.049037,-0.127254,0.008477,0.234017,-1.25939,-0.111982,0,0,0.6626112980715405,0.4181115198768519,-0.5282568459732605,0.3272198875970354,-1.0410332960305146,-0.1261311687156351,0.0119242390399087,-0.242933947870217,-0.1474750171697269,0.2993523098780269
3529,2024 8 08,15:40:38.811,0.72654,0.116821,-0.616599,0.279817,-0.945965,-0.253329,-0.093181,-1.708984,1.619475,-1.820767,0,0,0.727486852329416,0.1177738184929647,-0.6154070540952139,0.2795814467498376,-0.948418666031156,-0.2462879388992089,-0.0945974276489944,-0.6247469997448153,0.7201311745649319,-0.7713793759695146,0.661927,0.417835,-0.529221,0.327402,-1.048877,-0.086631,0.025809,0.243174,-1.224398,-0.121107,0,0,0.6625770831679635,0.4180976938830093,-0.5283050536745975,0.3272289932171837,-1.041425481228989,-0.1241561602798534,0.0126184770879133,-0.2186285504767061,-0.2013211663112406,0.2783293443841255
3530,2024 8 08,15:40:38.820,0.726386,0.11666,-0.616797,0.279848,-0.947468,-0.253156,-0.09415,-1.332412,1.746371,-1.587224,0,0,0.7274318097129451,0.1177181275683164,-0.6154765513904532,0.2795947744123457,-0.9483711327295984,-0.2466313419542485,-0.0945750562665447,-0.6601302497575745,0.7714431658366853,-0.8121716071710389,0.661845,0.417877,-0.529292,0.327399,-1.048862,-0.129185,0.00569,0.298467,-0.840084,-0.121966,0,0,0.6625404790095654,0.4180866591888588,-0.5283544009908675,0.3272374935563245,-1.0417973071675397,-0.1244076022658607,0.0122720532335176,-0.1927737729528708,-0.2332593079956786,0.2583145771649192
3531,2024 8 08,15:40:38.828,0.726242,0.116529,-0.616969,0.279897,-0.948859,-0.249993,-0.089089,-0.862802,1.442224,-1.579693,0,0,0.7273723192272977,0.1176586711899006,-0.6155511738209305,0.2796098856917284,-0.9483955260931184,-0.246799424856536,-0.0943007534532175,-0.6702638372696957,0.8049822075448511,-0.8505476768124869,0.661784,0.4179,-0.529346,0.327404,-1.052296,-0.127226,-0.000173,0.035974,-0.369647,-0.175736,0,0,0.6625026550590871,0.4180773262294159,-0.5284039809413241,0.3272458188785083,-1.0423222418091624,-0.1245485221525677,0.0116498005718417,-0.1813363843052272,-0.2400786925958946,0.2366120483066732
3532,2024 8 08,15:40:38.836,0.726105,0.116406,-0.617123,0.279965,-0.946266,-0.251356,-0.088361,-0.7497,1.264378,-1.677532,0,0,0.7273089532659328,0.1175960376304056,-0.6156297651298839,0.279627641407142,-0.9482890497884624,-0.2470272536137092,-0.0940037657805566,-0.674235645406211,0.8279519971676085,-0.8918968929718625,0.661753,0.417899,-0.52938,0.327415,-1.04635,-0.075309,0.020836,-0.154073,0.056907,-0.182129,0,0,0.6624651723061328,0.4180684099179451,-0.5284527818942578,0.3272542779345828,-1.0425236297187042,-0.1220865460449393,0.0121091105432496,-0.1799732150899659,-0.2252294079660999,0.2156749958913396
3533,2024 8 08,15:40:38.845,0.726071,0.116376,-0.617161,0.279982,-0.945475,-0.251874,-0.088379,-0.734913,1.227001,-1.704449,0,0,0.7272470556026361,0.1175350357488853,-0.6157063268733897,0.2796453593367849,-0.9481483472990392,-0.2472695909330237,-0.0937225274915288,-0.6772695131359003,0.8479044473092281,-0.9325244983232692,0.661749,0.417864,-0.529413,0.327415,-1.044319,-0.125962,0.007631,-0.492325,0.321612,-0.182965,0,0,0.6624293636908262,0.4180581894220478,-0.528500792799545,0.3272623140378536,-1.0426133982327688,-0.1222803187426923,0.0118852050160871,-0.1955908043354676,-0.1978873375677949,0.1957429960967726
3534,2024 8 08,15:40:38.853,0.725968,0.116283,-0.617278,0.280031,-0.940726,-0.250521,-0.089094,-0.732809,1.266255,-1.574563,0,0,0.7271831028225042,0.117472433961441,-0.6157849105297202,0.2796646413699456,-0.9477772299340872,-0.2474321613863725,-0.0934911011169523,-0.6800464874791053,0.8688219749437667,-0.9646264234071056,0.661769,0.417818,-0.529417,0.327425,-1.04403,-0.129689,0.008197,-0.437369,0.771601,-0.234625,0,0,0.6623963455062849,0.4180461799509454,-0.5285466031595678,0.327270448335961,-1.0426842283211302,-0.1226507528055577,0.0117007947652828,-0.2076797141186942,-0.1494129206894051,0.174224596291934
3535,2024 8 08,15:40:38.861,0.725839,0.116171,-0.617429,0.280077,-0.943153,-0.248334,-0.087555,-0.908438,1.367134,-1.446015,0,0,0.727115897681379,0.1174073622633689,-0.6158671150032342,0.2796852593014483,-0.9475460184373828,-0.2474772533170539,-0.0931942960611047,-0.69146606310515,0.8937375761965783,-0.9886958522367504,0.661795,0.417772,-0.529409,0.327444,-1.047242,-0.097056,0.002328,-0.276336,0.840681,-0.293421,0,0,0.6623662782309706,0.4180324709533981,-0.5285897230015895,0.3272791259191629,-1.0429121169050737,-0.1213710151652798,0.0112321550270186,-0.2111125284127595,-0.0999082246549349,0.1508423164773372
3536,2024 8 08,15:40:38.870,0.725698,0.116052,-0.617606,0.280104,-0.944845,-0.249786,-0.088072,-1.094735,1.701237,-1.367877,0,0,0.72704500279731,0.1173395941502005,-0.6159540592530725,0.2797061963363759,-0.9474109675155136,-0.2475926906512012,-0.0929381812580495,-0.7116295099498925,0.9341125473867494,-1.0076549096249128,0.661799,0.417765,-0.529408,0.327448,-1.04777,-0.127985,0.014932,-0.249852,0.852042,-0.303091,0,0,0.6623379143194221,0.4180190974057282,-0.52863063685151,0.3272875696232047,-1.04315501105982,-0.1217017144070158,0.0114171472756677,-0.2130495019921215,-0.0523107134221881,0.1281456506534704
3537,2024 8 08,15:40:38.878,0.725546,0.115929,-0.6178,0.280118,-0.94902,-0.244327,-0.093506,-1.190332,1.892392,-1.34749,0,0,0.7269700526574444,0.1172690644426905,-0.6160463562904188,0.2797267865195571,-0.947491419139738,-0.2474294061186411,-0.092966572195147,-0.7355646344523978,0.982026520017412,-1.0246466641436671,0.661828,0.417725,-0.529381,0.327483,-1.045879,-0.12953,0.007564,-0.14608,1.201,-0.255217,0,0,0.662312418603451,0.4180043925354417,-0.5286681550089345,0.3272973411420445,-1.0432912105068288,-0.122093128686665,0.0112244899118843,-0.2097010268925154,0.0103548222489212,0.1089775181207968
3538,2024 8 08,15:40:38.886,0.72539,0.115814,-0.617999,0.280132,-0.946991,-0.248214,-0.096813,-1.130037,1.941092,-1.259059,0,0,0.7268910500245721,0.1171963112205559,-0.6161439884758979,0.2797470471935792,-0.947466398182751,-0.247468635812709,-0.0931588935853896,-0.7552882527297778,1.0299797940165414,-1.0363672809364837,0.661865,0.417685,-0.529338,0.327528,-1.046703,-0.128641,0.010113,-0.175769,1.412568,-0.344219,0,0,0.6622900476732784,0.4179884229086696,-0.5287016472584877,0.3273088740849423,-1.0434617999814877,-0.1224205222523317,0.0111689154162901,-0.2080044255478896,0.0804654811364752,0.086317692214757
3539,2024 8 08,15:40:38.895,0.725342,0.11578,-0.618059,0.280136,-0.946071,-0.251606,-0.088023,-1.105168,1.950621,-1.228686,0,0,0.7268135975233435,0.1171254956595281,-0.6162397390521029,0.2797664948339002,-0.9473966282736134,-0.2476755040220735,-0.0929020989061201,-0.772782240093289,1.0760118543157142,-1.0459832168896597,0.661922,0.417637,-0.529271,0.327581,-1.044931,-0.128854,0.010998,-0.181579,1.743961,-0.361634,0,0,0.6622716452896144,0.4179708517632361,-0.5287301148955633,0.3273224803806951,-1.043535259982413,-0.1227421961397151,0.0111603696454756,-0.2066831542704952,0.1636402570796514,0.0639201076040191
3540,2024 8 08,15:40:38.903,0.725221,0.115696,-0.618212,0.280146,-0.945882,-0.253153,-0.089903,-1.100057,2.035147,-1.305009,0,0,0.7267339676471763,0.1170540208765517,-0.6163383520994978,0.2797854700922052,-0.9473208968599328,-0.2479493788209698,-0.0927521439608141,-0.7891459780886245,1.1239686115999283,-1.0589345060451765,0.661992,0.41757,-0.529196,0.327647,-1.041893,-0.130426,0.005833,-0.230511,1.907558,-0.221998,0,0,0.6622576630251336,0.4179508091750743,-0.5287534091507852,0.3273387063616604,-1.0434531469832924,-0.1231263863327294,0.0108940011632018,-0.2078745465569704,0.2508361442256689,0.0496242022238182
3541,2024 8 08,15:40:38.911,0.725071,0.115606,-0.618399,0.280161,-0.947147,-0.253088,-0.086699,-0.97661,1.984526,-1.171059,0,0,0.7266508192648174,0.1169816198327241,-0.6164413844945229,0.2798042465875949,-0.947312202016936,-0.2482063098799213,-0.0924494867627734,-0.7985191791841932,1.1669964810199318,-1.0645407307429176,0.662063,0.417495,-0.529128,0.32771,-1.044258,-0.131896,0.007363,-0.335359,1.989924,-0.191948,0,0,0.6622479298738768,0.4179280187163205,-0.5287721386932459,0.3273572710435773,-1.0434933896341276,-0.1235648670160929,0.0107174511050417,-0.2142487692291219,0.3377905370143854,0.0375455921126272
3542,2024 8 08,15:40:38.920,0.72492,0.115518,-0.618587,0.280171,-0.948277,-0.254907,-0.082473,-0.929981,1.839677,-0.994892,0,0,0.7265642783015765,0.1169084388410879,-0.6165486652697967,0.2798225842582152,-0.9473604419160891,-0.2485413443859253,-0.0919506624246348,-0.8050922702249835,1.2006305069689354,-1.0610582942057716,0.662079,0.417479,-0.529113,0.327724,-1.044789,-0.101242,0.017236,-0.358911,2.008425,-0.185198,0,0,0.6622394833801829,0.4179055677805044,-0.5287891817585837,0.3273756074913985,-1.0435581701524212,-0.1224487236652882,0.0110433785497896,-0.2214818807676657,0.4213222601636662,0.0264084125069959
3543,2024 8 08,15:40:38.928,0.724775,0.115435,-0.618769,0.28018,-0.94673,-0.254994,-0.082311,-0.879263,1.787133,-0.935026,0,0,0.7264748143864976,0.1168347668990335,-0.6166596820063067,0.2798404550453044,-0.9473289198202848,-0.248863977166629,-0.091468679303403,-0.8088008067137342,1.2299556316204885,-1.0547566794954828,0.662144,0.417411,-0.529052,0.327777,-1.041598,-0.129356,0.011838,-0.410458,2.058791,-0.18362,0,0,0.6622347092111738,0.4178808393914792,-0.5288023226706545,0.3273956771168285,-1.0434601616448,-0.1227940874820238,0.0110831096223001,-0.2309306867292825,0.5031956971554828,0.0159069918816461
3544,2024 8 08,15:40:38.936,0.724639,0.115351,-0.618936,0.280197,-0.946688,-0.255861,-0.085931,-0.7821,1.577633,-0.92049,0,0,0.7263830236671728,0.1167605785540818,-0.6167734979059915,0.2798582822930391,-0.9472968738292704,-0.2492138283082975,-0.0911917953382328,-0.8074657663780476,1.247339500039464,-1.0480433455207083,0.662224,0.417333,-0.528978,0.327832,-1.041916,-0.129024,0.011749,-0.468474,1.980019,-0.274238,0,0,0.6622341737506151,0.4178534474219052,-0.5288111065371218,0.3274174932609871,-1.04338295356256,-0.1231055831079226,0.0111164041411851,-0.2428078523928183,0.5770368622977087,0.0013997422875638
3545,2024 8 08,15:40:38.945,0.724592,0.115322,-0.618994,0.280203,-0.946775,-0.256225,-0.087377,-0.745495,1.494525,-0.916833,0,0,0.726293472483814,0.1166886496263777,-0.6168845230106919,0.2798755181783872,-0.9472707801378067,-0.2495643868928826,-0.0910010555713212,-0.8043672280591452,1.2596987750374908,-1.041482828244673,0.6623,0.417258,-0.528913,0.32788,-1.040196,-0.127861,0.021801,-0.438095,1.825282,-0.386981,0,0,0.6622374650630843,0.41782367505081,-0.5288162012102657,0.3274406185979377,-1.043223605884432,-0.1233433539525265,0.0116506339341259,-0.2525722097731774,0.6394491191828233,-0.0180192948268143
3546,2024 8 08,15:40:38.953,0.724505,0.115266,-0.619097,0.280223,-0.945875,-0.255397,-0.084985,-0.659078,1.280669,-0.838988,0,0,0.7262040488596233,0.1166175171450588,-0.6169951468601572,0.2798928922694678,-0.9472009911309164,-0.2498560175482385,-0.0907002527927551,-0.7971027666561878,1.2607472862856162,-1.0313580868324397,0.662363,0.417206,-0.528843,0.327933,-1.044017,-0.126847,0.009122,-0.118983,1.651653,-0.505228,0,0,0.6622437418099301,0.4177927912982694,-0.5288175411497524,0.3274652376680408,-1.0432632755902105,-0.1235185362549001,0.0115242022374196,-0.2458927492845185,0.6900593132236821,-0.0423797300854736
3547,2024 8 08,15:40:38.961,0.724402,0.115196,-0.619221,0.280245,-0.947011,-0.254424,-0.083915,-0.623987,1.117505,-0.806198,0,0,0.7261139464166421,0.1165464412878059,-0.6171064395171494,0.2799104976559944,-0.9471914915743708,-0.2500844166708266,-0.0903609901531174,-0.7884469783233784,1.2535851719713351,-1.0201000824908173,0.662421,0.41717,-0.528772,0.327974,-1.04434,-0.127278,0.010289,-0.033296,1.648986,-0.580934,0,0,0.6622526047194335,0.417761651733356,-0.5288152640922648,0.3274906757846388,-1.0433171118106996,-0.1237065094421551,0.0114624421255486,-0.2352629118202926,0.7380056475624979,-0.0693074435811999
3548,2024 8 08,15:40:38.970,0.724309,0.115126,-0.619332,0.280268,-0.949365,-0.254662,-0.083618,-0.463932,0.797498,-0.721952,0,0,0.72602369909581,0.1164754192234156,-0.6172177175412918,0.2799283727731946,-0.947300166995652,-0.2503132958372853,-0.0900238406454615,-0.7722212294072095,1.2307808133727685,-1.0051926783662763,0.662437,0.417161,-0.528753,0.327985,-1.044429,-0.126376,0.018125,-0.009586,1.648248,-0.601882,0,0,0.6622618244834618,0.4177316191466882,-0.5288121508876514,0.3275153919954068,-1.0433727062201648,-0.1238399839700474,0.0117955700192712,-0.2239790662292779,0.783517765184373,-0.0959361714021399
3549,2024 8 08,15:40:38.978,0.72423,0.115061,-0.619422,0.2803,-0.950017,-0.254526,-0.082345,-0.357945,0.554195,-0.686343,0,0,0.7259340141410194,0.1164046982622448,-0.6173279316642273,0.2799469541345349,-0.9474360086458696,-0.250523931045421,-0.0896398986131884,-0.7515074179368489,1.19695152270413,-0.9892501944479624,0.662494,0.417129,-0.528682,0.328024,-1.044111,-0.131557,0.006578,-0.045817,1.862947,-0.650828,0,0,0.6622734332592887,0.4177014881893538,-0.5288056433432688,0.3275408223956365,-1.0434096209091566,-0.124225834771545,0.0115346915183076,-0.215070962917814,0.8374892269251543,-0.1236807628320329
3550,2024 8 08,15:40:38.986,0.724162,0.114996,-0.619498,0.280335,-0.950455,-0.253557,-0.083553,-0.321191,0.355485,-0.602399,0,0,0.7258454134339684,0.1163342633491325,-0.6174364350810159,0.2799663564278081,-0.947586958213576,-0.2506755844931499,-0.089335553682529,-0.7299915970400065,1.1548781965689234,-0.9699076347255644,0.662571,0.417089,-0.528598,0.328057,-1.045378,-0.130394,0.01526,-0.141439,1.925757,-0.792682,0,0,0.6622883115963243,0.4176708637798861,-0.5287952611761054,0.3275666312758546,-1.0435080398636989,-0.1245342430329677,0.0117209569423922,-0.2113893647719233,0.8919026155788965,-0.1571308246904313
3551,2024 8 08,15:40:38.995,0.724136,0.11497,-0.619527,0.280348,-0.950633,-0.25313,-0.084188,-0.310157,0.278773,-0.565827,0,0,0.7257599427622698,0.1162660501816759,-0.6175409633269651,0.2799854386064177,-0.9477392603028972,-0.2507983052684924,-0.0890781759984025,-0.7089998671880061,1.1110729367404772,-0.949703602989286,0.662654,0.417046,-0.528506,0.328091,-1.045086,-0.133409,0.00912,-0.212197,1.944612,-0.793216,0,0,0.6623065960165081,0.4176396205908918,-0.5287807981173002,0.3275928497120619,-1.0435869378705138,-0.1249779808813193,0.0115909090952726,-0.2114297465333271,0.9445380847999516,-0.1889350834559097
3552,2024 8 08,15:40:39.003,0.724096,0.114921,-0.619573,0.280369,-0.94896,-0.252711,-0.085535,-0.378713,0.147242,-0.554574,0,0,0.7256767456241564,0.1161987976725921,-0.6176425651606168,0.2800046166760968,-0.9478002972877524,-0.2508939400050678,-0.0889010171984824,-0.6924855238286057,1.0628813899034533,-0.9299471228398218,0.662741,0.417002,-0.528414,0.328119,-1.040004,-0.134336,0.014885,-0.192369,2.033615,-0.79338,0,0,0.6623283162156827,0.4176077395613472,-0.5287624582114351,0.3276191572264588,-1.043407790976988,-0.1254458818372534,0.011755613640509,-0.2104767092066607,0.998991930559954,-0.2191573292831142
3553,2024 8 08,15:40:39.011,0.724049,0.114858,-0.61963,0.280391,-0.947882,-0.254243,-0.085283,-0.411441,0.089108,-0.515434,0,0,0.7255953583429485,0.1161317577889625,-0.6177419369025859,0.2800239358422919,-0.9478043824233648,-0.2510613930048144,-0.0887201163385583,-0.6784332976371754,1.0141927204082806,-0.9092214666978308,0.66282,0.416966,-0.528319,0.328158,-1.039061,-0.130677,0.020653,0.101993,1.855858,-0.752273,0,0,0.6623529004048985,0.4175756525832798,-0.5287402853008633,0.3276460993651359,-1.0431904514281387,-0.1257074377453907,0.0122004829584835,-0.1948532237463277,1.0418352340319563,-0.2458131128189585
3554,2024 8 08,15:40:39.020,0.724,0.114799,-0.619688,0.280413,-0.947208,-0.253874,-0.085633,-0.316325,0.070376,-0.391654,0,0,0.725515590425801,0.1160651198995144,-0.6178392400574566,0.2800433890501774,-0.9477745633021964,-0.2512020233545736,-0.0885657605216303,-0.6603278827553166,0.9670018843878664,-0.883343093362939,0.662845,0.416954,-0.528289,0.328171,-1.038757,-0.129498,0.022512,0.196845,1.79858,-0.739027,0,0,0.6623775053846536,0.4175445699541159,-0.52871772103582,0.3276723443968791,-1.0429687788567317,-0.1258969658581211,0.0127160588105593,-0.1752683125590113,1.0796724723303583,-0.2704738071780106
3555,2024 8 08,15:40:39.028,0.723969,0.114761,-0.619725,0.280427,-0.946809,-0.253429,-0.085938,-0.244605,0.061095,-0.305733,0,0,0.7254382609045109,0.1159999139045386,-0.6179335280545838,0.2800625695976685,-0.9477262851370866,-0.2513133721868449,-0.0884343724955488,-0.6395417386175507,0.9217065401684732,-0.854462588694792,0.662867,0.418584,-0.527748,0.32692,-1.039394,-0.129111,0.021923,0.227437,1.770203,-0.740664,0,0,0.6624019801154208,0.41759654145641,-0.528669234984029,0.3276347271770351,-1.042790039913895,-0.1260576675652151,0.0131764058700314,-0.1551330469310607,1.1141989987138403,-0.29398331681911
3556,2024 8 08,15:40:39.036,0.723921,0.114702,-0.619784,0.280445,-0.949672,-0.170444,-0.153274,-0.423279,0.061036,-0.364897,0,0,0.7253623978592854,0.1159350182093117,-0.6180260516518546,0.2800816911177851,-0.9478235708802322,-0.2472699035775027,-0.0916763538707714,-0.6287286016866732,0.8786730131600494,-0.8299843092600523,0.662928,0.416935,-0.528163,0.32823,-1.044097,-0.130477,0.013387,0.140506,1.745803,-0.800384,0,0,0.6624282811096498,0.4175634643835895,-0.5286439232348275,0.3276644908181834,-1.0428553879182,-0.1262786341869543,0.0131869355765298,-0.1403510945845077,1.1457791987781485,-0.3193033509781545
3557,2024 8 08,15:40:39.045,0.723874,0.114644,-0.619841,0.280466,-0.950204,-0.256806,-0.091446,-0.19188,0.00223,-0.424968,0,0,0.725287977966321,0.1158704672988461,-0.618116799069262,0.2801009065618958,-0.9479425923362206,-0.2477467083986275,-0.0916648361772328,-0.6068861716023395,0.834850862502047,-0.8097334937970497,0.662978,0.416933,-0.528077,0.328272,-1.042952,-0.129986,0.017454,0.232403,1.584768,-0.860466,0,0,0.6624557670541673,0.41753194116441,-0.528615577073086,0.3276948662772742,-1.0428602185222902,-0.1264640024776066,0.0134002887977033,-0.1217133898552823,1.167728638839241,-0.3463614834292468
3558,2024 8 08,15:40:39.053,0.723872,0.114642,-0.619843,0.280467,-0.950223,-0.256842,-0.091782,-0.183552,0.000114,-0.42713,0,0,0.725217179068005,0.1158090439339038,-0.6182031091157989,0.280119211233801,-0.9480566127194094,-0.2482014729786961,-0.0916706943683711,-0.5857194630222224,0.7931140193769446,-0.7906033191071972,0.663027,0.416936,-0.527988,0.32831,-1.045065,-0.128675,0.013391,0.209113,1.528877,-0.912724,0,0,0.6624843287014589,0.4175021441061895,-0.5285841982194317,0.3277256229634104,-1.0429704575961756,-0.1265745523537262,0.0133998243578181,-0.1051720703625182,1.185786056897279,-0.3746796092577844
3559,2024 8 08,15:40:39.061,0.723835,0.114585,-0.61989,0.280482,-0.950681,-0.255017,-0.079926,-0.297287,7e-06,-0.313086,0,0,0.7251480701146047,0.1157478417372086,-0.6182874536600089,0.2801373506721109,-0.9481878320834388,-0.2485422493297613,-0.0910834596499526,-0.5712978398711113,0.7534586684080973,-0.7667274531518373,0.663074,0.416946,-0.527899,0.328347,-1.043529,-0.129352,0.012926,0.348304,1.541508,-0.93078,0,0,0.6625138122663858,0.41747433690088,-0.5285499383084601,0.3277566918152399,-1.0429983847163666,-0.1267134247360399,0.0133761331399272,-0.0824982668443922,1.203572154052415,-0.4024846287948952
3560,2024 8 08,15:40:39.070,0.723801,0.114532,-0.619925,0.280511,-0.94846,-0.25085,-0.085019,-0.07956,-0.168747,-0.305796,0,0,0.7250807166088744,0.1156870496503482,-0.6183693309770084,0.2801560331385053,-0.9482014404792668,-0.2486576368632732,-0.090780236667455,-0.5467109478775557,0.7073483849876924,-0.7436808804942454,0.663119,0.416957,-0.527812,0.328382,-1.043042,-0.129395,0.014064,0.308558,1.639603,-1.029222,0,0,0.6625440716530666,0.417448470055836,-0.5285130413930371,0.3277879572244779,-1.0430005654805483,-0.1268475034992379,0.0134105264829309,-0.0629454535021726,1.225373696349794,-0.4338214973551504
3561,2024 8 08,15:40:39.078,0.723768,0.114478,-0.619967,0.280528,-0.948732,-0.254521,-0.084525,-0.173624,-0.126345,-0.249787,0,0,0.7250150807784307,0.1156265971678307,-0.6184492144281579,0.28017463148158,-0.9482279684553035,-0.2489508050201095,-0.0904674748340822,-0.528056600483678,0.6656637157383076,-0.718986186469533,0.663128,0.416959,-0.527794,0.328389,-1.043604,-0.129158,0.014392,0.290491,1.624694,-1.021837,0,0,0.6625732680704133,0.4174239965530442,-0.5284770893233852,0.327818009363254,-1.0430307372065208,-0.126963028324276,0.0134596001587843,-0.045273630827064,1.2453397115323044,-0.4632222724873928
3562,2024 8 08,15:40:39.086,0.723738,0.114421,-0.620002,0.280551,-0.949194,-0.251791,-0.087104,-0.127451,-0.177182,-0.299395,0,0,0.7249512267395092,0.1155663173094392,-0.61852685370675,0.280193449907501,-0.9482762700325384,-0.249092814769104,-0.0902993010923781,-0.508026320459494,0.6235214299513923,-0.6980066271460563,0.663172,0.416963,-0.527715,0.328424,-1.046786,-0.128215,0.016171,0.172138,1.503701,-0.919231,0,0,0.6626032046668926,0.4174009467253919,-0.528438984857216,0.3278483088950913,-1.043218500346195,-0.1270256269080622,0.0135951701508451,-0.0344030492857108,1.258257775955689,-0.4860227088630232
3563,2024 8 08,15:40:39.095,0.723707,0.114357,-0.620048,0.280555,-0.946654,-0.254529,-0.090389,-0.446137,-0.074601,-0.250594,0,0,0.7248890154025337,0.1155058514439672,-0.6186029110214124,0.280211527412126,-0.9481951565309114,-0.2493646240306488,-0.0903037860377592,-0.5049318544365193,0.5886153084538226,-0.6756359957887534,0.663228,0.416959,-0.527625,0.328459,-1.04342,-0.132839,0.015979,0.078416,1.645679,-0.876631,0,0,0.6626344444335479,0.4173788493891223,-0.5283982856143552,0.3278788434503368,-1.043228575328885,-0.127316295562659,0.0137143616433028,-0.0287620968214252,1.2776288371579043,-0.505553123419872
3564,2024 8 08,15:40:39.103,0.723704,0.114349,-0.620053,0.280555,-0.946361,-0.254844,-0.090767,-0.482849,-0.062784,-0.244972,0,0,0.724829764632407,0.1154480088717689,-0.6186754154703418,0.2802287010415197,-0.9481034487043656,-0.2496385928291164,-0.0903269467358712,-0.5038277117146933,0.5560453430311314,-0.6541027959993158,0.663286,0.416963,-0.527525,0.328499,-1.045377,-0.138647,0.006372,0.385129,1.782749,-0.956493,0,0,0.6626670222118706,0.4173580569196662,-0.5283546213336374,0.3279098512778199,-1.0433359965624407,-0.1278828307845261,0.0133472435611377,-0.0080675419803539,1.302884845300009,-0.5281001172488784
3565,2024 8 08,15:40:39.111,0.723674,0.114301,-0.62009,0.280572,-0.945485,-0.252366,-0.084941,-0.330168,-0.061281,-0.296707,0,0,0.7247719764007866,0.1153906584281804,-0.6187461446968247,0.2802458659894437,-0.9479725262691472,-0.2497749631876606,-0.0900576493990776,-0.4951447261289586,0.5251790258795748,-0.63623300619935,0.663358,0.416951,-0.527419,0.328538,-1.043607,-0.132763,0.018883,0.127899,1.988701,-0.935473,0,0,0.662701571101277,0.4173377040736828,-0.5283078402669555,0.327941258713929,-1.0433495467343186,-0.1281268392452998,0.0136240313830808,-0.0012692148813362,1.3371756530350083,-0.5484687613864344
3566,2024 8 08,15:40:39.120,0.723649,0.114242,-0.620124,0.280584,-0.949089,-0.252023,-0.085788,-0.308977,-0.216325,-0.200386,0,0,0.7247158275807473,0.1153332255067714,-0.6188150374619834,0.2802627726899716,-0.94802834995569,-0.2498873650282775,-0.0898441669291238,-0.4858363398225107,0.488103824585596,-0.6144406558893823,0.663428,0.416943,-0.527313,0.328577,-1.039781,-0.129082,0.020261,0.226458,2.062038,-1.022063,0,0,0.6627378925462131,0.4173179688699986,-0.5282580982536078,0.3279730457782325,-1.0431711193976023,-0.1281745972830348,0.0139558798139268,0.0101171458627305,1.373418770383258,-0.5721484733171126
3567,2024 8 08,15:40:39.128,0.723615,0.114187,-0.620166,0.2806,-0.946362,-0.253605,-0.089184,-0.356866,-0.035319,-0.288067,0,0,0.7246607862017098,0.1152759142314328,-0.6188825855888842,0.2802796340554729,-0.9479450324579054,-0.2500732467768636,-0.0898111585826676,-0.4793878228313851,0.4619326833563161,-0.5981219730949132,0.663445,0.416942,-0.527285,0.328588,-1.039759,-0.129635,0.019474,0.241254,2.031615,-1.021251,0,0,0.6627732479189024,0.4172991704264987,-0.5282094433409273,0.3280037934893208,-1.0430005134277225,-0.128247617418883,0.0142317858232304,0.0216739885695939,1.406328581864095,-0.594603599651257
3568,2024 8 08,15:40:39.136,0.723578,0.114131,-0.620212,0.280616,-0.949552,-0.254263,-0.083279,-0.26377,-0.00615,-0.201383,0,0,0.7246066468916244,0.1152186685198612,-0.61894905630944,0.2802964523526993,-0.94802538083501,-0.2502827344380204,-0.0894845506535342,-0.4686069316898159,0.4385285491885003,-0.5782850244401675,0.663496,0.41694,-0.527199,0.328627,-1.04297,-0.136044,0.014051,0.257269,1.758349,-0.927122,0,0,0.6628093855229572,0.4172812119051737,-0.528158921173881,0.3280349538148548,-1.042998987756336,-0.1286374365479388,0.0142227465320689,0.0334537391411143,1.42392960277089,-0.6112295196686941
3569,2024 8 08,15:40:39.145,0.723515,0.114103,-0.620271,0.280661,-0.954479,-0.254775,-0.089031,0.647929,0.595995,-0.435286,0,0,0.724552064547043,0.1151628850938681,-0.6190151534939679,0.2803146797350643,-0.9483480617932596,-0.2505073477161194,-0.0894618731208574,-0.412780135105325,0.4464018717290753,-0.571135073218159,0.663545,0.416942,-0.527112,0.328663,-1.041316,-0.13253,0.019423,0.332631,1.634701,-0.854452,0,0,0.6628461662468094,0.417264251309915,-0.5281065751151869,0.328066356124112,-1.0429148383685194,-0.1288320647205419,0.0144827592054654,0.0484126021840585,1.4344681726323456,-0.6233906436852594
3570,2024 8 08,15:40:39.153,0.723504,0.114097,-0.620281,0.280669,-0.955378,-0.254868,-0.090081,0.814205,0.705814,-0.477945,0,0,0.7244996613196908,0.1151095908391747,-0.6190784458192694,0.2803323957483111,-0.9486995587035963,-0.2507253803303134,-0.0894928294648146,-0.3514308783500587,0.4593724781426215,-0.5664755695572511,0.663587,0.416946,-0.527026,0.328711,-1.038646,-0.129149,0.020339,0.274686,1.386423,-0.762865,0,0,0.6628832079344689,0.4172483387444193,-0.5280525463594274,0.3280985883179064,-1.0427013964500933,-0.1288479114845148,0.0147755712451922,0.0597262720748556,1.432065914000728,-0.6303643615009964
3571,2024 8 08,15:40:39.161,0.723464,0.114068,-0.620326,0.280684,-0.949341,-0.254886,-0.094552,-0.706321,0.047724,-0.292093,0,0,0.7244478782537063,0.1150575112972159,-0.6191408235283059,0.2803499759608955,-0.9487316307684166,-0.2509334113137977,-0.0897457879915738,-0.3691753844325558,0.4387900542354904,-0.5527564410793885,0.663615,0.416965,-0.526946,0.32876,-1.042391,-0.130879,0.016078,0.36712,1.280932,-0.780623,0,0,0.6629197975377453,0.4172341718071983,-0.527997219041456,0.3281316589020111,-1.0426858766275886,-0.128949465910289,0.0148406926829326,0.0750959584711128,1.4245092183006915,-0.6378772934259466
3572,2024 8 08,15:40:39.170,0.723422,0.113995,-0.620383,0.280698,-0.949268,-0.246661,-0.086695,-0.583058,0.058174,-0.446119,0,0,0.7243965843410209,0.1150043857323551,-0.6192029323518906,0.2803673771628507,-0.9487584492299956,-0.2507197907481078,-0.0895932485919951,-0.379869515210928,0.4197592515237159,-0.547424569025419,0.663639,0.416982,-0.526873,0.328808,-1.042486,-0.097942,0.030947,0.510162,1.42532,-0.74278,0,0,0.662955757660858,0.4172215632168384,-0.5279410080893833,0.3281654759569106,-1.042675882796209,-0.1273990926147746,0.0156460080487859,0.0968492605475572,1.424549757385657,-0.6431224287546492
3573,2024 8 08,15:40:39.178,0.723382,0.113918,-0.62044,0.280704,-0.947359,-0.258195,-0.085202,-0.55689,0.013059,-0.336814,0,0,0.7243458551239699,0.1149500664457374,-0.619264785734296,0.2803842083047081,-0.948688476768496,-0.2510935512107025,-0.0893736861623954,-0.3887205394503815,0.3994242389475301,-0.5368940405741481,0.663647,0.416987,-0.52685,0.328822,-1.041892,-0.134271,0.017707,0.527727,1.41117,-0.715547,0,0,0.6629903197778151,0.4172098350559964,-0.5278864576849142,0.328198302159065,-1.0426366886563987,-0.1277426879840358,0.0157490576463466,0.1183931475201793,1.423880769516374,-0.6467436573169167
3574,2024 8 08,15:40:39.186,0.723338,0.113854,-0.620501,0.28071,-0.944691,-0.254915,-0.087638,-0.457559,0.049817,-0.265809,0,0,0.7242954623677713,0.1148952631234505,-0.6193265964475811,0.2804004978894727,-0.9484886029300712,-0.2512846236501673,-0.0892869018542756,-0.3921624624778624,0.3819438770001536,-0.5233397885454406,0.663661,0.416998,-0.5268,0.32886,-1.037928,-0.13525,0.021491,0.444417,1.112299,-0.569215,0,0,0.6630238537889243,0.4171992433031966,-0.5278321348006685,0.3282313870511117,-1.0424012542235788,-0.128118053584834,0.0160361547640293,0.1346943401441703,1.4083016810405553,-0.6428672244510709
3575,2024 8 08,15:40:39.195,0.723303,0.113808,-0.620548,0.280716,-0.946662,-0.256006,-0.084874,-0.203573,0.012102,-0.064575,0,0,0.7242458392493827,0.114840899967278,-0.6193876666252021,0.2804162729949991,-0.9483972727835676,-0.2515206924676589,-0.0890662567615618,-0.3827329893539692,0.3634517831501459,-0.5004015491181685,0.663668,0.417008,-0.526752,0.328909,-1.038132,-0.134717,0.018629,0.378962,0.944587,-0.403032,0,0,0.663056061099478,0.4171896811380367,-0.527778128060635,0.3282652676985561,-1.0421877915123998,-0.1284480009055923,0.0161657970258278,0.1469077231369618,1.3851159469885277,-0.6308754632285174
3576,2024 8 08,15:40:39.203,0.723261,0.113771,-0.620597,0.280728,-0.945309,-0.255902,-0.084941,-0.142596,0.048712,-0.153255,0,0,0.7241965972869135,0.1147874049689141,-0.619448133293942,0.2804318593452491,-0.9482428591443892,-0.251739757844276,-0.0888599939234837,-0.3707261398862708,0.3477147939926386,-0.48304422166226,0.663666,0.417014,-0.526721,0.328956,-1.042939,-0.135754,0.018475,0.305235,0.792028,-0.29033,0,0,0.6630865580445041,0.4171808970811348,-0.5277252716576031,0.3282998043136283,-1.0422253519367797,-0.1288133008603127,0.0162812571745364,0.1548240869801137,1.3554615496391011,-0.6138481900670916
3577,2024 8 08,15:40:39.211,0.723251,0.113762,-0.62061,0.280731,-0.944972,-0.255876,-0.084958,-0.127418,0.057824,-0.175328,0,0,0.7241493174225678,0.1147361347204684,-0.6195062266292448,0.2804468163779867,-0.9480793161871696,-0.2519465699520621,-0.0886648942273095,-0.3585607328919572,0.3332202542930066,-0.467658410579147,0.663667,0.41701,-0.526695,0.329,-1.042653,-0.135192,0.018154,0.163689,0.80529,-0.301308,0,0,0.6631155801422788,0.4171723522270781,-0.5276737580747228,0.3283348140979469,-1.0422467343399406,-0.129132235817297,0.0163748943158096,0.155267332631108,1.327952972157146,-0.598221180563737
3578,2024 8 08,15:40:39.220,0.72322,0.113735,-0.620645,0.280743,-0.945242,-0.254442,-0.085676,-0.03428,0.015557,-0.091784,0,0,0.7241028515514394,0.1146860779844449,-0.6195631652977825,0.2804616255590873,-0.9479374503778112,-0.252071341454459,-0.088515449515944,-0.3423466962473593,0.3173370915783563,-0.4488646900501897,0.66367,0.417002,-0.526675,0.329036,-1.045049,-0.079966,-0.000668,0.088653,0.88587,-0.304135,0,0,0.6631433011351648,0.4171638346157241,-0.5276238201709867,0.3283698733930495,-1.0423868476229434,-0.1266739240264322,0.0155227496000191,0.1519366159995526,1.3058488235492884,-0.5835168715355501
3579,2024 8 08,15:40:39.228,0.723183,0.113716,-0.620688,0.28075,-0.945667,-0.255119,-0.087631,-0.009507,0.004315,-0.025455,0,0,0.7240568589738674,0.1146375740852227,-0.6196194070328934,0.2804760442811329,-0.9478239278589204,-0.252223724381736,-0.0884712270401468,-0.3257047114349913,0.3016859869994385,-0.4276942055476802,0.663672,0.416997,-0.526669,0.329049,-1.0454,-0.133684,0.020785,0.056767,0.88941,-0.292959,0,0,0.6631697360784066,0.4171554928849379,-0.5275760791624373,0.3284038297233971,-1.0425375052417962,-0.1270244278251106,0.0157858621200182,0.147178135199575,1.285026882371824,-0.5689889779587726
3580,2024 8 08,15:40:39.236,0.723145,0.113703,-0.620732,0.280757,-0.945783,-0.25356,-0.085027,-0.002714,0.001232,0.079958,0,0,0.7240112660251741,0.1145908453809615,-0.6196750366812487,0.2804900920670763,-0.9477218814659744,-0.2522905381626492,-0.0882990156881395,-0.3095551758632417,0.2866632876494665,-0.4023115952702961,0.663677,0.416978,-0.526661,0.329076,-1.043591,-0.134733,0.020889,-0.021511,0.783132,-0.208567,0,0,0.6631950992744863,0.417146618240691,-0.5275303252043154,0.3284374382372272,-1.0425901799797064,-0.127409856433855,0.0160410190140173,0.1387436784395962,1.259932138253233,-0.5509678790608339
3581,2024 8 08,15:40:39.245,0.723105,0.113695,-0.620774,0.280771,-0.945126,-0.254845,-0.088088,0.042332,0.086617,0.023459,0,0,0.7239659527239153,0.1145460531119135,-0.6197299848471862,0.2805041374637225,-0.9475920873926756,-0.2524182612545168,-0.0882884649037325,-0.2919608170700796,0.2766609732669932,-0.3810230655067813,0.663682,0.416954,-0.526654,0.329106,-1.042717,-0.13211,0.02034,-0.017974,0.749608,-0.170774,0,0,0.663219444310762,0.4171369873286564,-0.5274865089440997,0.3284708663253659,-1.042596520980721,-0.1276448636121623,0.0162559680633164,0.1309077945176164,1.2344159313405711,-0.5319581851077921
3582,2024 8 08,15:40:39.253,0.723063,0.11369,-0.62082,0.280781,-0.9463,-0.288546,0.039951,0.012748,0.154047,0.135027,0,0,0.7239208050877195,0.1145032504563178,-0.6197844856048269,0.2805179805905363,-0.9475274830230418,-0.2542246481917909,-0.0818764916585459,-0.2767253762165756,0.2705302746036435,-0.3552205622314422,0.663681,0.416939,-0.52665,0.329133,-1.043754,-0.130382,0.018272,-0.067652,0.516278,-0.284284,0,0,0.6632425220952238,0.4171270879622236,-0.5274446834968947,0.3285039730090975,-1.0426543949316849,-0.1277817204315541,0.0163567696601506,0.1209798047917356,1.1985090347735423,-0.5195744758524025
3583,2024 8 08,15:40:39.261,0.72305,0.113689,-0.620834,0.280784,-0.94665,-0.253115,-0.086583,0.003936,0.174134,0.168261,0,0,0.7238772648333335,0.1144625379335019,-0.6198369613245854,0.2805312815610095,-0.9474836088718896,-0.2541691657822014,-0.0821118170756186,-0.2626923074057469,0.2657104608734613,-0.3290464841198701,0.663673,0.416932,-0.52664,0.329174,-1.042987,-0.133169,0.017236,0.086312,0.659982,-0.177859,0,0,0.6632640459904626,0.4171173335641124,-0.5274044493220499,0.3285374743586426,-1.0426710251851006,-0.1280510844099764,0.016400731177143,0.1192464145521488,1.1715826830348657,-0.5024887020597822
3584,2024 8 08,15:40:39.270,0.723015,0.113694,-0.620867,0.280796,-0.94442,-0.255331,-0.087145,0.084718,0.138532,0.136675,0,0,0.7238341515916668,0.1144241110368268,-0.6198884632583561,0.280544517482959,-0.9473304284282952,-0.2542272574930913,-0.0823634762218376,-0.2453217920354595,0.2593515378297882,-0.3057604099138766,0.663663,0.41693,-0.52663,0.329213,-1.04333,-0.134597,0.019808,0.277712,0.667781,-0.181447,0,0,0.6632839936909395,0.4171079668859068,-0.5273657268559473,0.3285712506407105,-1.0427039739258457,-0.1283783801894776,0.0165710946182859,0.1271696938245413,1.146392598883122,-0.4864366169567931
3585,2024 8 08,15:40:39.278,0.722953,0.113742,-0.620908,0.280846,-0.948347,-0.246774,-0.080714,0.729384,0.292567,0.126794,0,0,0.7237900940120834,0.1143900054849855,-0.6199394400954383,0.280559591608811,-0.9473812570068804,-0.2538545946184367,-0.0822810024107457,-0.1965865024336865,0.2610123109382988,-0.2841326894181828,0.663658,0.41693,-0.526627,0.32923,-1.043214,-0.135178,0.02021,0.337585,0.647887,-0.165819,0,0,0.6633026940063925,0.4170990685416114,-0.5273287905131498,0.328604188108675,-1.042729475229553,-0.1287183611800037,0.0167530398873716,0.1376904591333143,1.121467318938966,-0.4704057361089535
3586,2024 8 08,15:40:39.286,0.722901,0.113747,-0.620958,0.280867,-0.947969,-0.252207,-0.08552,0.281975,0.260149,0.001057,0,0,0.7237456393114792,0.1143578552107362,-0.6199903680906664,0.2805749620283705,-0.9474106441565362,-0.2537722148875149,-0.0824429522902085,-0.1726584273120022,0.2609691453913839,-0.2698732049472737,0.663642,0.416929,-0.526624,0.329266,-1.041719,-0.136124,0.018414,0.345699,0.500185,-0.054816,0,0,0.6633196593060728,0.4170905651145308,-0.5272935509874923,0.3286372787032412,-1.0426789514680754,-0.1290886431210035,0.016836087893003,0.1480908861766486,1.0904032029920177,-0.4496262493035057
3587,2024 8 08,15:40:39.295,0.722828,0.113721,-0.621038,0.280889,-0.945254,-0.252778,-0.089997,-0.202064,0.349555,-0.166319,0,0,0.7236997573459052,0.1143260124501994,-0.6200427496861332,0.280590663926952,-0.9473028119487094,-0.2537225041431391,-0.082820654675698,-0.1741287059464021,0.2653984381218147,-0.26469549469991,0.663611,0.416927,-0.526627,0.329326,-1.040561,-0.135747,0.02343,0.244311,0.427368,-9.2e-05,0,0,0.6633342263407691,0.4170823868588043,-0.5272602234381176,0.3286717147680791,-1.0425730538946716,-0.1294215609649533,0.0171657834983528,0.1529018918678161,1.057251442842417,-0.4271495368383304
3588,2024 8 08,15:40:39.303,0.722764,0.113682,-0.621115,0.2809,-0.94652,-0.257435,-0.087009,-0.34718,0.625325,-0.286578,0,0,0.7236529694786099,0.1142938118276894,-0.6200963622018265,0.2806061307306043,-0.947263671351274,-0.2539081289359821,-0.0830300719419131,-0.182781270649082,0.2833947662157239,-0.2657896199649144,0.663593,0.416916,-0.526631,0.329371,-1.041999,-0.132867,0.016719,0.184152,0.487239,-2e-06,0,0,0.6633471650237306,0.4170740675158641,-0.5272287622662117,0.3287066790296752,-1.042544351199938,-0.1295938329167056,0.0171434443234352,0.1544643972744253,1.0287508207002958,-0.4057921599964139
3589,2024 8 08,15:40:39.311,0.722754,0.113676,-0.621127,0.280902,-0.946797,-0.258281,-0.086447,-0.365601,0.66991,-0.30458,0,0,0.7236080210046795,0.1142629212363049,-0.6201478940917351,0.2806209241940741,-0.94724033778371,-0.254126772489183,-0.0832009183448174,-0.1919222571166279,0.3027205279049377,-0.2677291389666687,0.663571,0.416891,-0.526648,0.32942,-1.040605,-0.136127,0.018024,0.005904,0.370091,0.236314,0,0,0.6633583567725441,0.4170649141400709,-0.5271997241529012,0.3287423450781914,-1.042447383639941,-0.1299204912708703,0.0171874721072634,0.147036377410704,0.9958178296652808,-0.3736868519965932
3590,2024 8 08,15:40:39.320,0.722692,0.113648,-0.621201,0.280909,-0.946001,-0.256697,-0.085624,-0.215209,0.671318,-0.204499,0,0,0.7235622199544455,0.1142321751744896,-0.6202005493871483,0.2806353279843704,-0.9471783708945246,-0.2542552838647238,-0.0833220724275766,-0.1930865942607965,0.3211504015096908,-0.2645676320183353,0.66355,0.416857,-0.526668,0.329472,-1.042423,-0.135764,0.021789,0.000275,0.482777,0.301969,0,0,0.6633679389339168,0.4170545184330673,-0.527173137945256,0.3287788278242818,-1.042446164457944,-0.1302126667073268,0.0174175485019003,0.1396983085401688,0.9701657881820168,-0.3399040593967636
3591,2024 8 08,15:40:39.328,0.722623,0.113637,-0.621276,0.280924,-0.943857,-0.25598,-0.087446,-0.036308,0.57222,-0.08524,0,0,0.7235152589567232,0.1142024164157652,-0.6202543219177908,0.2806497615851518,-0.9470123023497984,-0.2543415196714876,-0.0835282688061977,-0.1852476645477566,0.3337038814342062,-0.2556012504174185,0.663526,0.416825,-0.526691,0.329525,-1.042507,-0.136206,0.024256,0.05735,0.37328,0.304981,0,0,0.663375841987221,0.4170430425114139,-0.5271490310479932,0.3288161364330678,-1.0424492062350468,-0.1305123333719605,0.0177594710768052,0.1355808931131604,0.940321498772916,-0.3076598064269254
3592,2024 8 08,15:40:39.336,0.722549,0.394058,-0.503939,0.262078,-0.943814,-0.255876,-0.085124,-0.002698,0.746458,-0.013974,0,0,0.723466946008887,0.1281951955949769,-0.6144385558219013,0.2797211735058942,-0.9468523872323084,-0.2544182436879132,-0.0836080553658878,-0.1761201813203688,0.3543415873624959,-0.2435198878965475,0.663525,0.416823,-0.526692,0.329528,-1.042512,-0.128904,0.008955,0.060761,0.366736,0.305161,0,0,0.6633832998878599,0.4170320403858432,-0.5271261794955935,0.3288517296114144,-1.0424523459232944,-0.1304319167033625,0.017319247522965,0.1318398984575023,0.9116422238342702,-0.2770187661055791
3593,2024 8 08,15:40:39.345,0.722468,0.113662,-0.621445,0.28094,-0.944256,-0.254327,-0.08222,0.096082,0.837499,0.191412,0,0,0.7234169987084426,0.1274685358152281,-0.6147888780308063,0.2797821148305995,-0.946722567870693,-0.2544136815035176,-0.0835386525975935,-0.1625100722543503,0.3784994579943711,-0.2217732935017201,0.663498,0.416789,-0.526725,0.329573,-1.043849,-0.125919,0.011264,-0.106055,0.199191,0.416552,0,0,0.6633890348934669,0.4170198883665509,-0.5271061205208137,0.3288877931308436,-1.0425221786271297,-0.1302062708681943,0.0170164851468167,0.1199451535346272,0.8760196626425567,-0.2423402278003001
3594,2024 8 08,15:40:39.353,0.722386,0.113701,-0.621523,0.280962,-0.948912,-0.256994,-0.081613,0.499282,0.757828,0.143886,0,0,0.7233654487730203,0.1267801590244666,-0.6151255841292659,0.2798411090890695,-0.9468320394771582,-0.2545426974283417,-0.0834423699677138,-0.1294204686416328,0.3974658850946526,-0.2034903288266341,0.663464,0.416745,-0.526768,0.329627,-1.043525,-0.125093,0.016356,-0.120461,0.239623,0.481073,0,0,0.6633927831487936,0.4170061439482234,-0.527089214494773,0.3289247534743014,-1.0425723196957732,-0.1299506073247846,0.0169834608894759,0.1079248458578958,0.8441998295104288,-0.2061695664102851
3595,2024 8 08,15:40:39.361,0.722368,0.113709,-0.621539,0.280968,-0.950076,-0.257727,-0.081553,0.597796,0.735294,0.124536,0,0,0.7233155763343693,0.1261266010732433,-0.6154462549228026,0.279897453634616,-0.9469942375033004,-0.2547019125569246,-0.0833479014693281,-0.0930596452095511,0.4143572908399199,-0.1870890123853024,0.663435,0.416697,-0.52681,0.32968,-1.046958,-0.138161,0.017556,-0.067753,0.351902,0.487466,0,0,0.6633948939913539,0.4169906867508122,-0.5270752537700343,0.3289625158005863,-1.0427916037109846,-0.1303611269585454,0.0170120878450021,0.099140953565001,0.8195849380349073,-0.1714877880897709
3596,2024 8 08,15:40:39.370,0.722308,0.113759,-0.621586,0.281001,-0.949098,-0.254484,-0.081177,0.654951,0.594265,0.260896,0,0,0.7232651975176508,0.1255082210195811,-0.6157532421766625,0.2799526309528852,-0.9470994256281352,-0.2546910169290784,-0.0832393563958617,-0.0556591129490736,0.4233526762979239,-0.1646897617660373,0.663412,0.416644,-0.526846,0.329735,-1.04435,-0.136049,0.018003,-0.061876,0.41781,0.648353,0,0,0.6633957492917862,0.4169733524132716,-0.5270637910815326,0.3290011400105569,-1.0428695235254353,-0.1306455206106181,0.017061633452752,0.091090105886751,0.799496191133162,-0.1304957486852823
3597,2024 8 08,15:40:39.378,0.722247,0.113794,-0.621642,0.281018,-0.946255,-0.255028,-0.085082,0.395858,0.464387,0.344651,0,0,0.7232142876417683,0.1249225099686021,-0.6160476800678294,0.2800058994052409,-0.9470572043467284,-0.2547078660826244,-0.0833314885760686,-0.0330832573016199,0.4254043924830276,-0.1392227236777354,0.663403,0.416573,-0.526879,0.329791,-1.044028,-0.136209,0.02185,-0.271819,0.689288,0.668229,0,0,0.6633961118271969,0.416953334792608,-0.527054551527456,0.3290406330100291,-1.0429274473491634,-0.1309236945800872,0.0173010517801144,0.0729446505924134,0.7939857815765038,-0.0905595112510182
3598,2024 8 08,15:40:39.386,0.722189,0.113828,-0.621697,0.281032,-0.947634,-0.254248,-0.078319,0.453465,0.387831,0.31807,0,0,0.7231630232596798,0.124367784470172,-0.6163301460644379,0.2800572044349788,-0.947086044129392,-0.2546848727784932,-0.0830808641472652,-0.0087558444365389,0.4235257228588762,-0.1163580874938486,0.663402,0.416563,-0.526883,0.329799,-1.043985,-0.136231,0.022371,-0.300217,0.72601,0.670917,0,0,0.6633964062358371,0.4169338180529776,-0.5270459739510831,0.3290785513595276,-1.0429803249817051,-0.1311890598510828,0.0175545491911087,0.0542865680627927,0.7905869924976785,-0.0524856856884673
3599,2024 8 08,15:40:39.395,0.72213,0.113874,-0.621743,0.281063,-0.94675,-0.255032,-0.082847,0.704428,0.369668,0.262895,0,0,0.7231113720966958,0.1238430952466634,-0.6166007887612159,0.2801074942132299,-0.9470692419229224,-0.2547022291395685,-0.0830691709399019,0.026903347785288,0.4208328367159324,-0.0973954331191562,0.663392,0.416502,-0.52691,0.329853,-1.040697,-0.133362,0.025319,-0.304383,0.526293,0.671312,0,0,0.6633961859240453,0.4169122271503287,-0.527039175253529,0.3291172737915512,-1.0428661587326198,-0.1312977068585287,0.0179427717315532,0.0363530896596531,0.7773722928727945,-0.0162958014040439
3600,2024 8 08,15:40:39.403,0.722065,0.113936,-0.621791,0.281099,-0.942891,-0.258821,-0.087403,0.865776,0.585625,0.291109,0,0,0.7230590534918611,0.1233477404843302,-0.6168602993231551,0.2801570695025684,-0.946860329826776,-0.25490816768259,-0.0832858623929068,0.0688469803960236,0.4290724448801357,-0.0779702114631984,0.66338,0.41643,-0.52694,0.32992,-1.038963,-0.134124,0.021735,-0.254433,0.59599,0.772589,0,0,0.663395376627843,0.4168881157928122,-0.5270342164908525,0.3291574101019736,-1.0426710007959887,-0.1314390215156022,0.0181323831449756,0.0218137851766704,0.7683031782291547,0.0231484386661582
3601,2024 8 08,15:40:39.411,0.722046,0.113953,-0.621805,0.28111,-0.941699,-0.26,-0.088604,0.906497,0.65582,0.302623,0,0,0.723008400817268,0.1228780034601137,-0.6171075343569973,0.2802047160274399,-0.9466022633354372,-0.2551627592984605,-0.0835517692732615,0.1107294813762224,0.4404098226361289,-0.0589405508900384,0.663365,0.416361,-0.526972,0.329987,-1.042667,-0.131455,0.022729,-0.246009,0.507832,0.689756,0,0,0.6633938577964508,0.4168617600031716,-0.5270311056663097,0.329198889596875,-1.0426708007561891,-0.1314398204398221,0.0183622139877268,0.0084226459178369,0.7552796193176969,0.0564788167328503
3602,2024 8 08,15:40:39.420,0.721978,0.114007,-0.621861,0.281139,-0.944898,-0.254411,-0.087113,0.316655,0.711052,0.21938,0,0,0.7229568807764046,0.122434453287108,-0.6173452076391474,0.2802514302260679,-0.9465170501686654,-0.2551251713335375,-0.0837298308095984,0.1210257573074113,0.4539419315043224,-0.0450245233455365,0.663342,0.416302,-0.527009,0.330047,-1.040569,-0.134528,0.017778,-0.244499,0.344068,0.526947,0,0,0.6633912649066283,0.4168337720030129,-0.5270300003829942,0.3292412951170312,-1.04256571071838,-0.131594229417831,0.0183330032883404,-0.0042234363780548,0.7347190383518121,0.0800022258962078
3603,2024 8 08,15:40:39.428,0.721903,0.114031,-0.621942,0.281144,-0.948727,-0.24976,-0.084882,0.154801,0.728104,0.190435,0,0,0.7229041867375844,0.1220142806227526,-0.6175750472571899,0.2802960587147645,-0.946627547660232,-0.2548569127668606,-0.0837874392691185,0.1227145194420407,0.4676500349291063,-0.0332515471782597,0.663314,0.41623,-0.527071,0.330095,-1.040951,-0.136279,0.014502,-0.439025,0.118222,0.690906,0,0,0.6633874016612967,0.4168035834028623,-0.5270320503638444,0.3292839803611796,-1.0424849751824607,-0.1318284679469394,0.0181414531239234,-0.0259635145591521,0.7038941864342214,0.1105474146013974
3604,2024 8 08,15:40:39.436,0.721826,0.114051,-0.622028,0.28114,-0.95024,-0.25008,-0.085841,0.004219,0.814699,0.143063,0,0,0.7228502774007052,0.1216161165916149,-0.6177976948943305,0.2803382557790262,-0.9468081702772204,-0.2546180671285176,-0.0838901173056625,0.1167897434699387,0.4850024831826509,-0.0244358198193467,0.663309,0.416216,-0.527083,0.330105,-1.041027,-0.136629,0.013848,-0.477842,0.073155,0.723623,0,0,0.6633834815782319,0.4167742042327191,-0.5270345978456521,0.3293250313431206,-1.0424120764233376,-0.1320684945495925,0.0179267804677272,-0.0485574388311945,0.6723572271125103,0.1412011938713275
3605,2024 8 08,15:40:39.445,0.721752,0.114061,-0.622111,0.281144,-0.950279,-0.252376,-0.08334,0.035598,0.722414,0.126722,0,0,0.7227953635306699,0.1212383607620342,-0.6180133601496139,0.2803785429900749,-0.9469817117633594,-0.2545059637720916,-0.0838626114403794,0.1127301562964417,0.4968730590235183,-0.0168779288283794,0.663274,0.416158,-0.527149,0.330142,-1.044464,-0.125747,0.016873,-0.248413,0.111232,0.825494,0,0,0.6633780074993203,0.4167433940210832,-0.5270403179533695,0.3293658797759646,-1.0425146726021706,-0.1317524198221128,0.0178740914443409,-0.0585502168896348,0.6443009657568848,0.1754158341777612
3606,2024 8 08,15:40:39.453,0.721678,-0.315994,-0.614187,-0.0454,-0.948289,-0.253508,-0.082985,0.17693,0.683173,0.123145,0,0,0.7227394953541364,0.0993767427239325,-0.6178220421421332,0.2640896158405711,-0.9470470761751916,-0.254456065583487,-0.0838187308683604,0.1159401484816196,0.5061880560723424,-0.0098767823869604,0.663257,0.416066,-0.527211,0.330193,-1.042963,-0.135894,0.012697,-0.573684,0.35425,0.894731,0,0,0.6633719571243543,0.416709524320029,-0.5270488520557011,0.3294072357871663,-1.042537088972062,-0.1319594988310072,0.0176152368721238,-0.084306906045153,0.6297984174690405,0.2113815924688731
3607,2024 8 08,15:40:39.461,0.721653,0.114086,-0.622216,0.281157,-0.947533,-0.253816,-0.083004,0.227998,0.674218,0.122328,0,0,0.7226851705864296,0.1001122055877358,-0.6180417400350265,0.2649429850485426,-0.947071372366432,-0.2544240623043127,-0.0837779943249424,0.1215430410575386,0.5145895532687252,-0.0032665432676124,0.663245,0.415965,-0.527271,0.330249,-1.044847,-0.128732,0.01789,-0.787049,0.548842,0.910533,0,0,0.6633656092681365,0.4166722981040275,-0.527059959452916,0.329449323997808,-1.0426525845234589,-0.1317981238894568,0.0176289750285176,-0.1194440107428954,0.6257505965955885,0.2463391628454294
3608,2024 8 08,15:40:39.470,0.721602,0.114106,-0.622267,0.281166,-0.947354,-0.254841,-0.082375,0.240119,0.63246,0.201399,0,0,0.722631012057108,0.100811895308349,-0.6182530030332752,0.2657541357961154,-0.9470855037481104,-0.254444909189097,-0.0837078446086953,0.1274718390046617,0.520483075605289,0.0069667338957682,0.663242,0.41586,-0.527322,0.330306,-1.046394,-0.097598,0.003968,-0.700203,0.686684,0.776797,0,0,0.6633594288047296,0.4166316831988261,-0.5270730614802701,0.3294921577979176,-1.0428396552972858,-0.1300881176949839,0.0169459262770917,-0.1484819602057506,0.628797266765809,0.272862054703158
3609,2024 8 08,15:40:39.478,0.721538,0.114136,-0.622329,0.28118,-0.947623,-0.254613,-0.082435,0.360612,0.616053,0.233117,0,0,0.7225763614542525,0.1014781005429316,-0.6184568028816114,0.2665254290063096,-0.9471123785607048,-0.2544533137296421,-0.0836442023782605,0.1391288470544286,0.5252615718250245,0.0182742472009798,0.663245,0.415965,-0.527271,0.330249,-1.045688,-0.129529,0.022908,-0.588231,0.720626,0.698572,0,0,0.6633537073644931,0.4165983490388848,-0.5270829584062566,0.3295299999080217,-1.0429820725324217,-0.1300601618102347,0.0172440299632372,-0.1704694121954631,0.6333887034275185,0.2941475519680001
3610,2024 8 08,15:40:39.486,0.721467,0.114176,-0.622393,0.281204,-0.950838,-0.254149,-0.080331,0.525645,0.650589,0.163767,0,0,0.7225208933815399,0.102112995515785,-0.6186536127375308,0.2672593575559941,-0.9472986596326696,-0.25443809804316,-0.0834785422593475,0.1584546547017072,0.5315279432337733,0.0255488848409308,0.663246,0.420409,-0.526787,0.325355,-1.045508,-0.129791,0.022939,-0.559686,0.729279,0.678631,0,0,0.6633483219962684,0.4167888815869406,-0.5270681604859437,0.3293212499126206,-1.0431083689058005,-0.130046703719723,0.0175287784650753,-0.1899302415856899,0.6381832182561425,0.3133717243696
3611,2024 8 08,15:40:39.495,0.721394,0.114208,-0.622461,0.281228,-0.950939,-0.252754,-0.080054,0.357413,0.627394,0.056977,0,0,0.7224645487124629,0.1027177457399957,-0.6188439821006543,0.2679577896781944,-0.947480676651036,-0.254353893141002,-0.0833073151463801,0.1684025719666218,0.5363212460720845,0.0271202905988842,0.66325,0.415665,-0.527395,0.33042,-1.040149,-0.129506,0.023301,-0.507905,0.731558,0.540594,0,0,0.6633434058964549,0.4167326875075935,-0.5270845024616465,0.3293761874169896,-1.0429604004605102,-0.1300196685337368,0.0178173895418215,-0.2058289795064054,0.6428519573433354,0.32473283815112
3612,2024 8 08,15:40:39.503,0.721325,0.114225,-0.622529,0.281247,-0.949565,-0.253094,-0.080073,0.238351,0.539484,0.016124,0,0,0.7224075712768397,0.103293108452996,-0.6190282329956216,0.2686222501942847,-0.9475848928184842,-0.2542908984839518,-0.0831455993890611,0.1718999933682907,0.5364793837684803,0.02657047606894,0.663248,0.415597,-0.527423,0.330464,-1.042194,-0.130129,0.0255,-0.40631,0.513366,0.415561,0,0,0.6633386356016322,0.4166759031322138,-0.5271014273385641,0.3294305780461401,-1.0429220804374846,-0.13002513510705,0.0182015200647304,-0.2158530305310851,0.6363776594761686,0.329274246243564
3613,2024 8 08,15:40:39.511,0.721299,0.11423,-0.622555,0.281254,-0.948994,-0.253329,-0.080078,0.199181,0.503181,0.004692,0,0,0.7223521427129977,0.1038399530303461,-0.6192045713458405,0.2692538376845704,-0.94765534817756,-0.2542428035597542,-0.082992219419608,0.1732640436998762,0.5348144645800562,0.025476552265493,0.663242,0.41586,-0.527322,0.330306,-1.045189,-0.130304,0.012613,-0.334605,0.58213,0.380571,0,0,0.6633338038215505,0.4166351079756031,-0.5271124559716358,0.3294743491438331,-1.0430354264156103,-0.1300390783516975,0.0179220940614939,-0.2217906290045309,0.6336652765023603,0.3318390839313858
3614,2024 8 08,15:40:39.520,0.721258,0.114224,-0.6226,0.281262,-0.949718,-0.253397,-0.078896,0.039866,0.34469,0.001402,0,0,0.7222974355773478,0.1043591553788288,-0.6193743427785484,0.2698542458003419,-0.947758480768682,-0.2542005133817665,-0.0827874084486276,0.1665941415148824,0.5253082413510535,0.0242728246522184,0.663238,0.415469,-0.527486,0.330544,-1.043312,-0.130354,0.02397,-0.527957,0.601919,0.327704,0,0,0.6633290136304729,0.4165768025768229,-0.5271311331730539,0.3295278316866414,-1.0430492550948298,-0.1300548244341126,0.0182244893584192,-0.2370989475543043,0.6320779626772423,0.3316323297348165
3615,2024 8 08,15:40:39.528,0.721213,0.114221,-0.622647,0.281274,-0.947726,-0.254588,-0.079241,0.116315,0.128525,0.073644,0,0,0.7222432137984804,0.1048522476098874,-0.619537975639621,0.2704252335103248,-0.9477568567302478,-0.2542198877126781,-0.0826100880261962,0.1640801844391382,0.5054690792835008,0.0267413834196074,0.663252,0.415381,-0.527523,0.330567,-1.041403,-0.126982,0.023263,-0.923749,0.480775,0.31208,0,0,0.6633251629489493,0.4165170124479818,-0.5271507265144012,0.3295797901023094,-1.0429669423400882,-0.1299011832124069,0.0184764148904983,-0.2714314501765891,0.6245128145433801,0.3306547132480756
3616,2024 8 08,15:40:39.536,0.721171,0.114219,-0.622686,0.281298,-0.947339,-0.251364,-0.082959,0.19835,0.040348,-0.001769,0,0,0.7221896031085564,0.105320585229393,-0.6196953768576399,0.2709688718348085,-0.9477359638937354,-0.2540770933270442,-0.0826275336248864,0.1657936752171813,0.4822130253193257,0.0253158642486271,0.663256,0.415355,-0.527534,0.330574,-1.040824,-0.12596,0.023048,-1.043731,0.44405,0.307343,0,0,0.6633217048015019,0.4164589118255827,-0.5271698901886811,0.3296295005971939,-1.0428597952230838,-0.1297041240517866,0.0187049941459733,-0.3100464276677597,0.6154896738162111,0.3294891275856718
3617,2024 8 08,15:40:39.545,0.721134,0.114209,-0.622719,0.281323,-0.947022,-0.252074,-0.083791,0.086126,-0.022864,-0.00617,0,0,0.7221368229531286,0.1057650059679233,-0.6198465580147579,0.2714865782430681,-0.9477002656990484,-0.253976938660692,-0.0826857069436421,0.1618102914563223,0.4569591740533594,0.0237415710361957,0.663252,0.415381,-0.527523,0.330567,-1.041638,-0.125642,0.021987,-0.791003,0.474072,0.388727,0,0,0.6633182195614268,0.4164050162343035,-0.5271875456792471,0.3296763755673342,-1.0427987054619294,-0.1295010178491973,0.0188690944386747,-0.3340942562843717,0.6084187901254006,0.3324510212063882
3618,2024 8 08,15:40:39.553,0.721096,0.114197,-0.622755,0.281348,-0.946594,-0.247666,-0.098096,0.099181,-0.013051,-0.037474,0,0,0.7220847818054721,0.1061866056695272,-0.6199919801140199,0.2719796493309147,-0.947644952414096,-0.2536613917276574,-0.08345622159646,0.1586788268835061,0.4334586653506915,0.0206807924843859,0.663242,0.41586,-0.527322,0.330306,-1.040258,-0.129805,0.020994,-0.46473,0.401634,0.373606,0,0,0.6633144085833553,0.4163777654225883,-0.5271942683952846,0.3297078567889675,-1.0426716701888328,-0.1295162169567374,0.0189753397167409,-0.3406260434701531,0.5980795506191305,0.3345087701460688
3619,2024 8 08,15:40:39.561,0.721079,0.114191,-0.62277,0.281358,-0.94641,-0.250324,-0.083546,0.114392,-0.004378,-0.053132,0,0,0.7220344927151985,0.1065868253860508,-0.6201308811083188,0.2724485668643689,-0.9475832047933912,-0.2534945221412745,-0.083460710516637,0.1564644855393308,0.4115668320831568,0.0169901528601666,0.663225,0.420343,-0.526839,0.3254,-1.040782,-0.130184,0.020022,-0.318134,0.175284,0.449815,0,0,0.6633099381541876,0.4165760271514589,-0.5271765049755203,0.3294924639495191,-1.0425771866793911,-0.1295496061089005,0.0190276727309039,-0.3395014412966454,0.576939773088174,0.3402740816387653
3620,2024 8 08,15:40:39.570,0.721071,0.114189,-0.622778,0.281363,-0.946319,-0.250012,-0.083499,0.121975,-5.4e-05,-0.060937,0,0,0.7219863180794385,0.1069669341167483,-0.6202632370529029,0.2728942885211505,-0.9475199945537216,-0.2533203960342108,-0.0834626249908051,0.1547400112623643,0.390985790478999,0.0130937952171583,0.663211,0.415146,-0.527671,0.330709,-1.040848,-0.130829,0.019342,-0.228761,0.054307,0.487803,0,0,0.6633049912464781,0.4165045257938859,-0.5272012297267442,0.3295532907520432,-1.0424907273454216,-0.1296135758034555,0.0190433890943587,-0.3339644192318131,0.5508081344337653,0.347650527556827
3621,2024 8 08,15:40:39.578,0.721035,0.114155,-0.622815,0.281387,-0.948692,-0.251432,-0.081599,-0.115349,0.059353,-0.239095,0,0,0.7219387521754665,0.1073263374109108,-0.6203908252002578,0.2733189240950929,-0.9475785948260356,-0.2532259762325002,-0.0833694437412648,0.1412355606992461,0.374404150955049,0.0004843554563004,0.663171,0.415102,-0.52773,0.33075,-1.040195,-0.13339,0.018423,-0.149085,-0.00653,0.512344,0,0,0.6632982916841542,0.4164343995041916,-0.527227668240407,0.329613126214441,-1.0423759409781506,-0.1298023970132827,0.0190123696396408,-0.3247204482702224,0.522941227712077,0.3558852011789856
3622,2024 8 08,15:40:39.586,0.720997,0.11411,-0.62286,0.281403,-0.946418,-0.251939,-0.081548,-0.180247,0.002504,-0.185467,0,0,0.7218916645666933,0.1076655205403653,-0.6205142839402449,0.2737231278903383,-0.9475205650847336,-0.2531616274208752,-0.0832783715542016,0.1251614326642837,0.3558091434072966,-0.0088132123165146,0.663136,0.415058,-0.527788,0.330783,-1.043818,-0.131438,0.02042,-0.298591,-0.058736,0.664678,0,0,0.6632901770999464,0.416365579528982,-0.5272556848283867,0.3296716199037189,-1.042448043929243,-0.1298841771626185,0.0190827511576587,-0.3234139758567113,0.4938573663264731,0.3713248411200363
3623,2024 8 08,15:40:39.595,0.720962,0.114076,-0.622903,0.281412,-0.947706,-0.257949,-0.083849,-0.182944,0.057734,-0.010459,0,0,0.7218451813383586,0.107986044513347,-0.6206337197432326,0.2741075714958214,-0.9475298368304969,-0.2534009960498314,-0.0833069029764915,0.1097561610310696,0.3409053862369317,-0.0088955017006888,0.663129,0.415048,-0.5278,0.330789,-1.043781,-0.131419,0.020192,-0.328166,-0.060905,0.678796,0,0,0.6632821182449491,0.4162997005525329,-0.5272829005869674,0.329727488908533,-1.0425146917327808,-0.1299609183044876,0.0191382135997758,-0.3236515770638757,0.4661192480101494,0.3866983990640345
3624,2024 8 08,15:40:39.603,0.720925,0.114051,-0.62294,0.281434,-0.945961,-0.257829,-0.085793,0.100663,-0.166202,-0.057485,0,0,0.7217991722714407,0.1082892922876797,-0.6207490337560709,0.2744738929210303,-0.947451394988972,-0.2536223962473398,-0.0834312078276669,0.1093015029795161,0.3155500169250851,-0.0113249766156544,0.66309,0.419976,-0.527119,0.325696,-1.043031,-0.131688,0.018093,-0.454023,-0.053353,0.705638,0,0,0.6632725123327016,0.4164835155249062,-0.527274705557619,0.3295259144631063,-1.0425405071461418,-0.1300472723892632,0.019085952919787,-0.3301701482106819,0.4401456356096419,0.4026453791108327
3625,2024 8 08,15:40:39.611,0.720894,0.114039,-0.62297,0.281451,-0.947631,-0.252451,-0.085928,0.120281,-0.125759,0.107063,0,0,0.7217539136578687,0.1085767776732957,-0.6208600820682674,0.2748227482749787,-0.9474603752395232,-0.2535638264349728,-0.0835560474362836,0.1098504778305403,0.2934845660788309,-0.0054055777848717,0.663055,0.414932,-0.527944,0.330855,-1.045083,-0.13063,0.018384,-0.355431,-0.027148,0.577508,0,0,0.6632616367160664,0.4164059397486609,-0.5273081702797381,0.3295923687399509,-1.0426676317888346,-0.1300764087698001,0.0190508552737976,-0.3314331908001479,0.4167809538291598,0.4113885101552911
3626,2024 8 08,15:40:39.620,0.72087,0.114039,-0.62299,0.281469,-0.948209,-0.253332,-0.082851,0.232176,-0.177566,0.17576,0,0,0.7217097179749752,0.1088498887896309,-0.620966577964854,0.2751550608612298,-0.9474978064775472,-0.2535522351132241,-0.0835207950644694,0.1159667539390132,0.2699320377748893,0.0036527011043718,0.663018,0.414871,-0.528021,0.330882,-1.041199,-0.128993,0.02562,-0.563361,-0.182952,0.662318,0,0,0.6632494548802631,0.4163291927612279,-0.5273438117657512,0.3296568503029534,-1.0425942001993929,-0.13002223833131,0.0193793125101077,-0.3430295812601405,0.3867943061377018,0.4239349846475265
3627,2024 8 08,15:40:39.628,0.720868,-0.008002,-0.442051,-0.533668,-0.948264,-0.253415,-0.082558,0.242834,-0.1825,0.182303,0,0,0.7216676320762263,0.1030072943501493,-0.6120207990666113,0.2347139078181683,-0.9475361161536696,-0.2535453733575629,-0.0834726553112459,0.1223101162420626,0.2473104358861448,0.0125852160491532,0.662972,0.414812,-0.528105,0.330915,-1.039795,-0.131329,0.023559,-0.434765,-0.299174,0.670396,0,0,0.6632355821362499,0.4162533331231665,-0.5273818711774636,0.3297197577878057,-1.0424542401894232,-0.1300875764147445,0.0195882968846024,-0.3476163521971335,0.3524958908308167,0.4362580354151501
3628,2024 8 08,15:40:39.636,0.720854,0.114046,-0.622999,0.281486,-0.946554,-0.250422,-0.081669,0.351215,-0.343881,0.290241,0,0,0.721626950472415,0.1035592296326418,-0.6125697091132807,0.2370525124272599,-0.947487010345986,-0.2533892046896848,-0.0833824725456836,0.1337553604299595,0.2177508640918376,0.0264680052466956,0.662925,0.419108,-0.527528,0.326486,-1.042611,-0.133065,0.022595,-0.374544,-0.358063,0.671266,0,0,0.6632200530294374,0.4163960664670081,-0.5273891776185904,0.3295580698984154,-1.042462078179952,-0.1302364475940073,0.0197386320403722,-0.3489627345872768,0.3169679462892759,0.4480084336443926
3629,2024 8 08,15:40:39.645,0.720836,0.11406,-0.623005,0.281515,-0.94635,-0.252178,-0.0841,0.522867,-0.310344,0.19741,0,0,0.7215874029487942,0.1040842681510097,-0.6130914736576166,0.2392756368058969,-0.9474301598286868,-0.2533286444552005,-0.0834183489183994,0.1532109424084615,0.1913461208872457,0.0350151049843608,0.662912,0.41476,-0.5282,0.330947,-1.04272,-0.133216,0.021907,-0.353022,-0.379425,0.671371,0,0,0.6632046503779655,0.4163142631436577,-0.5274297187376609,0.3296275164034946,-1.0424749742709545,-0.1303854252143069,0.0198470504383536,-0.3491656978579129,0.2821482989748121,0.4591765619621729
3630,2024 8 08,15:40:39.653,0.720821,0.114081,-0.623006,0.281542,-0.94841,-0.251158,-0.086508,0.545477,-0.358101,0.237357,0,0,0.7215490828013544,0.1045841047434592,-0.6135871999747358,0.241388954965602,-0.9474791518372524,-0.2532201122324405,-0.0835728314724794,0.1728242452880384,0.1638737648428834,0.0451321997351428,0.662856,0.414725,-0.528281,0.330976,-1.041742,-0.132874,0.017868,-0.274055,-0.47248,0.671384,0,0,0.6631872178590672,0.4162347999864748,-0.5274722828007777,0.3296949405833199,-1.0424383255574068,-0.1305098539535916,0.0197480979164359,-0.3454101629650172,0.2444168840260714,0.4697869338640643
3631,2024 8 08,15:40:39.661,0.720804,0.114084,-0.623011,0.281573,-0.948705,-0.249996,-0.091004,0.394265,-0.364942,0.037145,0,0,0.7215118286612866,0.1050590995062863,-0.6140583899759989,0.2433981572173219,-0.9475404442453896,-0.2530589066208185,-0.0839443898988555,0.1838962830236365,0.1374329766007392,0.0447328397483856,0.662797,0.414686,-0.528368,0.331002,-1.044674,-0.132269,0.015264,-0.365712,-0.478847,0.650503,0,0,0.6631677069661138,0.416157359987151,-0.5275170686607388,0.3297602935541538,-1.0425501092795364,-0.130597811255912,0.0195238930206141,-0.3464252548167664,0.2082536898247678,0.478822737170861
3632,2024 8 08,15:40:39.670,0.720784,0.114083,-0.623022,0.2816,-0.946718,-0.253152,-0.088524,0.320101,-0.264379,0.006223,0,0,0.7214754372282223,0.105510294530972,-0.6145065704771989,0.2453082493564558,-0.9474993220331202,-0.2530635612897775,-0.0841733704039127,0.1907065188724546,0.1173423777707023,0.0428073477609663,0.662745,0.414642,-0.528457,0.331022,-1.045708,-0.12866,0.016499,-0.467747,-0.3878,0.515459,0,0,0.6631465716178081,0.4160815919877935,-0.5275640652277018,0.3298233788764461,-1.0427080038155596,-0.1305009206931164,0.0193726483695834,-0.352491342075928,0.1784510053335294,0.4806545503123179
3633,2024 8 08,15:40:39.678,0.720781,0.114083,-0.623024,0.281605,-0.946389,-0.253778,-0.08921,0.307837,-0.247749,0.001109,0,0,0.7214407153668111,0.1059389298044234,-0.614932441953339,0.247123086888633,-0.9474438059314642,-0.2530992832252886,-0.0844252018837171,0.1965630429288319,0.0990878088821671,0.040722430372918,0.662707,0.41459,-0.52853,0.331045,-1.041163,-0.124424,0.020912,-0.477839,-0.096265,0.486345,0,0,0.6631245930369176,0.4160070123884038,-0.5276123619663168,0.3298844599326238,-1.0426307536247816,-0.1301970746584606,0.0194496159511042,-0.3587587249721316,0.164715205066853,0.480939072796702
3634,2024 8 08,15:40:39.686,0.720754,0.114074,-0.623049,0.281622,-0.9495,-0.247654,-0.092691,0.058109,-0.145794,0.000209,0,0,0.7214063795984704,0.1063456833142022,-0.615338269855672,0.2488480325442013,-0.947546615634891,-0.2528270190640242,-0.0848384917895312,0.1896403407823903,0.0868437184380588,0.0386967588542721,0.662676,0.414544,-0.528594,0.331062,-1.043446,-0.129583,0.022864,-0.436796,-0.216227,0.438402,0,0,0.6631021633850717,0.4159338617689836,-0.527661443868001,0.3299433369359926,-1.0426715159435425,-0.1301663709255375,0.019620335153549,-0.362660588723525,0.1456680948135103,0.4788122191568669
3635,2024 8 08,15:40:39.695,0.720726,0.114074,-0.623071,0.281646,-0.947733,-0.254064,-0.08653,0.304904,-0.175681,0.097822,0,0,0.7213723606185469,0.1067320991484921,-0.6157249063628883,0.2504879309169913,-0.9475559348531464,-0.252888868110823,-0.0849230672000546,0.1954035237432708,0.0737174825161558,0.0416530209115585,0.662665,0.414532,-0.528613,0.331069,-1.043607,-0.132763,0.018883,-0.402704,-0.245197,0.429466,0,0,0.6630803052158181,0.4158637686805344,-0.5277090216746009,0.329999620089193,-1.0427182901463654,-0.1302962023792606,0.0195834683958716,-0.3646627592873487,0.1261248400728348,0.4763449081990235
3636,2024 8 08,15:40:39.703,0.720701,0.114081,-0.623084,0.281677,-0.947386,-0.252786,-0.085677,0.449966,-0.181554,0.117004,0,0,0.7213387925876195,0.1070995441910675,-0.6160928610447439,0.2520473843711417,-0.9475474381104888,-0.2528837247052818,-0.0849607638400519,0.2081316475561072,0.060953908390348,0.0454205698659806,0.662624,0.414504,-0.528673,0.33109,-1.041968,-0.128305,0.025205,-0.215932,-0.3057,0.440767,0,0,0.6630574899550271,0.4157957802465076,-0.5277572205908708,0.3300541390847333,-1.042680775639047,-0.1301966422602976,0.019864544976078,-0.3572262213229813,0.104533598069193,0.4745660127890723
3637,2024 8 08,15:40:39.711,0.72067,0.114094,-0.623106,0.281703,-0.949604,-0.252523,-0.083212,0.384525,-0.135077,0.168652,0,0,0.7213053529582385,0.1074492669815141,-0.6164435179925067,0.2535301651525846,-0.9476502662049644,-0.2528656884700177,-0.0848733256480493,0.2169513151783018,0.0511523629708306,0.0515821413726815,0.662564,0.414481,-0.528748,0.331119,-1.041424,-0.130479,0.021989,-0.094905,-0.394221,0.519133,0,0,0.6630328154572758,0.4157300412341822,-0.5278067595613272,0.3301073821304967,-1.0426179368570947,-0.1302107601472827,0.0199707677272741,-0.3441101602568322,0.0795958681657334,0.4767943621496187
3638,2024 8 08,15:40:39.720,0.72065,0.114106,-0.623113,0.281733,-0.945937,-0.252466,-0.081172,0.46461,-0.360591,0.179808,0,0,0.7212725853103266,0.1077821036324384,-0.6167769920928814,0.2549403068949554,-0.9475646028947162,-0.2528457040465168,-0.0846882593656468,0.2293342494193868,0.0305651948222891,0.0579934343040475,0.662501,0.414465,-0.528822,0.331148,-1.039799,-0.129798,0.019593,-0.081502,-0.378971,0.50169,0,0,0.663006224684412,0.4156667891724731,-0.5278575215832608,0.3301594130239718,-1.04247699001424,-0.1301901221399185,0.0199518793409104,-0.3309797522439905,0.0566675247574467,0.4780391440421377
3639,2024 8 08,15:40:39.728,0.720645,0.114108,-0.623115,0.28174,-0.94511,-0.252453,-0.080712,0.482662,-0.411423,0.182323,0,0,0.7212412060448102,0.1080983984508165,-0.6170938924882373,0.2562802915502076,-0.9474418727499804,-0.2528260688441909,-0.0844894463973645,0.2420006369484174,0.0084657850811746,0.0642099125888451,0.662439,0.41444,-0.528899,0.331178,-1.039051,-0.13051,0.020563,-0.171573,-0.434667,0.550597,0,0,0.6629778634501913,0.4156054497138495,-0.5279095955040978,0.3302103423727732,-1.042305690513528,-0.1302061160329226,0.0199824353738649,-0.323009414631791,0.0321007985195744,0.4816670368400308
3640,2024 8 08,15:40:39.736,0.720638,0.114121,-0.623109,0.281769,-0.945652,-0.253554,-0.083548,0.62488,-0.515336,0.228907,0,0,0.7212110457425697,0.1083995285282756,-0.6173946478638254,0.2575547269726972,-0.9473523791124814,-0.2528624654019814,-0.0844423740774962,0.2611446051009966,-0.017724304172884,0.0724447669594028,0.66238,0.414411,-0.52898,0.331203,-1.044603,-0.13004,0.020154,-0.272252,-0.567058,0.641621,0,0,0.6629479702776817,0.415545727228157,-0.5279631157288929,0.3302599752541345,-1.0424205559878514,-0.1301978102312765,0.0199910136051716,-0.3204715439002014,0.0021428585935957,0.4896647349980292
3641,2024 8 08,15:40:39.745,0.720629,0.114148,-0.623098,0.281802,-0.944693,-0.253822,-0.082784,0.704972,-0.449731,0.285708,0,0,0.7211819434554411,0.1086869521018618,-0.6176798154706341,0.2587670906240623,-0.9472194101568572,-0.2529104421318823,-0.0843594553736214,0.2833359748459467,-0.0393246389642398,0.0831079286114327,0.662359,0.414401,-0.529009,0.331212,-1.045513,-0.046928,0.067859,-0.28448,-0.593155,0.651497,0,0,0.6629185217637975,0.4154884908667491,-0.5280154099424482,0.3303075764914278,-1.042575178188459,-0.1260343197197126,0.022384412924913,-0.3186719667051914,-0.027622034336084,0.4977563482481277
3642,2024 8 08,15:40:39.753,0.720622,0.11417,-0.623086,0.281839,-0.946968,-0.252452,-0.085467,0.680249,-0.523039,0.255109,0,0,0.7211539462826689,0.1089611044967688,-0.6179501246971023,0.2599206860928592,-0.9472068396490144,-0.2528875200252882,-0.0844148326049403,0.3031816261036494,-0.0635103570160278,0.091707982180861,0.662304,0.414376,-0.529085,0.331233,-1.043042,-0.129395,0.014064,-0.197705,-0.554809,0.588429,0,0,0.6628877956756076,0.4154328663234116,-0.5280688894453258,0.3303538476668564,-1.0425985192790357,-0.126202353733727,0.0219683922786674,-0.3126236183699318,-0.0539813826192798,0.5022899808357213
3643,2024 8 08,15:40:39.761,0.720615,0.114201,-0.623076,0.281867,-0.947561,-0.24652,-0.091535,0.6738,-0.497745,0.469206,0,0,0.7211269989685355,0.1092230992719303,-0.6182064184622472,0.2610180017882162,-0.9472245476665636,-0.2525691440240237,-0.0847708409746933,0.3217125447984669,-0.0852220891652264,0.110582883071818,0.662239,0.41435,-0.529169,0.331262,-1.04282,-0.13154,0.018765,-0.134283,-0.536424,0.648798,0,0,0.6628553558918272,0.415378723007241,-0.5281238949730596,0.3303992552835135,-1.0426095933150838,-0.1264692360470406,0.021808222664734,-0.3037065874514352,-0.0781035134883158,0.5096153817939352
3644,2024 8 08,15:40:39.770,0.720612,0.114234,-0.623058,0.2819,-0.949477,-0.252701,-0.082899,0.759891,-0.622677,0.439017,0,0,0.7211012490201087,0.1094736443083338,-0.6184489975391348,0.2620621016988054,-0.9473371702832352,-0.2525757368228225,-0.0846772489259586,0.3436214675585435,-0.1120948347069651,0.1270045889182271,0.662171,0.414314,-0.529271,0.33128,-1.041734,-0.129315,0.017626,-0.333188,-0.721354,0.670988,0,0,0.6628211380972359,0.415325486856879,-0.5281812502244065,0.3304432925193379,-1.0425658136493297,-0.1266115242446886,0.0215991115314973,-0.3051806580788634,-0.1102660378139001,0.5176840127042384
3645,2024 8 08,15:40:39.778,0.720611,0.114244,-0.623054,0.281909,-0.950009,-0.252869,-0.082978,0.783771,-0.657331,0.430643,0,0,0.7210767365691033,0.1097121620929171,-0.6186792476621781,0.2630544466138652,-0.9474707617690736,-0.2525903999816814,-0.0845922864796607,0.3656289441806163,-0.1393566429716168,0.1421865094723157,0.662097,0.414277,-0.529381,0.331298,-1.042964,-0.126689,0.015508,-0.307388,-0.755037,0.708823,0,0,0.662784931192374,0.415273062514035,-0.5282412377131862,0.330486027893371,-1.0425857229668631,-0.1266153980324542,0.0212945559549224,-0.3052910251749202,-0.142504585923205,0.5272409620690264
3646,2024 8 08,15:40:39.786,0.720621,0.114275,-0.623025,0.281934,-0.951191,-0.254635,-0.078878,0.790586,-0.838988,0.557079,0,0,0.7210539497406481,0.1099403039882712,-0.6188965352790691,0.2639984242831719,-0.9476567736806198,-0.2526926299825973,-0.0843065721556777,0.3868767969715855,-0.174338210823036,0.1629311339986999,0.662024,0.414244,-0.529485,0.331319,-1.045766,-0.12672,0.015833,-0.251277,-0.659048,0.647646,0,0,0.6627468846327553,0.4152216093883332,-0.5283034258275269,0.3305276764987024,-1.04274473681852,-0.1266206281308314,0.0210214781571763,-0.3025903239161741,-0.1683317566270448,0.533261213965575
3647,2024 8 08,15:40:39.795,0.720634,0.114309,-0.622985,0.281976,-0.949499,-0.252095,-0.083792,0.877528,-0.934722,0.381788,0,0,0.7210329522536156,0.1101587387888577,-0.6191009585151156,0.2648973030690133,-0.9477488849965888,-0.2526627484834675,-0.0842808435478938,0.4114093571230062,-0.2123574002818842,0.1738739772987649,0.661961,0.414223,-0.529574,0.331329,-1.048939,-0.075408,0.016876,-0.161366,-0.667634,0.409333,0,0,0.6627075904011175,0.4151716789189166,-0.5283669545361505,0.3305677426737673,-1.0430544499775938,-0.1240599967242898,0.0208142042493175,-0.2955291077203654,-0.1932968687956925,0.5270648032672963
3648,2024 8 08,15:40:39.803,0.720652,0.114349,-0.622936,0.28202,-0.948318,-0.253011,-0.089304,0.861672,-1.047548,0.455091,0,0,0.7210139046409348,0.1103682518494148,-0.6192927105893599,0.2657534379155626,-0.9477773407467592,-0.2526801610592941,-0.0845320013704991,0.4339224892668558,-0.25411693026779,0.1879348284338267,0.661937,0.414216,-0.529607,0.331333,-1.04912,-0.128351,0.02342,-0.128637,-0.653175,0.331957,0,0,0.6626690608810616,0.4151238949729707,-0.528428956809343,0.3306060055400789,-1.043357727478714,-0.1242745468880753,0.0209444940368516,-0.2871845023343471,-0.2162907753559079,0.5173094131039315
3649,2024 8 08,15:40:39.811,0.720672,0.114389,-0.622885,0.282066,-0.948951,-0.251298,-0.084353,0.939909,-1.040772,0.43613,0,0,0.7209968094088881,0.110569289256944,-0.6194723250598918,0.2665690660197845,-0.9478360237094212,-0.2526110530063293,-0.0845230513019741,0.459221814803513,-0.2934496837544004,0.2003445870121354,0.661887,0.414208,-0.529668,0.331344,-1.043838,-0.129154,0.022902,-0.082602,-0.546508,0.272157,0,0,0.6626299578370085,0.4150781002243222,-0.5284909089688758,0.330642905263075,-1.0433817411047783,-0.1245185195436716,0.021042369335009,-0.2769553772176298,-0.2328016365881125,0.5050517924487349
3650,2024 8 08,15:40:39.820,0.720691,0.114416,-0.622839,0.282108,-0.948164,-0.2501,-0.083448,0.758991,-0.997511,0.306776,0,0,0.7209815189384436,0.1107616247940968,-0.6196406588068971,0.2673460127187952,-0.9478524225239502,-0.2524855003560128,-0.0844692987368754,0.4742102740633374,-0.3286527495666804,0.2056661576615286,0.661826,0.414204,-0.52974,0.331356,-1.039459,-0.129532,0.023325,-0.04583,-0.576202,0.253281,0,0,0.6625897599451581,0.4150343952131061,-0.528553363520432,0.3306785599999212,-1.0431856040495393,-0.124769193566488,0.0211565008682586,-0.2653991083567483,-0.2499716547587069,0.4924632528262981
3651,2024 8 08,15:40:39.828,0.720697,0.114424,-0.622824,0.282122,-0.94791,-0.249713,-0.083156,0.700586,-0.983545,0.265017,0,0,0.7209672929915214,0.110944743554392,-0.6197998258665522,0.2680848120828554,-0.9478553013977526,-0.2523468753382122,-0.0844036338000316,0.4855290603601704,-0.3613973620883464,0.2086336997784522,0.661751,0.414212,-0.529818,0.33137,-1.039066,-0.127455,0.021685,0.1068,-0.761736,0.252689,0,0,0.6625478219479002,0.4149932754524508,-0.5286165953444104,0.3307131319999251,-1.0429796238470623,-0.1249034838881636,0.0211829258248456,-0.2467891529389108,-0.2755598720207716,0.4804745401849832
3652,2024 8 08,15:40:39.836,0.720707,0.114439,-0.62279,0.282167,-0.944851,-0.248264,-0.081335,0.671613,-0.924243,0.191928,0,0,0.7209542783419454,0.1111194563766724,-0.6199493345732245,0.2687889214787126,-0.947705086327865,-0.2521427315713015,-0.08425020211003,0.4948332573421619,-0.389539643983929,0.2077984147895296,0.661635,0.414236,-0.52993,0.331393,-1.040547,-0.132291,0.020033,0.182515,-0.853774,0.30477,0,0,0.6625021808505052,0.4149554116798282,-0.5286822655771899,0.3307471253999288,-1.0428579926547092,-0.1252728596937554,0.0211254295336034,-0.2253239452919653,-0.304470578419733,0.471689313175734
3653,2024 8 08,15:40:39.845,0.720713,0.114439,-0.622765,0.282207,-0.947264,-0.25136,-0.08849,0.465114,-0.864158,0.183308,0,0,0.7209422144248481,0.1112854335578387,-0.6200901178445634,0.269459825404777,-0.9476830320114716,-0.2521035949927365,-0.0844621920045285,0.4933472944750537,-0.4132705617847326,0.2065738940500531,0.661538,0.414258,-0.53002,0.331414,-1.045807,-0.13185,0.01525,0.242724,-0.973741,0.364799,0,0,0.6624539718079798,0.4149205410958368,-0.5287491522983304,0.3307804691299323,-1.0430054430219735,-0.1256017167090676,0.0208316580569232,-0.201921548027367,-0.3379340994987463,0.4663447975169472
3654,2024 8 08,15:40:39.853,0.720723,0.114438,-0.622734,0.28225,-0.948576,0.195939,0.025918,0.631833,-0.905647,0.132324,0,0,0.7209312537036057,0.1114430618799468,-0.6202223119523352,0.2700993341345381,-0.9477276804108982,-0.2297014652430996,-0.0789431824043021,0.5002715797513011,-0.4378893836954959,0.2028613993475504,0.661536,0.414259,-0.530022,0.331415,-1.045926,-0.13184,0.015141,0.244087,-0.976456,0.366158,0,0,0.6624080732175808,0.414887464041045,-0.5288127946834138,0.3308121956734357,-1.0431514708708751,-0.1259136308736142,0.020547125154077,-0.1796211206259987,-0.369860194523809,0.4613354576410998
3655,2024 8 08,15:40:39.861,0.720734,0.114437,-0.622703,0.28229,-0.94955,-0.252211,-0.084901,0.569261,-0.965045,0.172637,0,0,0.7209213910184253,0.1115927587859494,-0.6203463463547184,0.2707088674278112,-0.9478187963903532,-0.2308269419809446,-0.079241073284087,0.5037210507637361,-0.464247164510721,0.2013501793801728,0.661444,0.414265,-0.530115,0.331444,-1.043616,-0.106275,0.021788,0.070572,-0.860846,0.655485,0,0,0.6623598695567017,0.4148563408389927,-0.528877904949243,0.3308437858897639,-1.0431746973273313,-0.1249316993299335,0.0206091688963732,-0.1671114645946987,-0.3944094847976186,0.4710429347590448
3656,2024 8 08,15:40:39.870,0.72075,0.11445,-0.62266,0.28234,-0.948146,-0.252766,-0.083049,0.698527,-1.0251,0.231712,0,0,0.720912821467504,0.111735620846652,-0.6204620290369824,0.2712904240564206,-0.9478351565708356,-0.2319238948818973,-0.0794314696198826,0.5134613482255492,-0.492289806285185,0.2028682704111642,0.661361,0.414252,-0.530217,0.33146,-1.042585,-0.131659,0.019514,-0.109353,-0.7409,0.670337,0,0,0.6623099260788666,0.4148261237970431,-0.5289448597017808,0.3308745965952757,-1.0431452124609646,-0.1252680643634368,0.0205544104515545,-0.1642235413649637,-0.4117340105577377,0.4810076380210926
3657,2024 8 08,15:40:39.878,0.720753,0.114452,-0.622651,0.282349,-0.947812,-0.252924,-0.082564,0.729726,-1.036604,0.243152,0,0,0.7209048303941288,0.1118714398043193,-0.6205714775851333,0.2718433528535995,-0.947833998742294,-0.2329739001378025,-0.0795880961388885,0.5242745808142717,-0.5195055159709258,0.204882456890606,0.661291,0.414209,-0.530333,0.33147,-1.043866,-0.126881,0.017733,-0.570506,-0.789277,0.727484,0,0,0.6622589797749232,0.414795267607191,-0.5290142667166918,0.3309043667655119,-1.0431812518379164,-0.1253487111452649,0.0204133399289768,-0.1845376642967156,-0.4306111600298508,0.493331456120038
3658,2024 8 08,15:40:39.886,0.72077,0.114468,-0.622612,0.282385,-0.948169,-0.250637,-0.08789,0.732172,-1.037506,0.291941,0,0,0.7208980888744223,0.1120012678141034,-0.6206735037058766,0.2723704352109195,-0.9478507488051792,-0.2338570551309123,-0.0800031913319441,0.5346694517735581,-0.5454055401723794,0.2092353840460757,0.661224,0.414173,-0.530444,0.331471,-1.047954,-0.125621,0.021137,-0.4959,-0.848449,0.455067,0,0,0.662207230786177,0.4147641542268314,-0.5290857533808573,0.3309326984272363,-1.0434198892460207,-0.1253623255880017,0.0204495229325279,-0.2001057810818798,-0.4515030520283582,0.491418233314036
3659,2024 8 08,15:40:39.895,0.720793,0.114478,-0.622565,0.282426,-0.947127,-0.252718,-0.086559,0.685178,-1.084806,0.256562,0,0,0.7208928344307012,0.1121251044233982,-0.6207680785205827,0.2728732134503735,-0.9478145613649204,-0.2348001023743667,-0.0803309817653468,0.5421948791848801,-0.5723755631637605,0.2116017148437719,0.661157,0.414149,-0.530543,0.331475,-1.043523,-0.125942,0.024069,-0.325282,-0.690053,0.430179,0,0,0.6621547192468682,0.4147333965154898,-0.5291586157118144,0.3309598135058745,-1.0434250447837197,-0.1253913093086016,0.0206304967859015,-0.2063645920277858,-0.4634305494269403,0.4883562716483343
3660,2024 8 08,15:40:39.903,0.720819,0.114497,-0.62251,0.282474,-0.947962,-0.252225,-0.086758,0.859264,-1.143567,0.292167,0,0,0.720889142709166,0.1122436992022283,-0.6208551745945535,0.2733532527778548,-0.9478219332966742,-0.2356713472556484,-0.0806523326770795,0.558048335225636,-0.6009351350055725,0.2156299791015833,0.661151,0.414146,-0.530553,0.331475,-1.043062,-0.125976,0.024374,-0.307545,-0.673586,0.427592,0,0,0.6621045332845248,0.4147040266897153,-0.5292283349262237,0.3309855728305808,-1.0434068925445337,-0.1254205438431715,0.0208176719466065,-0.2114236124263965,-0.4739383219555932,0.4853180580659175
3661,2024 8 08,15:40:39.911,0.720851,0.392964,-0.505254,0.265839,-0.947864,-0.251995,-0.087264,0.724514,-1.295355,0.349412,0,0,0.7208872355737077,0.1262797142421169,-0.6150751158648258,0.2729775401389621,-0.9478240366318404,-0.2364875298928659,-0.0809829160432255,0.5663716184643542,-0.6356561282552938,0.2223190801465041,0.661085,0.414132,-0.530635,0.331494,-1.043009,-0.130653,0.011239,-0.093055,-0.724779,0.480398,0,0,0.6620535566202985,0.4146754253552295,-0.5292986681799124,0.3310109941890517,-1.043386997917307,-0.1256821666510129,0.0203387383492761,-0.2055051818050766,-0.4864803558578136,0.4850720551626216
3662,2024 8 08,15:40:39.920,0.720877,0.114529,-0.622398,0.28256,-0.948882,-0.250153,-0.089922,0.678911,-1.245444,0.273219,0,0,0.7208867237950223,0.125692178530011,-0.6154412600715844,0.2734566631320139,-0.9478769348002484,-0.2371708033982226,-0.0814298702410642,0.5719985875411365,-0.6661455218425291,0.2248640761391789,0.661008,0.414127,-0.530733,0.331496,-1.046774,-0.126642,0.018357,-0.117961,-0.888511,0.277603,0,0,0.6620012787892836,0.414648004087468,-0.5293703847709168,0.3310352444795991,-1.0435563480214416,-0.1257301583184623,0.0202396514318123,-0.2011279727148228,-0.5065818880649229,0.4746986024044905
3663,2024 8 08,15:40:39.928,0.720883,0.114533,-0.622385,0.282571,-0.949192,-0.249616,-0.090685,0.672538,-1.22449,0.248591,0,0,0.7208865376052712,0.1251342196035105,-0.6157884470680052,0.2739123799754132,-0.947942688060236,-0.2377930632283115,-0.081892626729011,0.5770255581640797,-0.6940627457504026,0.2260504223322199,0.660933,0.414138,-0.530812,0.331504,-1.042338,-0.127322,0.021006,-0.018056,-0.704621,0.145877,0,0,0.6619478648498194,0.4146225038830946,-0.529442465532371,0.3310586822556192,-1.0434954306203694,-0.1258097504025392,0.0202779688602217,-0.1919743740790817,-0.5164838436616768,0.458257522284266
3664,2024 8 08,15:40:39.936,0.720898,0.114534,-0.622349,0.282612,-0.949591,-0.249535,-0.085859,0.759808,-1.044861,0.068408,0,0,0.7208871107250077,0.1246042086233349,-0.6161164747146048,0.2743473609766425,-0.948025103657224,-0.2383801600668959,-0.0820909453925605,0.5861646802558758,-0.7116026584628824,0.2181683012156089,0.660856,0.414157,-0.530892,0.331507,-1.04534,-0.128241,0.01406,-0.002965,-0.778871,0.074966,0,0,0.6618932716073285,0.4145992286889398,-0.5295149422557525,0.3310810981428382,-1.043587659089351,-0.1259313128824122,0.0199670704172106,-0.1825239053751275,-0.529603201478593,0.4390929461700526
3665,2024 8 08,15:40:39.945,0.720919,0.114526,-0.622303,0.282662,-0.950407,-0.251264,-0.085708,0.569848,-1.075605,-0.03157,0,0,0.7208887051887573,0.1241002981921682,-0.6164258009788746,0.2747630929278104,-0.9481441984743628,-0.2390243520635511,-0.0822717981229324,0.5853488462430819,-0.7298027755397383,0.2056813861548284,0.66078,0.414179,-0.53097,0.331507,-1.042604,-0.127987,0.024214,0.049833,-0.6902,0.013121,0,0,0.661837608026962,0.4145782172544928,-0.5295876951429648,0.3311023932356963,-1.0435384761348834,-0.1260340972382916,0.0201794168963501,-0.1709060601063712,-0.5376330414046633,0.41779434886155
3666,2024 8 08,15:40:39.953,0.720933,0.114513,-0.622268,0.28271,-0.951688,-0.247496,-0.088575,0.331474,-1.094359,-0.055567,0,0,0.7208909199293193,0.1236209332825598,-0.6167179109299308,0.2751604382814199,-0.9483213885506449,-0.2394479344603735,-0.0825869582167858,0.5726551039309278,-0.7480305867627514,0.192618966847087,0.660767,0.414182,-0.530983,0.331507,-1.042132,-0.127944,0.025968,0.058956,-0.674878,0.002435,0,0,0.6617840776256139,0.4145584063917681,-0.5296574603858165,0.3311226235739114,-1.0434681523281393,-0.126129592376377,0.0204688460515326,-0.1594129571010526,-0.5444952893344301,0.3970263814184724
3667,2024 8 08,15:40:39.961,0.720941,0.114495,-0.622235,0.282769,-0.949365,-0.254662,-0.083618,0.558349,-0.928024,-0.14485,0,0,0.7208934239328533,0.1231646366184318,-0.6169937653834342,0.2755408663673489,-0.9483735691231124,-0.2402086377373548,-0.0826385103059465,0.5719397987343814,-0.7570302574246138,0.1757455185047326,0.660703,0.414207,-0.531037,0.331518,-1.039297,-0.131862,0.017652,0.355102,-0.72115,0.000477,0,0,0.6617300237443332,0.4145408360721797,-0.5297264373665257,0.3311423923952158,-1.0432595947117322,-0.1264162127575581,0.0203280037489559,-0.133687209246,-0.5533280248677086,0.3771989123475488
3668,2024 8 08,15:40:39.970,0.720944,0.114477,-0.622211,0.282822,-0.948832,-0.250199,-0.088645,0.480457,-0.785808,-0.091401,0,0,0.7208959527362107,0.1227302547875102,-0.6172546271142624,0.2759049230489815,-0.9483964906669567,-0.240708155850487,-0.0829388347906492,0.5673656587976623,-0.7584691445533831,0.162388192579496,0.66062,0.414243,-0.531107,0.331525,-1.037973,-0.129906,0.016043,0.315457,-0.778567,0.048565,0,0,0.6616745225571166,0.4145259442685707,-0.5297954654981993,0.331161522775455,-1.0429952649761456,-0.1265907021196802,0.0201137535615081,-0.1112299987836999,-0.5645899736243232,0.3607672167301713
3669,2024 8 08,15:40:39.978,0.720945,0.114471,-0.622204,0.282839,-0.948775,-0.250049,-0.088438,0.438725,-0.743938,-0.067586,0,0,0.7208984050994001,0.1223172920481347,-0.6175020957585492,0.2762516268965324,-0.9484154161336088,-0.2411751980579627,-0.0832137930511167,0.5609336258577792,-0.7577425873257139,0.1508894829505212,0.660519,0.414286,-0.531192,0.331537,-1.033874,-0.129125,0.02529,0.546738,-1.077458,0.106214,0,0,0.6616167464292607,0.4145139470551421,-0.5298652922232894,0.3311802966366822,-1.0425392017273385,-0.1267174170136962,0.0203725658834327,-0.0783315988445149,-0.590233374943107,0.3480395558936628
3670,2024 8 08,15:40:39.986,0.720949,0.114451,-0.622185,0.282876,-0.945491,-0.25198,-0.088067,0.348048,-0.857693,-0.103403,0,0,0.72090093484443,0.1219239774457279,-0.6177362409706217,0.2765828455517057,-0.9482691953269284,-0.2417154381550645,-0.0834564533985609,0.5502893445648902,-0.7627401079594281,0.1381748588029951,0.660384,0.414352,-0.531291,0.331565,-1.040566,-0.125932,0.021585,0.83245,-1.519435,0.354927,0,0,0.6615551091077977,0.414505849702385,-0.5299365776121249,0.3311995318048481,-1.0424405416409712,-0.1266781461630113,0.0204331875892611,-0.0327925189022892,-0.6366934561959516,0.3483839280989796
3671,2024 8 08,15:40:39.995,0.720949,0.114451,-0.622185,0.282876,-0.949427,-0.243249,-0.093196,0.355633,-0.82116,-0.117691,0,0,0.7209033381022084,0.1215503285734415,-0.6179586789220906,0.2768975032741204,-0.948327085560582,-0.2417921162473113,-0.0839434307286328,0.5405565273366456,-0.7656611025614567,0.1253815658628453,0.660238,0.41441,-0.53141,0.331592,-1.046167,-0.130828,0.014407,0.709171,-1.711234,0.597148,0,0,0.6614892536524077,0.4145010572172657,-0.5300102487315187,0.3312191552146056,-1.0426268645589225,-0.1268856388548608,0.020131878209798,0.0043056570428252,-0.690420483386154,0.3608221316940306
3672,2024 8 08,15:40:40.003,0.720944,0.114477,-0.622211,0.282822,-0.950499,-0.246481,-0.088785,0.243874,-0.720368,-0.200843,0,0,0.7209053711970979,0.1211966621447694,-0.618171294975986,0.2771937281104144,-0.9484356812825528,-0.2420265604349457,-0.0841855091922012,0.5257224009698133,-0.7633964474333839,0.1090703375697031,0.660204,0.414424,-0.531438,0.331598,-1.047465,-0.131963,0.012744,0.680594,-1.755694,0.653295,0,0,0.6614249909697874,0.4144972043564024,-0.5300816362949428,0.3312380974538753,-1.0428687713309763,-0.1271395069121177,0.0197624842993081,0.0381200741906839,-0.7436841592168464,0.3754457751093291
3673,2024 8 08,15:40:40.011,0.720935,0.114357,-0.622158,0.283012,-0.950343,-0.247775,-0.090407,0.119553,-0.683758,-0.351557,0,0,0.720906852637243,0.1208546790375309,-0.6183706302271866,0.2774846417048937,-0.9485310472184252,-0.2423139824131984,-0.0844965837325911,0.5054139309213226,-0.7594145250617147,0.0860389706912179,0.660081,0.414463,-0.531544,0.331623,-1.040844,-0.130776,0.016722,0.628093,-1.583925,0.758055,0,0,0.6613577914212979,0.4144954941385823,-0.5301547544801956,0.3312573425811815,-1.0427675327644277,-0.1273213315665118,0.0196104600843427,0.0676187204811497,-0.785696201256004,0.3945762363538626
3674,2024 8 08,15:40:40.020,0.720915,0.124831,-0.650709,0.202876,-0.951503,-0.247718,-0.092274,-0.118639,-0.401671,-0.407472,0,0,0.7209072600053807,0.1210534950856544,-0.6199875487158273,0.273754209619649,-0.9486796448575038,-0.2425841832925385,-0.0848854545459616,0.4742112843752564,-0.7415273488086289,0.061363422156657,0.659937,0.414495,-0.53168,0.331655,-1.035944,-0.131923,0.011944,0.344452,-1.631222,0.874386,0,0,0.661286751850233,0.4144954694316531,-0.5302310167561858,0.3312772254521224,-1.0424263561262062,-0.1275514149881862,0.0192271370801256,0.0814603844570922,-0.8279724911932038,0.4185667245361695
3675,2024 8 08,15:40:40.028,0.720889,0.114228,-0.622199,0.283091,-0.952304,-0.246374,-0.094231,-0.325923,-0.325178,-0.576092,0,0,0.7209063470051117,0.1207122203313717,-0.6200981212800358,0.2742210491386666,-0.9488608626146284,-0.2427736741279116,-0.0853527318186635,0.4342045701564935,-0.7207098813681974,0.0294906510488241,0.659766,0.41452,-0.531858,0.331677,-1.036818,-0.132932,0.017485,0.404913,-2.133724,1.216431,0,0,0.6612107142577213,0.4144966959600705,-0.5303123659183765,0.3312972141795163,-1.042145938319896,-0.1278204442387769,0.0191400302261193,0.0976330152342376,-0.8932600666335435,0.458459938309361
3676,2024 8 08,15:40:40.036,0.720879,0.114201,-0.622209,0.283105,-0.952565,-0.245824,-0.094943,-0.399075,-0.310737,-0.644892,0,0,0.7209049796548561,0.1203866593148031,-0.620203665216034,0.2746652466817332,-0.9490460694838972,-0.242926190421516,-0.0858322452277303,0.3925405916486689,-0.7002112372997875,-0.004228481503617,0.659595,0.414519,-0.532054,0.331703,-1.035289,-0.132496,0.015085,0.156643,-2.223665,1.483909,0,0,0.6611299285448351,0.4144978111620669,-0.5303994476224576,0.3313175034705405,-1.0418030914039011,-0.128054222026838,0.0189372787148133,0.1005835144725257,-0.9597803133018664,0.5097323913938929
3677,2024 8 08,15:40:40.045,0.720845,0.11412,-0.622251,0.283129,-0.952034,-0.240896,0.037274,-0.607584,-0.005329,-0.927564,0,0,0.7209019806721133,0.1200733263490629,-0.6203060319552323,0.2750884343476465,-0.9491954660097022,-0.2428246809004402,-0.0796769329663438,0.3425343620662354,-0.6654671254347981,-0.0503952574284361,0.6594,0.414523,-0.532274,0.331734,-1.028942,-0.131331,0.016517,0.088391,-2.466246,1.688155,0,0,0.6610434321175933,0.4144990706039635,-0.5304931752413347,0.3313383282970135,-1.0411600368337062,-0.1282180609254961,0.0188162647790727,0.0999738887488994,-1.0351035976367728,0.5686535218241983
3678,2024 8 08,15:40:40.053,0.720774,0.113992,-0.622345,0.283155,-0.951194,-0.241703,-0.10167,-1.105591,0.649358,-1.271899,0,0,0.7208955816385076,0.1197692600316098,-0.6204079803574706,0.2754917626302642,-0.949295392709217,-0.2427685968554181,-0.0807765863180266,0.2701280939629236,-0.5997258691630583,-0.1114704445570143,0.659345,0.414524,-0.532336,0.331742,-1.027146,-0.131001,0.016922,0.069079,-2.534886,1.745947,0,0,0.6609585105117136,0.4145003170737653,-0.5305853164792679,0.3313585118821628,-1.0404593349920208,-0.1283572078792213,0.018721551540119,0.0984291443114545,-1.1100927177549342,0.6275181957329883
3679,2024 8 08,15:40:40.061,0.720665,0.11381,-0.622502,0.283161,-0.951448,-0.242498,-0.09981,-2.014006,1.288953,-1.738286,0,0,0.7208840525565823,0.1194712970300293,-0.620512681339597,0.275875224498751,-0.949403023073756,-0.2427550670126472,-0.0817282570021252,0.1559213892647774,-0.5052919257049053,-0.1928112223291636,0.65918,0.414499,-0.532553,0.331753,-1.019806,-0.1292,0.037154,-0.277454,-2.980994,1.975828,0,0,0.6608695849861279,0.414500251220077,-0.5306837006553045,0.3313782362880547,-1.0394266682424198,-0.1283993474852603,0.0196431739631131,0.0796349870958817,-1.2036377818671875,0.6949336859463389
3680,2024 8 08,15:40:40.070,0.720513,0.113581,-0.622721,0.283159,-0.950448,-0.23888,-0.088163,-2.466385,1.93786,-2.329787,0,0,0.7208654999287532,0.1191767821785278,-0.6206230972726171,0.2762394132738134,-0.9494552719200684,-0.2425613136620149,-0.082049994152019,0.0248060698015385,-0.38313432941966,-0.2996600112127054,0.658958,0.414447,-0.532851,0.33178,-1.022673,-0.13136,0.025658,-0.591663,-3.451385,2.634581,0,0,0.6607740057368215,0.4144975886590731,-0.5307920656225392,0.331398324473652,-1.0385889848302987,-0.1285473801109972,0.0199439152649574,0.0460700877410876,-1.316025142773828,0.7919160516490219
3681,2024 8 08,15:40:40.078,0.72031,0.113283,-0.623016,0.283146,-0.966406,-0.232814,-0.071146,-3.301276,2.631217,-3.005575,0,0,0.7208377249323155,0.1188820930696014,-0.6207427424089863,0.2765847426101227,-0.9503028083240648,-0.2420739479789141,-0.081504794444418,-0.1414980336885383,-0.232416762948677,-0.4349557606520702,0.658706,0.414355,-0.533239,0.331772,-1.033225,-0.130687,0.027144,-1.271619,-4.220841,3.044694,0,0,0.6606706054499805,0.4144904592261194,-0.5309144123414122,0.3314170082499694,-1.0383207855887835,-0.1286543611054474,0.0203039195017095,-0.0198143666459667,-1.4612659356351367,0.9045549490665707
3682,2024 8 08,15:40:40.086,0.720225,0.113157,-0.62314,0.28314,-0.973951,-0.230243,-0.063983,-3.668947,2.915478,-3.284329,0,0,0.7208070886856998,0.1185958384161213,-0.620862605288537,0.2769125054796165,-0.9514852179078614,-0.2414824005799684,-0.0806287047221971,-0.3178704820041114,-0.0750220248012431,-0.5774244226194667,0.658456,0.414217,-0.533677,0.331736,-1.029601,-0.131796,0.025299,-1.856045,-4.338245,3.46203,0,0,0.6605598751774815,0.4144767862648134,-0.5310525417243416,0.3314329578374709,-1.0378847963093445,-0.128811443050175,0.0205536735266241,-0.1116258983136684,-1.60511488885338,1.032428701613242
3683,2024 8 08,15:40:40.095,0.720036,0.112846,-0.62341,0.28315,-0.989928,-0.228007,-0.082586,-4.281078,2.830113,-4.326884,0,0,0.7207685342514147,0.1183083464953152,-0.6209899750241101,0.2772243802056356,-0.9534073570124684,-0.24080863055097,-0.0807265694860872,-0.5160308579039059,0.0702347264388189,-0.7648974014884933,0.658231,0.414011,-0.534144,0.331688,-1.037257,-0.131172,-0.005665,-3.02318,-4.00849,3.75914,0,0,0.6604434314186074,0.4144534969515727,-0.5312071146381245,0.3314457099455973,-1.0378534064938771,-0.1289294708976663,0.0192427398502929,-0.257203603397985,-1.725283644410711,1.16876426653258
3684,2024 8 08,15:40:40.103,0.719905,0.112628,-0.623597,0.283159,-1.000974,-0.226574,-0.09664,-4.698455,2.746832,-5.063707,0,0,0.720725357538844,0.1180243291705495,-0.6211203262729046,0.2775211111953538,-0.9557856891618448,-0.2400968990234214,-0.0815222410117829,-0.7251520650087107,0.204064590116878,-0.9798378814140688,0.65812,0.413909,-0.534375,0.331664,-1.041036,-0.130864,-0.020951,-3.599346,-3.845703,3.90581,0,0,0.660327259847677,0.4144262721039941,-0.5313655089062183,0.3314566244483174,-1.0380125361691832,-0.1290261973527829,0.0172330528577782,-0.4243107232280857,-1.8313046121901757,1.305616553205951
3685,2024 8 08,15:40:40.111,0.719639,0.112013,-0.623973,0.28325,-1.001965,-0.222735,-0.106268,-5.897954,2.8065,-6.683543,0,0,0.7206710396619018,0.117723762712022,-0.6212629599592593,0.2778075556355861,-0.9580946547037524,-0.2392288040722504,-0.0827595289611937,-0.9837921617582752,0.3341863606110341,-1.2650231373433654,0.658094,0.413869,-0.534452,0.331641,-1.045195,-0.129308,-0.020283,-3.746862,-3.96674,3.833332,0,0,0.6602155968552932,0.4143984084987943,-0.5315198334609074,0.3314658432259016,-1.038371659360724,-0.1290402874851438,0.0153572502148893,-0.5904382870666814,-1.9380763815806663,1.432002325545653
3686,2024 8 08,15:40:40.120,0.719399,0.095535,-0.633402,0.268588,-1.035498,-0.221721,-0.067263,-9.105825,1.214499,-10.902071,0,0,0.7206074376788068,0.1166143245764209,-0.6218699119612964,0.2773465778538068,-0.9619648219685648,-0.2383534138686378,-0.081984702513134,-1.3898938036703612,0.3782019925804824,-1.746875530476197,0.657917,0.413581,-0.534996,0.331475,-1.070439,-0.119227,-0.013483,-4.484489,-4.582725,3.245148,0,0,0.6601006670125285,0.4143575380738545,-0.531693641787862,0.3314663010646065,-1.0399750263926877,-0.1285496231108866,0.0139152377041448,-0.7851408227133474,-2.070308812501633,1.5226596092683704
3687,2024 8 08,15:40:40.128,0.71912,0.109594,-0.624796,0.283701,-1.086815,-0.207739,-0.101787,-10.431546,-1.394982,-15.748123,0,0,0.7205330657948664,0.1162633083475998,-0.6220162163632316,0.2776642989611164,-0.9682073308701366,-0.2368226931752059,-0.0829748173874773,-1.8419764134868435,0.2895427929514583,-2.446937903952387,0.65777,0.413346,-0.535446,0.331333,-1.061903,-0.11666,0.004045,-3.234795,-3.490793,2.390244,0,0,0.659984133661902,0.4143069611701618,-0.5318812596984689,0.3314596360113762,-1.0410714250730533,-0.1279551419553422,0.0134217258189376,-0.90762353157768,-2.141333021876551,1.5660388288049518
3688,2024 8 08,15:40:40.136,0.718902,0.10766,-0.625066,0.284397,-1.013183,-0.259306,-0.05027,-13.185276,-4.552703,-22.217804,0,0,0.7204515125051231,0.1158331429302198,-0.62216870554507,0.2780009340130605,-0.9704561143266296,-0.2379468585164456,-0.0813395765181034,-2.409141392812501,0.0474305033038853,-3.4354812087547675,0.657638,0.413177,-0.535776,0.331271,-1.041743,-0.112949,0.021273,-2.340272,-2.479977,2.175159,0,0,0.6598668269788069,0.4142504631116537,-0.5320759967135453,0.3314502042108073,-1.0411050038194003,-0.1272048348575751,0.0138142895279907,-0.979255954998796,-2.1582652207827238,1.596494837364704
3689,2024 8 08,15:40:40.145,0.718889,0.107542,-0.625082,0.284439,-1.008698,-0.262447,-0.047132,-13.353011,-4.745046,-22.611885,0,0,0.7203733868798669,0.1154185857837088,-0.6223143702678164,0.2783228373124075,-0.9723682086102984,-0.2391718655906233,-0.0796291976921983,-2.956334873171876,-0.1921933218613089,-4.39430139831703,0.657485,0.413048,-0.536074,0.331255,-1.047713,-0.115798,0.012549,-1.623882,-2.567827,2.277938,0,0,0.6597477356298665,0.414190339956071,-0.532275896877868,0.3314404440002669,-1.0414354036284303,-0.1266344931146964,0.0137510250515912,-1.011487257248856,-2.1787433097435867,1.630566995496469
3690,2024 8 08,15:40:40.153,0.718338,0.105301,-0.625659,0.285399,-1.128956,-0.258231,-0.071818,-13.19862,1.02532,-29.872028,0,0,0.7202716175358735,0.1149127064945234,-0.6224816017544256,0.278676645446787,-0.9801975981797834,-0.2401248223110922,-0.0792386378075883,-3.4684491295132824,-0.1313176557682434,-5.668187728401178,0.657346,0.412955,-0.536316,0.331254,-1.044308,-0.120627,0.006898,-1.089596,-2.285753,2.093177,0,0,0.6596276488483732,0.4141285729582675,-0.5324779020339745,0.3314311218002536,-1.0415790334470088,-0.1263341184589616,0.0134083737990116,-1.015392694386413,-2.184093794256407,1.6536974957216457
3691,2024 8 08,15:40:40.161,0.717628,0.102781,-0.626189,0.286934,-1.119291,-0.239875,-0.038442,-10.169127,-2.966694,-35.551781,0,0,0.7201394366590798,0.1143061211697972,-0.6226669716667043,0.2790895131744477,-0.9871522682707942,-0.2401123311955375,-0.0771988059172089,-3.803483023037618,-0.2730864729798313,-7.162367391981119,0.657312,0.412937,-0.536371,0.331256,-1.043062,-0.125976,0.024374,-1.013221,-2.298162,2.077022,0,0,0.6595118664059546,0.4140689943103541,-0.5326725569322758,0.3314223657102408,-1.0416531817746584,-0.1263162125360135,0.013956655109061,-1.0152841096670924,-2.189797204543587,1.674863720935563
3692,2024 8 08,15:40:40.170,0.716903,0.099774,-0.626555,0.289001,-1.075929,-0.260964,-0.054999,-10.514598,-4.934591,-43.961117,0,0,0.7199776148261258,0.1135795151113073,-0.622861373083369,0.2795850875157253,-0.9915911048572544,-0.2411549146357607,-0.0760888156213485,-4.139038771885737,-0.5061616993308398,-9.002304872382062,0.657152,0.412862,-0.536617,0.331267,-1.037829,-0.121121,0.013357,-0.869706,-2.47472,2.075404,0,0,0.6593938730856569,0.4140086445948364,-0.5328697790856619,0.3314145974247288,-1.041461972685925,-0.1260564519092128,0.013926672353608,-1.0080052041837375,-2.204043344316408,1.6948907348887847
3693,2024 8 08,15:40:40.178,0.715827,0.096574,-0.627125,0.291507,-1.143581,-0.260777,-0.067101,-8.633595,-1.049606,-49.760254,0,0,0.7197700840848195,0.112729239355742,-0.6230745544292005,0.280181183139939,-0.9991905996143916,-0.2421360189039726,-0.075639424840281,-4.36376658329145,-0.5333339143642978,-11.04020232876296,0.656989,0.412756,-0.536886,0.331289,-1.04289,-0.126042,0.007983,-1.212446,-2.118423,2.089643,0,0,0.6592736294313739,0.4139460123650945,-0.5330705901313788,0.3314083175534923,-1.041533374051629,-0.1260557293137521,0.0136294887359276,-1.0182272439745508,-2.199762327100587,1.7146283481443454
3694,2024 8 08,15:40:40.186,0.714579,0.093076,-0.627664,0.294529,-1.08635,-0.314204,-0.056824,-6.505487,-2.722685,-57.479195,0,0,0.7195105298805784,0.1117465773879549,-0.6233040267077403,0.280898573982942,-1.003548569633672,-0.245739417958774,-0.074698653598267,-4.470852604126877,-0.6428014686460829,-13.362151962324807,0.656847,0.41263,-0.537148,0.331302,-1.043565,-0.123284,-0.002573,-1.596409,-2.042783,2.21797,0,0,0.6591522979598052,0.4138802117468398,-0.5332744606248099,0.3314030016758177,-1.0416349553490476,-0.1259171428480645,0.0128193642991312,-1.047136331775823,-2.191913360745557,1.7397954307371282
3695,2024 8 08,15:40:40.195,0.714409,0.0926,-0.627737,0.294941,-1.078553,-0.321483,-0.055424,-6.215557,-2.950622,-58.530811,0,0,0.7192554533865495,0.1107892485185571,-0.6235256753723533,0.2816006952837949,-1.0072987911519886,-0.2495265970608353,-0.0737349209183536,-4.558087823920533,-0.7581924952137787,-15.620584914208568,0.656723,0.412453,-0.537456,0.331268,-1.040864,-0.12167,0.003218,-2.514272,-2.262611,2.417774,0,0,0.6590308330618149,0.4138088511594978,-0.5334835375935694,0.3313962515920268,-1.041596407581595,-0.1257047857056613,0.0123392960841746,-1.120493115187032,-2.1954482427082795,1.773694359200272
3696,2024 8 08,15:40:40.203,0.712908,0.089642,-0.628329,0.298202,-1.014708,-0.354929,0.023868,-0.384992,3.26446,-62.5275,0,0,0.7189380807172221,0.1097318860926293,-0.6237658416037356,0.2824307605196051,-1.0076692515943892,-0.2547967172077935,-0.0688547748724359,-4.349433032724506,-0.5570598704530898,-17.96593066849814,0.65662,0.412259,-0.537788,0.331176,-1.050033,-0.107258,0.005844,-3.579946,-3.180938,2.18151,0,0,0.6589102914087241,0.4137313586015229,-0.5336987607138908,0.3313852390124254,-1.0420182372025153,-0.1247824464203782,0.0120145312799659,-1.2434657594276803,-2.244722730572865,1.794085141240258
3697,2024 8 08,15:40:40.211,0.71054,0.08671,-0.629407,0.302411,-1.013471,-0.378033,0.051013,7.466159,12.288795,-67.408287,0,0,0.718518176681361,0.1085807917879978,-0.6240478995235488,0.2834297724936249,-1.0079593390146695,-0.2609585313474038,-0.0628613861288141,-3.75865343108828,0.0852328730695647,-20.43804848507323,0.65659,0.412211,-0.537876,0.331151,-1.052637,-0.105735,0.006043,-3.550879,-3.244682,2.068819,0,0,0.6587942768382878,0.4136553406714467,-0.5339076226781961,0.3313735270618041,-1.0425491753423894,-0.1238300740993593,0.0117159547159676,-1.3588364214562962,-2.294720694044222,1.807821834178245
3698,2024 8 08,15:40:40.220,0.707624,0.084458,-0.630681,0.30719,-1.042405,-0.368376,0.067992,17.530212,19.308096,-67.038139,0,0,0.7179734678472929,0.1073746521985979,-0.6243795545473713,0.2846177838689436,-1.0096816220639362,-0.2663294047800336,-0.0563187168223734,-2.694210159533866,1.0463760294160864,-22.768053010819568,0.656482,0.412089,-0.538145,0.33108,-1.060112,-0.110851,0.004533,-2.166253,-2.670155,1.561513,0,0,0.6586786629963735,0.4135770236378744,-0.5341194915442864,0.3313588507087139,-1.04342731657527,-0.1231811203943913,0.0113568069801692,-1.3992072503834814,-2.313492409342011,1.7955063924693326
3699,2024 8 08,15:40:40.228,0.704275,0.082743,-0.632039,0.312512,-1.088215,-0.361907,0.084451,25.107077,23.134153,-70.371056,0,0,0.7172885444549283,0.106143069588668,-0.6247625268200027,0.2860124946754965,-1.0136082909607391,-0.271108284541032,-0.0492802309812547,-1.3041458015571727,2.1507648779452824,-25.14820316027859,0.656354,0.412012,-0.538379,0.331049,-1.059189,-0.115607,0.001747,-1.034085,-2.067338,1.364955,0,0,0.6585624298465547,0.4134987724559807,-0.534332466967072,0.3313433581732782,-1.0442154007465063,-0.1228024143746717,0.0108763166311607,-1.3809511378643071,-2.3011846888749106,1.773978822845866
3700,2024 8 08,15:40:40.236,0.700818,0.081585,-0.633183,0.318218,-1.017533,-0.371574,0.088752,34.868851,24.932812,-68.816177,0,0,0.7164650172321819,0.1049151661092346,-0.6251835504790024,0.2876227699417216,-1.0138045264127022,-0.2761315703139804,-0.042378619432192,0.504504038520686,3.2898672340480184,-27.33160185226466,0.656229,0.411964,-0.538563,0.331057,-1.051239,-0.118784,-0.005998,-0.401808,-1.483201,1.221053,0,0,0.6584457583542269,0.4134220338331816,-0.5345439936187184,0.3313290402646143,-1.044566580709181,-0.1226014936559381,0.0100326007996027,-1.331993980971092,-2.260285504431165,1.7463325317035725
3701,2024 8 08,15:40:40.245,0.700125,0.081353,-0.633413,0.319361,-1.00337,-0.373511,0.089614,36.824894,25.293224,-68.504608,0,0,0.7156480163705728,0.1037370578037729,-0.6255950229550523,0.2892096814446355,-1.013282800092067,-0.2810005417982813,-0.0357789884605824,2.320523536594652,4.390035072345617,-29.39025215965143,0.656108,0.411916,-0.538727,0.331089,-1.037616,-0.117645,0.005996,-0.507511,-1.344091,1.368852,0,0,0.6583288704365156,0.4133467321415225,-0.5347531439377824,0.3313170382513836,-1.044219051673722,-0.1223536689731412,0.0098307707596226,-1.2907698319225371,-2.214475779209607,1.7274585051183935
3702,2024 8 08,15:40:40.253,0.69673,0.080925,-0.634555,0.324571,-0.974953,-0.363287,0.125867,41.507568,33.010395,-70.432549,0,0,0.7147021155520442,0.1025964549135842,-0.6260430218072996,0.2909777473724038,-1.0113663100874637,-0.2851148647083672,-0.0276966890375533,4.279875759764919,5.821053068728336,-31.442367001668856,0.655972,0.411864,-0.538902,0.331139,-1.040767,-0.122577,0.006249,-0.134651,-1.412321,1.709019,0,0,0.6582110269146898,0.4132725955344464,-0.5349605867408933,0.3313081363388144,-1.044046449090036,-0.1223648355244842,0.0096516822216414,-1.2329638903264102,-2.174368040249126,1.726536529862474
3703,2024 8 08,15:40:40.261,0.692408,0.081096,-0.636067,0.330746,-1.023853,-0.333656,0.139084,48.772564,39.535374,-67.948982,0,0,0.713587409774442,0.101521432167905,-0.6265442207169346,0.2929661600037835,-1.0119906445830904,-0.2875419214729488,-0.0193576545856756,6.504510171776673,7.506769115291919,-33.267697751585416,0.655846,0.411823,-0.539057,0.331189,-1.042108,-0.121065,0.008576,0.109459,-1.265114,1.662103,0,0,0.6580927755689553,0.4132001157577241,-0.5351654074038487,0.3313021795218736,-1.043949526635534,-0.1222998437482599,0.0095978981105594,-1.1658427458100895,-2.12890533823667,1.72331485336935
3704,2024 8 08,15:40:40.270,0.687908,0.082246,-0.637338,0.337331,-1.088054,-0.242363,0.12469,61.555367,39.964035,-62.237652,0,0,0.7123034392857198,0.1005576605595097,-0.6270839096810878,0.2951844020035943,-1.0157938123539358,-0.2852829753993013,-0.0121552718563918,9.25705301318784,9.129632409527323,-34.71619546400614,0.655801,0.411811,-0.539108,0.33121,-1.042515,-0.129396,0.011231,0.17789,-1.250196,1.645095,0,0,0.6579781867905075,0.4131306599698378,-0.5353625370336562,0.3312975705457799,-1.0438778003037574,-0.1226546515608469,0.0096795532050314,-1.0986561085195852,-2.0849698713248364,1.7194038607008824
