frame,date,time,quaternion_x_left,quaternion_y_left,quaternion_z_left,quaternion_w_left,accel_x_left,accel_y_left,accel_z_left,gyro_x_left,gyro_y_left,gyro_z_left,HS_left,TO_left,filtered_quaternion_x_left,filtered_quaternion_y_left,filtered_quaternion_z_left,filtered_quaternion_w_left,filtered_accel_x_left,filtered_accel_y_left,filtered_accel_z_left,filtered_gyro_x_left,filtered_gyro_y_left,filtered_gyro_z_left,quaternion_x_right,quaternion_y_right,quaternion_z_right,quaternion_w_right,accel_x_right,accel_y_right,accel_z_right,gyro_x_right,gyro_y_right,gyro_z_right,HS_right,TO_right,filtered_quaternion_x_right,filtered_quaternion_y_right,filtered_quaternion_z_right,filtered_quaternion_w_right,filtered_accel_x_right,filtered_accel_y_right,filtered_accel_z_right,filtered_gyro_x_right,filtered_gyro_y_right,filtered_gyro_z_right
22123,2024 8 08,15:43:13.755,-0.26904,-0.618414,0.32756,-0.661729,-0.982568,-0.08607,-0.013499,2.603129,-4.429358,-1.04029,0,0,-0.26904,-0.618414,0.32756,-0.661729,-0.982568,-0.08607,-0.013499,2.603129,-4.429358,-1.04029,-0.297017,-0.650402,0.226967,-0.661244,-1.040003,-0.108656,0.036003,0.075492,-1.552607,-1.347369,0,0,-0.297017,-0.650402,0.226967,-0.661244,-1.040003,-0.108656,0.036003,0.075492,-1.552607,-1.347369
22124,2024 8 08,15:43:13.763,-0.268972,-0.618209,0.327364,-0.662046,-0.983178,-0.084594,-0.006701,2.748051,-4.447932,-0.951869,0,0,-0.2690365999999999,-0.61840375,0.3275502,-0.66174485,-0.9825985,-0.0859962,-0.0131591,2.6103751,-4.430286699999999,-1.0358689499999998,-0.297051,-0.650519,0.226939,-0.661124,-1.041089,-0.126938,0.024745,-0.151034,-1.879714,-1.214344,0,0,-0.2970186999999999,-0.65040785,0.2269656,-0.661238,-1.0400573,-0.1095701,0.0354401,0.0641657,-1.5689623499999998,-1.34071775
22125,2024 8 08,15:43:13.772,-0.268904,-0.617993,0.327159,-0.662376,-0.982327,-0.084168,-0.009876,2.704242,-4.453283,-0.926397,0,0,-0.2690299699999999,-0.6183832125,0.32753064,-0.6617764075,-0.982584925,-0.08590479,-0.012994945,2.6150684449999995,-4.431436514999999,-1.0303953524999998,-0.297066,-0.650563,0.226933,-0.661076,-1.041495,-0.104753,0.030803,-0.256783,-1.945026,-1.152884,0,0,-0.297021065,-0.6504156074999999,0.2269639699999999,-0.6612299,-1.0401291849999998,-0.1093292449999999,0.035208245,0.048118265,-1.5877655324999995,-1.3313260625
22126,2024 8 08,15:43:13.780,-0.268834,-0.617781,0.326942,-0.662709,-0.982075,-0.080996,-0.0142,2.818221,-4.412553,-0.834235,0,0,-0.2690201714999999,-0.6183531018749999,0.327501208,-0.6618230371249999,-0.98255942875,-0.0856593505,-0.01305519775,2.6252260727499994,-4.430492339249999,-1.020587334875,-0.297104,-0.650654,0.226946,-0.660965,-1.041559,-0.106292,0.057774,-0.589982,-1.775666,-0.959727,0,0,-0.2970252117499999,-0.6504275271249998,0.2269630714999999,-0.661216655,-1.0402006757499995,-0.10917738275,0.03633653275,0.0162132517499999,-1.5971605558749995,-1.3127461093749997
22127,2024 8 08,15:43:13.788,-0.268767,-0.617567,0.326736,-0.663037,-0.983338,-0.080703,-0.014508,2.727235,-4.358337,-0.889984,0,0,-0.2690075129249999,-0.61831379678125,0.3274629475999999,-0.6618837352687499,-0.9825983573125,-0.085411532975,-0.0131278378625,2.6303265191125,-4.4268845722874985,-1.0140571681312498,-0.297166,-0.650739,0.226992,-0.660838,-1.037615,-0.111216,0.033509,-1.031602,-1.688079,-0.697491,0,0,-0.2970322511624999,-0.6504431007687498,0.2269645179249999,-0.66119772225,-1.0400713919624998,-0.1092793136125,0.0361951561124999,-0.0361775108374999,-1.6017064780812498,-1.2819833539062495
22128,2024 8 08,15:43:13.797,-0.268747,-0.617501,0.326672,-0.663139,-0.983731,-0.080612,-0.014604,2.698951,-4.341483,-0.907315,0,0,-0.2689944872787499,-0.6182731569421874,0.3274234002199999,-0.6619464985053123,-0.9826549894468748,-0.0851715563262499,-0.013201645969375,2.6337577431568744,-4.422614493673124,-1.0087200597246873,-0.297242,-0.650805,0.227078,-0.660708,-1.037186,-0.109656,0.033929,-1.496787,-1.655253,-0.433532,0,0,-0.2970427386043749,-0.6504611957303124,0.2269701920287499,-0.6611732361375,-1.039927122364375,-0.1092981479318749,0.036081848306875,-0.109207985295625,-1.6043838041771872,-1.239560786210937
22129,2024 8 08,15:43:13.805,-0.268687,-0.617341,0.326515,-0.66339,-0.983856,-0.105088,0.050786,2.689953,-4.213201,-0.953802,0,0,-0.2689791129148124,-0.618226549095078,0.3273779802089999,-0.6620186735800466,-0.9827150399745312,-0.0861673785099374,-0.0100022636709062,2.6365675059990306,-4.412143818989467,-1.0059741567384528,-0.297311,-0.65086,0.227191,-0.660584,-1.039132,-0.106998,0.037411,-1.64143,-1.609376,-0.107063,0,0,-0.2970561516741561,-0.6504811359437968,0.2269812324273124,-0.661143774330625,-1.039887366246156,-0.1091831405352812,0.0361483058915312,-0.1858190860308437,-1.6046334139683278,-1.18293589690039
22130,2024 8 08,15:43:13.813,-0.268622,-0.617144,0.326329,-0.66369,-0.982274,-0.119806,0.007138,2.524843,-4.252567,-0.928376,0,0,-0.2689612572690718,-0.6181724216403242,0.3273255311985498,-0.6621022399010442,-0.9826929879758046,-0.0878493095844406,-0.0091452504873609,2.630981280699079,-4.404164978039994,-1.00209424890153,-0.297366,-0.650905,0.227289,-0.660481,-1.043972,-0.105011,0.034616,-1.443032,-1.594455,-0.035941,0,0,-0.2970716440904483,-0.6505023291466069,0.2269966208059468,-0.6611106356140937,-1.040091597933848,-0.1089745335085171,0.0360716905969546,-0.2486797317293015,-1.6041244932699112,-1.1255861520553705
22131,2024 8 08,15:43:13.822,-0.268535,-0.616857,0.326088,-0.664111,-0.981486,-0.085378,-0.01063,2.182019,-4.220107,-1.071979,0,0,-0.2689399444056182,-0.6181066505583079,0.3272636546386223,-0.662202677905992,-0.9826326385770144,-0.0877257441052185,-0.0092194879629928,2.608533166664125,-4.3949620791379935,-1.0055884864564535,-0.297394,-0.650927,0.227338,-0.66043,-1.046387,-0.112293,0.047879,-1.34408,-1.587012,-0.000468,0,0,-0.2970877618859259,-0.6505235626892765,0.2270136897656494,-0.661076603833389,-1.0404063680371556,-0.1091404568330913,0.0366620560671069,-0.3034497451428364,-1.6032688686064156,-1.0693302444526018
22132,2024 8 08,15:43:13.830,-0.268484,-0.616638,0.325928,-0.664413,-0.978192,-0.088733,-0.015408,2.137517,-4.160371,-0.995286,0,0,-0.2689171471853372,-0.6180332180303926,0.3271968719066911,-0.6623131940106923,-0.9824106066481636,-0.0877761068999576,-0.0095289135648432,2.584982358330919,-4.383232525181094,-1.0050733621336307,-0.297433,-0.650983,0.227447,-0.66032,-1.049265,-0.121961,0.060208,-1.224171,-1.408958,-1.3e-05,0,0,-0.2971050237916296,-0.6505465345548126,0.2270353552773669,-0.6610387736417195,-1.0408492996352978,-0.1097814839914367,0.0378393532637515,-0.3494858078856946,-1.5935533251760947,-1.0158643822299718
22133,2024 8 08,15:43:13.838,-0.268448,-0.616427,0.325765,-0.664704,-0.983659,-0.086502,-0.018168,1.883651,-4.049763,-0.825782,0,0,-0.2688936898260703,-0.6179529071288729,0.3271252783113565,-0.6624327343101577,-0.9824730263157552,-0.0877124015549597,-0.009960867886601,2.549915790414373,-4.366559048922039,-0.9961087940269492,-0.29746,-0.651023,0.227515,-0.660245,-1.052617,-0.100613,0.026721,-0.928717,-0.995041,-1e-06,0,0,-0.2971227726020481,-0.650570357827072,0.2270593375134986,-0.6609990849596334,-1.041437684653533,-0.1093230597918649,0.037283435600564,-0.3784473674914099,-1.56362770891729,-0.9650712131184732
22134,2024 8 08,15:43:13.847,-0.268442,-0.616391,0.325737,-0.664753,-0.984823,-0.085972,-0.018533,1.834049,-4.029541,-0.795297,0,0,-0.2688711053347668,-0.6178748117724292,0.3270558643957887,-0.6625487475946498,-0.9825905249999676,-0.0876253814772117,-0.010389474492271,2.5141224508936544,-4.349708146475937,-0.9860682043256016,-0.297496,-0.651059,0.227552,-0.660181,-1.044008,-0.107958,0.033756,-0.570914,-0.747372,-0.287803,0,0,-0.2971414339719457,-0.6505947899357184,0.2270839706378236,-0.6609581807116517,-1.041566200420856,-0.1092548068022716,0.0371070638205358,-0.3880706991168394,-1.5228149234714252,-0.9312078024625496
22135,2024 8 08,15:43:13.855,-0.268413,-0.616222,0.3256,-0.664989,-0.979002,-0.088689,-0.022085,1.978418,-3.930306,-0.744537,0,0,-0.2688482000680284,-0.6177921711838077,0.3269830711759993,-0.6626707602149172,-0.982411098749969,-0.0876785624033511,-0.0109742507676574,2.4873372283489714,-4.32873803915214,-0.9739916441093214,-0.297536,-0.6511,0.227589,-0.660109,-1.043526,-0.114222,0.054179,-0.607563,-1.017078,-0.417387,0,0,-0.2971611622733485,-0.6506200504389325,0.2271092221059324,-0.660915721676069,-1.0416641903998132,-0.109503166462158,0.037960660629509,-0.3990453141609974,-1.497528077297854,-0.905516762339422
22136,2024 8 08,15:43:13.863,-0.268374,-0.578981,0.417769,-0.646703,-0.98001,-0.151852,-0.00585,1.817778,-3.76324,-0.685096,0,0,-0.268824490064627,-0.6158516126246173,0.3315223676171994,-0.6618723722041713,-0.9822910438124706,-0.0908872342831836,-0.0107180382292745,2.4538592669315227,-4.300463137194533,-0.9595468619038552,-0.297583,-0.651154,0.227642,-0.660016,-1.043492,-0.131329,0.008353,-0.889632,-1.315387,-0.538223,0,0,-0.2971822541596811,-0.6506467479169858,0.2271358610006358,-0.6608707355922656,-1.0417555808798225,-0.1105944581390501,0.0364802775980335,-0.4235746484529475,-1.4884210234329611,-0.8871520742224509
22137,2024 8 08,15:43:13.872,-0.26834,-0.615851,0.325282,-0.665517,-0.981214,-0.089532,-0.01999,1.822314,-3.679379,-0.529744,0,0,-0.2688002655613956,-0.6158515819933864,0.3312103492363394,-0.6620546035939627,-0.982237191621847,-0.0908194725690244,-0.0111816363178108,2.4222820035849466,-4.269408930334806,-0.9380567188086624,-0.297587,-0.651159,0.227646,-0.660008,-1.043489,-0.11039,0.042974,-0.913013,-1.340115,-0.548239,0,0,-0.297202491451697,-0.6506723605211364,0.227161367950604,-0.6608275988126523,-1.0418422518358312,-0.1105842352320976,0.0368049637181318,-0.4480465660303002,-1.481005722261313,-0.8702064205113282
22138,2024 8 08,15:43:13.880,-0.268311,-0.615668,0.325122,-0.665776,-0.982574,-0.082728,-0.023659,1.830096,-3.664004,-0.633804,0,0,-0.2687758022833258,-0.6158424028937171,0.3309059317745224,-0.6622406734142646,-0.9822540320407546,-0.0904148989405732,-0.0118055045019203,2.392672703405699,-4.239138683818066,-0.9228440828682292,-0.29763,-0.651219,0.227682,-0.659917,-1.046532,-0.120061,0.004506,-0.806575,-1.288144,-0.603536,0,0,-0.2972238668791122,-0.6506996924950796,0.2271873995530738,-0.6607820688720197,-1.0420767392440395,-0.1110580734704927,0.0351900155322252,-0.4659729877287852,-1.4713626361482477,-0.8568728994857618
22139,2024 8 08,15:43:13.888,-0.268306,-0.615473,0.324982,-0.666027,-0.982154,-0.082686,-0.023639,1.321171,-3.662341,-0.574116,0,0,-0.2687523121691595,-0.6158239327490311,0.3306097351857963,-0.6624299897435514,-0.9822490304387168,-0.0900284539935445,-0.0123971792768243,2.339097618235414,-4.210298799627163,-0.9054076787248178,-0.297661,-0.6513,0.22769,-0.659821,-1.050291,-0.106439,-0.063189,-0.41994,-1.443285,-0.770285,0,0,-0.2972457235351565,-0.6507297078703256,0.2272125295754201,-0.6607340154284187,-1.0424874522818377,-0.1108271197969681,0.030271064755614,-0.4636713383423459,-1.469958754340835,-0.8525435045114736
22140,2024 8 08,15:43:13.897,-0.268306,-0.615473,0.324982,-0.666027,-0.981989,-0.082967,-0.023465,1.181304,-3.66214,-0.552639,0,0,-0.2687299965607015,-0.6158063861115796,0.3303283484265065,-0.6626098402563738,-0.982236028916781,-0.0896753812938673,-0.012950570312983,2.281207937323644,-4.182890859645804,-0.8877692447885768,-0.297698,-0.651398,0.22769,-0.659708,-1.049898,-0.105482,0.029496,-0.109115,-1.514814,-0.948929,0,0,-0.2972683373583987,-0.6507631224768093,0.2272364030966491,-0.6606827146569978,-1.0428579796677455,-0.1105598638071197,0.0302323115178333,-0.4459435214252286,-1.4722015166237934,-0.8573627792859
22141,2024 8 08,15:43:13.905,-0.268309,-0.615275,0.324864,-0.666266,-0.981606,-0.088055,-0.02236,0.93733,-3.526821,-0.639995,0,0,-0.2687089467326665,-0.6157798168060006,0.3300551310051812,-0.6627926482435551,-0.982204527470942,-0.0895943622291739,-0.0134210417973339,2.214014040457461,-4.150087366663513,-0.8753805325491479,-0.297735,-0.651498,0.227673,-0.659598,-1.046925,-0.10297,0.028075,-0.328779,-1.367822,-1.076836,0,0,-0.2972916704904788,-0.6507998663529688,0.2272582329418166,-0.6606284789241478,-1.043061330684358,-0.1101803706167637,0.0301244459419416,-0.4400852953539671,-1.4669825407926036,-0.868336440321605
22142,2024 8 08,15:43:13.913,-0.268311,-0.615668,0.325122,-0.665776,-0.983276,-0.087785,-0.024526,1.000991,-3.397508,-0.577461,0,0,-0.2686890493960331,-0.6157742259657005,0.3298084744549221,-0.6629418158313773,-0.9822581010973948,-0.0895038941177152,-0.0139762897074672,2.153362888434588,-4.112458398330338,-0.8604845559216905,-0.297773,-0.651595,0.227644,-0.659495,-1.046086,-0.100165,0.007087,-0.10305,-1.295247,-1.14667,0,0,-0.2973157369659548,-0.6508396230353204,0.2272775212947258,-0.6605718049779404,-1.0432125641501402,-0.1096796020859255,0.0289725736448445,-0.4232335305862687,-1.4583957637529734,-0.8822531183055247
22143,2024 8 08,15:43:13.922,-0.268324,-0.614907,0.324649,-0.666704,-0.98135,-0.087469,-0.024192,1.03145,-3.407666,-0.510126,0,0,-0.2686707969262314,-0.6157308646674154,0.329550500732176,-0.6631299250398085,-0.982212696042525,-0.0894021494118294,-0.0144870752220938,2.097267244012858,-4.077218778413821,-0.8429666281256059,-0.297779,-0.65161,0.22764,-0.659479,-1.045957,-0.096214,0.008462,-0.068091,-1.284007,-1.157485,0,0,-0.297338900117657,-0.6508781418835543,0.2272956452299895,-0.6605171647290434,-1.043349785942633,-0.1090063219816292,0.0279470449626023,-0.4054764040569553,-1.4496763255653249,-0.8960147123902484
22144,2024 8 08,15:43:13.930,-0.268327,-0.614722,0.324525,-0.666934,-0.982385,-0.087763,-0.022934,1.036499,-3.502829,-0.492185,0,0,-0.2686536070799199,-0.6156804214340447,0.3292992256955672,-0.663320128787818,-0.9822213112403988,-0.0893201919412379,-0.0149094214609891,2.044228831812215,-4.0484992894931295,-0.8254275467193255,-0.297821,-0.651682,0.227624,-0.659394,-1.048742,-0.109324,0.040436,-0.162553,-1.081629,-1.059021,0,0,-0.2973630051117742,-0.6509183347893766,0.22731206296849,-0.6604610064925912,-1.0436193966455014,-0.1090222058825478,0.0285714927144722,-0.3933302338541075,-1.4312739592870585,-0.904165026770736
22145,2024 8 08,15:43:13.938,-0.268325,-0.614539,0.324392,-0.667169,-0.978042,-0.086842,-0.021181,1.336977,-3.533,-0.48902,0,0,-0.2686371767259239,-0.6156233503623424,0.3290538644107888,-0.6635125723484271,-0.9820123456783788,-0.089196282344176,-0.0152230003879397,2.008866240221604,-4.022724325018473,-0.8086071693833592,-0.297864,-0.651759,0.227596,-0.659308,-1.038544,-0.10818,0.021902,-0.179218,-1.392355,-0.942671,0,0,-0.2973880548561854,-0.6509603680499078,0.2273262598200655,-0.6604033561679616,-1.0433656268132263,-0.1089800955884204,0.0282380180787486,-0.3826246221614021,-1.4293280113227051,-0.9060903254321993
22146,2024 8 08,15:43:13.947,-0.268324,-0.614907,0.324649,-0.666704,-0.97649,-0.086511,-0.020643,1.439351,-3.538636,-0.488428,0,0,-0.2686215178896277,-0.6155875328442253,0.3288336211902494,-0.6636721437310057,-0.98173622839446,-0.0890620182269672,-0.0154940003685427,1.980390478210524,-3.998519908767549,-0.7925982109141912,-0.297886,-0.651882,0.227591,-0.659178,-1.044067,-0.096638,0.001409,-0.18233,-1.841327,-0.920939,0,0,-0.2974129521133761,-0.6510064496474123,0.2273394968290622,-0.6603420883595635,-1.043400695472565,-0.1083629908089993,0.0268965671748111,-0.372609891053332,-1.4499279607565698,-0.9068327591605893
22147,2024 8 08,15:43:13.955,-0.268337,-0.614345,0.324257,-0.667407,-0.97919,-0.090786,-0.021204,1.250837,-3.58148,-0.36311,0,0,-0.2686072919951462,-0.615525406202014,0.3286047901307369,-0.6638588865444554,-0.981608916974737,-0.0891482173156188,-0.0157795003501156,1.9439128042999976,-3.977667913329172,-0.7711238003684816,-0.297906,-0.651986,0.227592,-0.659065,-1.040521,-0.108591,0.049724,-0.279462,-1.736686,-0.723622,0,0,-0.2974376045077073,-0.6510554271650416,0.227352121987609,-0.6602782339415854,-1.0432567106989368,-0.1083743912685494,0.0280379388160706,-0.3679524965006653,-1.4642658627187413,-0.8976722212025596
22148,2024 8 08,15:43:13.963,-0.26834,-0.615851,0.325282,-0.665517,-0.979882,-0.118856,0.028575,1.179636,-3.514339,-0.276643,0,0,-0.2685939273953889,-0.6155416858919133,0.3284386506242,-0.6639417922172326,-0.981522571126,-0.0906336064498379,-0.0135617753326098,1.9056989640849973,-3.954501467662713,-0.7463997603500575,-0.297936,-0.652082,0.227637,-0.658942,-1.045508,-0.129791,0.022939,-0.728546,-1.572051,-0.539827,0,0,-0.2974625242823219,-0.6511067558067896,0.2273663658882286,-0.660211422244506,-1.0433692751639898,-0.1094452217051219,0.027782991875267,-0.3859821716756321,-1.4696551195828045,-0.8797799601424315
22149,2024 8 08,15:43:13.972,-0.268349,-0.614017,0.323979,-0.66784,-0.979004,-0.124904,-0.051318,1.286396,-3.405634,-0.251567,0,0,-0.2685816810256194,-0.6154654515973176,0.32821566809299,-0.6641367026063709,-0.9813966425697,-0.092347126127346,-0.0154495865659793,1.874733815880748,-3.927058094279577,-0.7216581223325546,-0.297943,-0.652103,0.227647,-0.658915,-1.046587,-0.110482,0.041627,-0.825714,-1.536429,-0.500059,0,0,-0.2974865480682058,-0.65115656801645,0.2273803975938171,-0.6601466011322806,-1.0435301614057904,-0.1094970606198658,0.0284751922815037,-0.4079687630918504,-1.472993813603664,-0.8607939121353099
22150,2024 8 08,15:43:13.980,-0.268362,-0.61385,0.323864,-0.668044,-0.982517,-0.181467,-0.02352,1.0075,-3.086875,-0.447075,0,0,-0.2685706969743385,-0.6153846790174516,0.3279980846883405,-0.6643320674760524,-0.981452660441215,-0.0968031198209787,-0.0158531072376803,1.83137212508671,-3.885048939565598,-0.7079289662159267,-0.297959,-0.652146,0.227678,-0.658855,-1.042737,-0.130218,0.007937,-0.521979,-1.202716,-0.258459,0,0,-0.2975101706647955,-0.6512060396156275,0.2273952777141263,-0.6600820210756666,-1.0434905033355006,-0.1105331075888725,0.0274482826674285,-0.4136692749372579,-1.4594799229234807,-0.8306771665285443
22151,2024 8 08,15:43:13.988,-0.268394,-0.613678,0.323759,-0.668239,-0.982667,-0.086441,-0.031409,1.130794,-3.087749,-0.206027,0,0,-0.2685618621256215,-0.615299345066579,0.3277861304539234,-0.6645274141022498,-0.9815133774191542,-0.0962850138299297,-0.0166309018757963,1.796343218832375,-3.845183942587318,-0.6828338679051303,-0.297968,-0.590095,0.413803,-0.625916,-1.038154,-0.108983,0.029192,-0.54257,-1.492106,-0.06378,0,0,-0.2975330621315557,-0.6481504876348461,0.23671566382842,-0.6583737200218832,-1.0432236781687254,-0.1104556022094289,0.0275354685340571,-0.420114311190395,-1.4611112267773063,-0.7923323082021171
22152,2024 8 08,15:43:13.997,-0.268406,-0.613618,0.323724,-0.668307,-0.982507,-0.085012,-0.011661,1.197724,-3.106392,-0.098093,0,0,-0.2685540690193405,-0.61521527781325,0.3275830239312272,-0.6647163933971373,-0.9815630585481964,-0.0957213631384333,-0.0163824067820065,1.766412257890756,-3.808244345457952,-0.6535968245098738,-0.297955,-0.652307,0.227808,-0.658651,-1.042489,-0.106733,0.033633,-0.411285,-2.244216,0.029135,0,0,-0.2975541590249779,-0.6483583132531038,0.2362702806369989,-0.658387584020789,-1.0431869442602892,-0.1102694720989574,0.0278403451073542,-0.4196728456308752,-1.500266465438441,-0.7512589427920112
22153,2024 8 08,15:43:14.005,-0.268429,-0.613495,0.323628,-0.668456,-0.978738,-0.092456,-0.031883,0.865094,-3.266452,-0.109663,0,0,-0.2685478155683734,-0.6151292639225875,0.3273852727346659,-0.6649033737272804,-0.9814218056207866,-0.0955580949815116,-0.0171574364429062,1.721346344996218,-3.781154728185054,-0.62640013328438,-0.297945,-0.65239,0.227888,-0.658547,-1.048973,-0.126593,0.019293,-0.69249,-1.491109,0.142427,0,0,-0.2975737010737289,-0.6485598975904486,0.235851166605149,-0.6583955548197495,-1.0434762470472747,-0.1110856484940095,0.0274129778519865,-0.4333137033493315,-1.499808592166519,-0.7065746456524106
22154,2024 8 08,15:43:14.013,-0.268447,-0.613347,0.323507,-0.668644,-0.979942,-0.137046,-0.014772,1.031341,-3.255481,-0.157082,0,0,-0.2685427747899547,-0.6150401507264581,0.3271913590979325,-0.6650904050409163,-0.9813478153397472,-0.097632490232436,-0.0170381646207608,1.6868460777464072,-3.754871041775801,-0.6029342266201609,-0.29794,-0.652435,0.227936,-0.658487,-1.041787,-0.115675,0.041349,-0.366364,-1.072436,0.083223,0,0,-0.2975920160200425,-0.6487536527109262,0.2354554082748915,-0.658400127078762,-1.043391784694911,-0.111315116069309,0.0281097789593872,-0.4299662181818649,-1.478439962558193,-0.6670847633697901
22155,2024 8 08,15:43:14.022,-0.268475,-0.613182,0.323387,-0.668842,-0.979175,-0.085784,-0.029479,0.857914,-3.316572,-0.175797,0,0,-0.2685393860504569,-0.6149472431901353,0.3270011411430359,-0.6652779847888705,-0.98123917457276,-0.0970400657208142,-0.0176602063897228,1.645399473859087,-3.7329560896870113,-0.5815773652891528,-0.297938,-0.652448,0.227949,-0.658471,-1.039851,-0.106988,0.021186,-0.278465,-0.959592,0.067266,0,0,-0.2976093152190403,-0.6489383700753799,0.2350800878611469,-0.658403670724824,-1.0432147454601657,-0.1110987602658436,0.0277635900114178,-0.4223911572727716,-1.452497564430283,-0.6303672252013006
22156,2024 8 08,15:43:14.030,-0.268511,-0.612571,0.342041,-0.66005,-0.978427,-0.089658,-0.026995,0.355787,-3.270204,-0.36867,0,0,-0.2685379667479341,-0.6148284310306285,0.3277531340858841,-0.665016585549427,-0.9810985658441218,-0.0966709624347735,-0.0181269460702367,1.5809188501661324,-3.709818485202661,-0.5709319970246951,-0.297922,-0.652532,0.228009,-0.658373,-1.048688,-0.103479,0.026607,-0.340864,-2.013352,0.062835,0,0,-0.2976249494580883,-0.6491180515716108,0.2347265334680896,-0.6584021371885828,-1.0434884081871572,-0.1107177722525514,0.0277057605108469,-0.418314799409133,-1.4805402862087689,-0.5957071139412355
22157,2024 8 08,15:43:14.038,-0.268541,-0.61282,0.323204,-0.669236,-0.979355,-0.086756,-0.031213,0.593939,-3.24535,-0.378548,0,0,-0.2685381184105374,-0.614728009479097,0.3275256773815899,-0.6652275562719556,-0.9810113875519156,-0.0961752143130348,-0.0187812487667248,1.5315698576578256,-3.686595060942528,-0.5613127971734604,-0.297903,-0.652624,0.228062,-0.658273,-1.047092,-0.104194,0.026439,-0.444537,-1.584681,-0.067203,0,0,-0.2976388519851839,-0.6492933489930303,0.2343933067946851,-0.6583956803291536,-1.0436685877777991,-0.1103915836399238,0.0276424224853046,-0.4196259094386764,-1.4857473218983304,-0.5692819082441738
22158,2024 8 08,15:43:14.047,-0.268573,-0.612642,0.323125,-0.669424,-0.981867,-0.087519,-0.030634,0.512434,-3.054485,-0.443395,0,0,-0.2685398624900105,-0.6146237090051422,0.3273056435125103,-0.6654373784583578,-0.98105416817432,-0.0957424035973831,-0.0193738863283886,1.4806130647749345,-3.654989557895401,-0.5554169073147873,-0.297904,-0.652699,0.228115,-0.65818,-1.053417,-0.105083,0.029446,-0.43251,-1.331507,-0.147822,0,0,-0.2976521093859247,-0.6494636315433787,0.2340793914549508,-0.6583848963126959,-1.0441560083889092,-0.1101261544579276,0.0277326013610393,-0.4202701139667426,-1.4780353058034137,-0.548208912831965
22159,2024 8 08,15:43:14.055,-0.268587,-0.612572,0.323094,-0.669498,-0.982941,-0.088113,-0.03005,0.45382,-2.968618,-0.474279,0,0,-0.26854221936551,-0.6145211235548851,0.3270950613368848,-0.6656404095354399,-0.981148509765604,-0.0953609334175139,-0.0199076920119691,1.4292734115361876,-3.620670980000631,-0.5513600119490479,-0.29791,-0.652757,0.22815,-0.658108,-1.04625,-0.104007,0.023297,-0.386893,-1.213273,-0.25609,0,0,-0.2976650039166284,-0.6496282999662097,0.2337829218822033,-0.6583710514970611,-1.0442607079694637,-0.1098201967350313,0.0275108212929874,-0.4186012582684054,-1.4647971905132429,-0.5336029671903668
22160,2024 8 08,15:43:14.063,-0.268611,-0.612453,0.323038,-0.669624,-0.982985,-0.086571,-0.032457,0.435732,-2.834333,-0.376025,0,0,-0.2685456583972344,-0.6144177173771408,0.3268922082700405,-0.6658395890586679,-0.9812403342773236,-0.0949214367466382,-0.0205351574113707,1.379596340959378,-3.5813540810005997,-0.5425932613515955,-0.297905,-0.652853,0.228189,-0.658001,-1.049689,-0.108993,0.028379,-0.165085,-1.675336,-0.289502,0,0,-0.297677003720797,-0.6497895349678993,0.2335032257880931,-0.658352548922208,-1.0445321225709905,-0.1097788368982797,0.027554230228338,-0.4059254453549851,-1.4753241309875806,-0.5213979188308484
22161,2024 8 08,15:43:14.072,-0.268644,-0.612308,0.322976,-0.669773,-0.982386,-0.088661,-0.036746,0.287825,-2.739686,-0.363857,0,0,-0.2685505754773727,-0.6143122315082837,0.3266963978565385,-0.6660362596057345,-0.9812976175634576,-0.0946084149093063,-0.0213456995408021,1.3250077739114092,-3.539270676950569,-0.5336564482840157,-0.297902,-0.652927,0.22821,-0.657921,-1.046829,-0.075244,0.023212,-0.053903,-1.163618,-0.258952,0,0,-0.2976882535347571,-0.6499464082195043,0.2332385644986885,-0.6583309714760975,-1.044646966442441,-0.1080520950533657,0.0273371187169211,-0.3883243230872358,-1.4597388244382017,-0.508275622889306
22162,2024 8 08,15:43:14.080,-0.268676,-0.612166,0.32291,-0.669922,-0.980416,-0.089214,-0.034113,0.323564,-2.527728,-0.295075,0,0,-0.268556846703504,-0.6142049199328695,0.3265070779637116,-0.6662305466254478,-0.9812535366852844,-0.094338694163841,-0.021984064563762,1.2749355852158386,-3.4886935431030404,-0.5217273758698149,-0.297901,-0.652951,0.228217,-0.657895,-1.045905,-0.110207,0.027457,-0.017981,-0.998284,-0.249081,0,0,-0.2976988908580192,-0.6500966378085291,0.232987486273754,-0.6583091729022926,-1.0447098681203189,-0.1081598403006974,0.027343112781075,-0.3698071569328741,-1.4366660832162912,-0.4953158917448406
22163,2024 8 08,15:43:14.088,-0.268695,-0.612077,0.322868,-0.670016,-0.979045,-0.089357,-0.031759,0.365856,-2.381599,-0.244565,0,0,-0.2685637543683288,-0.614098523936226,0.326325124065526,-0.6664198192941754,-0.9811431098510204,-0.0940896094556489,-0.0224728113355739,1.2294816059550466,-3.4333388159478884,-0.5078692570763241,-0.297901,-0.652951,0.228217,-0.657895,-1.046035,-0.108212,0.023018,-0.024702,-0.973505,-0.268734,0,0,-0.2977089963151183,-0.6502393559181026,0.2327489619600663,-0.6582884642571779,-1.0447761247143028,-0.1081624482856625,0.0271268571420213,-0.3525518990862303,-1.413508029055477,-0.4839867971575986
22164,2024 8 08,15:43:14.097,-0.268709,-0.611958,0.322786,-0.670158,-0.974743,-0.089358,-0.034124,0.664191,-2.201607,-0.244151,0,0,-0.2685710166499124,-0.6139914977394146,0.3261481678622497,-0.6666067283294667,-0.9808231043584692,-0.0938530289828664,-0.0230553707687952,1.2012170756572942,-3.3717522251504937,-0.4946833442225079,-0.2979,-0.653051,0.228226,-0.657794,-1.049425,-0.067868,-0.006279,-0.179375,-1.253493,-0.399338,0,0,-0.2977185464993624,-0.6503799381221974,0.232522813862063,-0.658263741044319,-1.0450085684785877,-0.1061477258713794,0.0254565642849202,-0.3438930541319188,-1.4055072776027029,-0.4797543572997186
22165,2024 8 08,15:43:14.105,-0.268719,-0.61185,0.32273,-0.67028,-0.9784,-0.092645,-0.028544,0.142842,-2.021342,-0.244141,0,0,-0.2685784158174167,-0.6138844228524439,0.3259772594691372,-0.6667903919129934,-0.9807019491405456,-0.0937926275337231,-0.0233298022303555,1.1482983218744294,-3.304231713892969,-0.4821562270113825,-0.297905,-0.652853,0.228189,-0.658001,-1.047536,-0.109236,0.020863,-0.175026,-0.736514,-0.26596,0,0,-0.2977278691743943,-0.6505035912160875,0.2323061231689598,-0.6582506039921029,-1.045134940054658,-0.1063021395778104,0.0252268860706742,-0.3354497014253229,-1.3720576137225675,-0.4690646394347327
22166,2024 8 08,15:43:14.113,-0.26872,-0.611846,0.322727,-0.670285,-0.978538,-0.092769,-0.028333,0.123164,-2.014538,-0.244141,0,0,-0.2685854950265459,-0.6137825017098217,0.3258147464956803,-0.6669651223173436,-0.9805937516835184,-0.093741446157037,-0.0235799621188377,1.0970416057807078,-3.2397470281983205,-0.4702554656608133,-0.297919,-0.653144,0.228228,-0.657692,-1.047803,-0.106778,-0.016429,-0.156131,-0.577901,-0.337479,0,0,-0.2977374257156746,-0.6506356116552832,0.2321022170105118,-0.6582226737924978,-1.0452683430519252,-0.1063259325989199,0.0231440917671405,-0.3264837663540567,-1.332349783036439,-0.462485357462996
22167,2024 8 08,15:43:14.122,-0.268721,-0.611747,0.322636,-0.670418,-0.98128,-0.088674,-0.039261,0.862804,-2.185107,-0.130193,0,0,-0.2685922702752186,-0.6136807266243306,0.3256558091708962,-0.6671377662014764,-0.9806280640993424,-0.0934880738491851,-0.0243640140128958,1.0853297254916725,-3.1870150267884045,-0.4532523423777726,-0.297935,-0.653159,0.228236,-0.657668,-1.047915,-0.112851,0.050365,-0.352232,-0.238583,-0.185674,0,0,-0.2977473044298908,-0.650761781072519,0.2319089061599862,-0.6581949401028728,-1.0454006758993288,-0.1066521859689739,0.0245051371787834,-0.3277711780363539,-1.277661443884617,-0.4486447895898462
22168,2024 8 08,15:43:14.130,-0.26873,-0.611649,0.322536,-0.670552,-0.981909,-0.08571,-0.035486,0.911307,-2.027843,-0.010421,0,0,-0.2685991567614577,-0.6135791402931141,0.3254998187123514,-0.6673084778914025,-0.9806921108943754,-0.0930991701567258,-0.024920113312251,1.0766285892170886,-3.1290564254489843,-0.4311107752588839,-0.297956,-0.653154,0.228237,-0.657663,-1.051031,-0.110675,0.028815,-0.365092,0.317803,-0.127161,0,0,-0.2977577392083963,-0.6508813920188931,0.2317253108519869,-0.6581683430977291,-1.0456821921043624,-0.1068533266705252,0.0247206303198443,-0.3296372191345362,-1.197888221690386,-0.4325706001103538
22169,2024 8 08,15:43:14.138,-0.268737,-0.61156,0.322437,-0.670678,-0.98373,-0.084147,-0.033417,0.970484,-1.849386,-0.05632,0,0,-0.2686060489233848,-0.6134781832784584,0.3253466777767339,-0.6674769539968323,-0.9808440053496564,-0.0926515616488895,-0.0253449576466385,1.071321359756234,-3.0650729041765348,-0.4123712364959397,-0.297964,-0.653148,0.228239,-0.657664,-1.051037,-0.110828,0.029552,-0.403526,0.361702,-0.107577,0,0,-0.2977680522479765,-0.6509947224179483,0.2315509953093875,-0.6581431259428426,-1.0459499324991444,-0.1070520603369989,0.024962198803852,-0.3333316581778093,-1.1199087106058667,-0.4163209201048361
22170,2024 8 08,15:43:14.147,-0.268718,-0.611482,0.322373,-0.670788,-0.987826,-0.080948,-0.045888,0.757633,-1.396424,-0.497107,0,0,-0.2686116464772155,-0.6133783741145354,0.3251979938878971,-0.6676425062969906,-0.9811931050821736,-0.0920663835664451,-0.0263721097643065,1.0556369417684224,-2.981640458967708,-0.4166080246711428,-0.298008,-0.653106,0.22825,-0.657682,-1.048583,-0.110783,0.031153,-0.561854,0.528066,-0.02615,0,0,-0.2977800496355777,-0.651100286297051,0.2313859455439181,-0.6581200696457005,-1.046081585874187,-0.107238607320149,0.0252717388636594,-0.3447577752689188,-1.0375099750755734,-0.3968123740995943
22171,2024 8 08,15:43:14.155,-0.26872,-0.611846,0.322727,-0.670285,-0.983949,-0.079753,-0.038149,0.789219,-1.34912,-0.32788,0,0,-0.2686170641533547,-0.6133017554088087,0.3250744441935023,-0.6677746309821411,-0.981330899828065,-0.0914507143881228,-0.0269609542760912,1.0423160446800013,-2.9000144360193225,-0.4121716234375856,-0.298056,-0.653041,0.228231,-0.657731,-1.042835,-0.109998,0.028854,-0.066464,1.285506,-0.132553,0,0,-0.2977938471537988,-0.6511973219821985,0.2312281982667222,-0.6581006161634154,-1.0459192565804776,-0.1073765769541415,0.0254508519204765,-0.3308430865054729,-0.9213591763217946,-0.3835994053946145
22172,2024 8 08,15:43:14.163,-0.268721,-0.611747,0.322636,-0.670418,-0.983496,-0.079613,-0.037246,0.792905,-1.343601,-0.308135,0,0,-0.268622260945687,-0.6132240176383683,0.3249525219838271,-0.667906799433034,-0.9814391548366616,-0.0908588286687167,-0.0274752065622866,1.0298454924460012,-2.8221937642183565,-0.4069697922657063,-0.298078,-0.653034,0.228217,-0.657733,-1.045102,-0.103127,0.025061,0.012867,-0.330185,-0.282675,0,0,-0.2978080547961089,-0.6512891558830884,0.2310776383533861,-0.6580822353552447,-1.0458783937514535,-0.1071640981064344,0.0254313593244526,-0.3136575821801992,-0.8918004675057049,-0.3785531851248838
22173,2024 8 08,15:43:14.172,-0.268715,-0.611303,0.322304,-0.670985,-0.984695,-0.084203,-0.035035,0.217381,-1.342891,-0.724504,0,0,-0.2686268978984026,-0.6131279667564499,0.3248200958846357,-0.6680607094613822,-0.9816019470948284,-0.0905260372352808,-0.0278531962341723,0.9892222678237012,-2.748228626007439,-0.422846502652421,-0.298083,-0.653059,0.228197,-0.657714,-1.04545,-0.11616,0.055971,0.144758,-0.015789,-0.316139,0,0,-0.2978218020563034,-0.6513776480889341,0.2309336064357168,-0.6580638235874824,-1.045856974063881,-0.1076138932011127,0.02695834135823,-0.2907368030711892,-0.8479998941304195,-0.3754324758686396
22174,2024 8 08,15:43:14.180,-0.268695,-0.612077,0.322868,-0.670016,-0.980316,-0.084847,-0.040512,0.085033,-1.497791,-0.937873,0,0,-0.2686303030034825,-0.6130754184186273,0.3247224910904039,-0.6681584739883131,-0.981537649740087,-0.0902420853735168,-0.0284861364224637,0.944012804432516,-2.685706744707067,-0.4485978275198,-0.298095,-0.653073,0.228177,-0.657701,-1.045857,-0.108188,0.028712,0.073886,-0.105757,-0.410192,0,0,-0.2978354619534882,-0.6514624156844873,0.2307957761139309,-0.6580456824081082,-1.045856975360687,-0.1076425985410571,0.0270460242903185,-0.2725056629176298,-0.8108877494238985,-0.3771704520752076
22175,2024 8 08,15:43:14.188,-0.268683,-0.611085,0.32235,-0.671175,-0.978429,-0.086576,-0.033183,-0.291931,0.69049,-0.203048,0,0,-0.2686329378533083,-0.612975897497696,0.3246038665358837,-0.6683093002888973,-0.9813822172530826,-0.0900587811048409,-0.0287209796013405,0.8822156142108902,-2.5168969074717134,-0.43632033614381,-0.298098,-0.653079,0.228169,-0.657696,-1.046194,-0.10862,0.029333,0.056256,-0.133173,-0.438227,0,0,-0.2978485888558138,-0.6515432449002629,0.2306644373082343,-0.6580281982877029,-1.0458738265926526,-0.1076914686140042,0.0271603730758026,-0.2560675797717482,-0.7770020119527036,-0.3802232794714472
22176,2024 8 08,15:43:14.197,-0.268672,-0.610984,0.322399,-0.671247,-0.980538,-0.091688,-0.0332,-0.151871,-1.11016,-1.043663,0,0,-0.2686348909606429,-0.6128763026228112,0.3244936232090895,-0.6684561852744524,-0.9813400063904284,-0.0901402420495989,-0.0289449306212735,0.8305112835003458,-2.446560062098128,-0.4666874693366195,-0.298106,-0.653103,0.228133,-0.657681,-1.047064,-0.112325,0.027258,0.030284,-0.061356,-0.529827,0,0,-0.2978614594130231,-0.6516212326552497,0.2305378654428226,-0.6580108383733176,-1.04593333526302,-0.107923145183304,0.0271652544220124,-0.2417500007831608,-0.7412197113550684,-0.3877034654978748
22177,2024 8 08,15:43:14.205,-0.268651,-0.610883,0.32242,-0.671338,-0.976134,-0.092971,-0.033203,-0.177296,-1.349192,-0.93936,0,0,-0.2686356964126107,-0.6127766374916707,0.3243899420486349,-0.6686002760107297,-0.9810797060709068,-0.0902817799471189,-0.0291578340902098,0.7801209193253285,-2.391691658993221,-0.4903210958697885,-0.298148,-0.653087,0.22809,-0.657694,-1.041479,-0.120847,0.058621,0.074069,0.773999,-0.565845,0,0,-0.297875786442372,-0.6516945210224871,0.2304154721706815,-0.6579949964546518,-1.045710618499869,-0.1085693379241388,0.0287380417009118,-0.2259590507440028,-0.6654587757873148,-0.3966105422229811
22178,2024 8 08,15:43:14.213,-0.268647,-0.610864,0.322423,-0.671355,-0.975325,-0.098524,-0.083877,-0.181965,-1.393089,-0.920205,0,0,-0.2686362615919802,-0.612681005617087,0.3242915949462032,-0.6687380122101931,-0.9807919707673616,-0.090693890949763,-0.0318937923856993,0.732016623359062,-2.34176152604356,-0.5118152910762991,-0.29819,-0.653098,0.228055,-0.657676,-1.041663,-0.161869,-0.009501,-0.367264,-0.308096,-0.686461,0,0,-0.2978914971202534,-0.6517646949713628,0.2302974485621474,-0.6579790466319192,-1.0455082375748754,-0.1112343210279318,0.0268260896158662,-0.2330242982068026,-0.647590636997949,-0.411103065111832
22179,2024 8 08,15:43:14.222,-0.268624,-0.61079,0.322421,-0.671432,-0.977494,-0.088214,-0.035142,0.253119,-1.353154,-0.819606,0,0,-0.2686356485123811,-0.6125864553362327,0.324198065198893,-0.6688727115996835,-0.9806270722289934,-0.0905698964022748,-0.0320562027664143,0.7080717421911089,-2.2923311497413814,-0.5272048265224841,-0.298206,-0.653135,0.228015,-0.657645,-1.045102,-0.103127,0.025061,-0.062668,-0.06752,-0.626053,0,0,-0.2979072222642407,-0.6518332102227946,0.23018332613404,-0.6579623443003232,-1.0454879256961316,-0.1108289549765352,0.0267378351350729,-0.2245064832964625,-0.6185871051480516,-0.4218505618562404
22180,2024 8 08,15:43:14.230,-0.268605,-0.610708,0.3224,-0.671525,-0.977553,-0.090259,-0.037833,0.38962,-1.345016,-0.703415,0,0,-0.2686341160867621,-0.612492532569421,0.3241081619389484,-0.6690053260196993,-0.9804733686175436,-0.0905543515821611,-0.0323450426280936,0.6921491550815534,-2.244965392254312,-0.5360153351963599,-0.298224,-0.653162,0.227977,-0.657623,-1.046134,-0.109498,0.028177,0.082151,-0.349514,-0.613744,0,0,-0.2979230611510287,-0.6518996497116549,0.230073009827338,-0.657945377085307,-1.0455202294113248,-0.1107624072277085,0.0268097933783193,-0.2091736091316394,-0.605133449890649,-0.4314452337634283
22181,2024 8 08,15:43:14.238,-0.268589,-0.610634,0.322387,-0.671605,-0.981346,-0.146852,-0.039852,0.229701,-1.059697,-0.536822,0,0,-0.268631860282424,-0.61239960594095,0.324022103842001,-0.6691353097187143,-0.9805170001866664,-0.093369234003053,-0.0327203904966889,0.6690267473274757,-2.1857019726415965,-0.5360556684365418,-0.298233,-0.653168,0.227967,-0.657617,-1.045843,-0.109855,0.028033,0.087501,-0.333019,-0.604726,0,0,-0.2979385580934772,-0.6519630672260721,0.2299677093359711,-0.6579289582310416,-1.0455363679407583,-0.1107170368663231,0.0268709537094033,-0.1943398786750574,-0.5915277273961166,-0.4401092720752569
22182,2024 8 08,15:43:14.247,-0.268582,-0.610563,0.322382,-0.671674,-0.980324,-0.088001,-0.04462,0.007271,-0.902704,-0.546381,0,0,-0.2686293672683028,-0.6123077756439025,0.3239400986499009,-0.6692622442327785,-0.980507350177333,-0.0931008223029004,-0.0333153709718545,0.6359389599611018,-2.121552074009516,-0.5365719350147148,-0.298263,-0.653178,0.227946,-0.6576,-1.043002,-0.108047,0.02684,-0.079147,0.073157,-0.549707,0,0,-0.2979547801888033,-0.6520238138647685,0.2298666238691725,-0.6579125103194895,-1.0454096495437206,-0.1105835350230069,0.0268694060239331,-0.1885802347413045,-0.5582934910263108,-0.445589158471494
22183,2024 8 08,15:43:14.255,-0.268572,-0.610497,0.322347,-0.671756,-0.983778,-0.437963,0.004243,0.924583,-1.050819,-0.317898,0,0,-0.2686264989048876,-0.6122172368617074,0.3238604437174058,-0.6693869320211394,-0.9806708826684664,-0.1103439311877553,-0.0314374524232617,0.6503711619630468,-2.0680154203090404,-0.525638238263979,-0.298287,-0.653196,0.227922,-0.65758,-1.044916,-0.108096,0.028738,-0.151497,-0.282644,-0.457131,0,0,-0.2979713911793631,-0.6520824231715301,0.2297693926757139,-0.657895884803515,-1.0453849670665345,-0.1104591582718566,0.0269628357227365,-0.1867260730042393,-0.5445110164749952,-0.4461662505479193
22184,2024 8 08,15:43:14.263,-0.268569,-0.610481,0.322338,-0.671776,-0.984611,-0.082402,-0.043072,1.14581,-1.08654,-0.262795,0,0,-0.2686236239596432,-0.612130425018622,0.3237843215315355,-0.6695063854200823,-0.980867888535043,-0.1089468346283676,-0.0320191798020987,0.6751431038648944,-2.018941649293588,-0.5124960763507801,-0.298311,-0.653207,0.227896,-0.657567,-1.043534,-0.128741,0.006793,-0.117182,0.046815,-0.434804,0,0,-0.297988371620395,-0.6521386520129535,0.2296757230419282,-0.6578794405633392,-1.0452924187132078,-0.1113732503582637,0.0259543439365996,-0.1832488693540273,-0.5149447156512454,-0.4455981380205233
22185,2024 8 08,15:43:14.272,-0.268562,-0.610418,0.322302,-0.671853,-0.984459,-0.086096,-0.036507,0.615213,-1.185608,-0.339159,0,0,-0.268620542761661,-0.6120448037676909,0.3237102054549587,-0.6696237161490782,-0.9810474441082908,-0.1078042928969492,-0.0322435708119937,0.6721465986716497,-1.977274966828909,-0.503829222533241,-0.298347,-0.653205,0.227879,-0.657559,-1.044573,-0.097984,0.017794,-0.085498,0.01834,-0.417035,0,0,-0.2980063030393752,-0.6521919694123057,0.2295858868898317,-0.6578634185351723,-1.0452564477775474,-0.1107037878403505,0.0255463267397696,-0.1783613258863259,-0.4882804798686831,-0.4441699811194971
22186,2024 8 08,15:43:14.280,-0.268556,-0.610338,0.322264,-0.671946,-0.982994,-0.348708,0.033833,0.433456,-1.433985,-0.448009,0,0,-0.2686173156235779,-0.6119594635793063,0.3236378951822107,-0.6697398303416243,-0.9811447719028762,-0.1198494782521017,-0.028939742271394,0.6602120687380673,-1.950110468487463,-0.5010382114065789,-0.298382,-0.653208,0.227875,-0.657541,-1.051623,-0.109832,0.029973,-0.424058,0.049505,-0.335385,0,0,-0.2980250878874064,-0.6522427709416905,0.2295003425453401,-0.6578472976084135,-1.04557477538867,-0.110660198448333,0.0257676604027812,-0.1906461595920096,-0.461391205875249,-0.4387307320635222
22187,2024 8 08,15:43:14.288,-0.268537,-0.610255,0.32222,-0.67205,-0.984012,-0.085237,-0.039025,0.473021,-1.456255,-0.477072,0,0,-0.268613299842399,-0.611874240400341,0.3235670004231002,-0.6698553388245431,-0.9812881333077323,-0.1181188543394966,-0.0294440051578243,0.6508525153011638,-1.92541769506309,-0.4998399008362499,-0.298396,-0.653203,0.227868,-0.657542,-1.051647,-0.091423,0.026469,-0.460851,0.165028,-0.325495,0,0,-0.2980436334930361,-0.6522907823946059,0.2294187254180731,-0.6578320327279928,-1.0458783866192365,-0.1096983385259163,0.0258027273826421,-0.2041564016124091,-0.4300702455814865,-0.4330689454603461
22188,2024 8 08,15:43:14.297,-0.268528,-0.610168,0.322192,-0.672146,-0.982202,-0.086087,-0.039053,0.353253,-1.418831,-0.615728,0,0,-0.268609034850279,-0.611788928380324,0.3234982504019452,-0.6699698718833159,-0.9813338266423456,-0.1165172616225218,-0.0299244548999331,0.6359725395361057,-1.9000883603099352,-0.5056343057944375,-0.298429,-0.653168,0.227831,-0.657574,-1.041881,-0.112815,0.022486,-0.067227,0.662769,-0.398101,0,0,-0.2980629018183843,-0.6523346432748756,0.2293393391471695,-0.6578191310915932,-1.0456785172882743,-0.1098541715996205,0.02563689101351,-0.1973099315317887,-0.3754282833024122,-0.4313205481873288
22189,2024 8 08,15:43:14.305,-0.268527,-0.610071,0.322185,-0.672237,-0.979966,-0.089084,-0.037682,0.060911,-1.365161,-0.655003,0,0,-0.268604933107765,-0.6117030319613078,0.3234325878818479,-0.6700832282891501,-0.9812654353102284,-0.1151455985413957,-0.0303123321549364,0.6072194625593003,-1.8733419922944383,-0.5131027405047156,-0.298443,-0.653195,0.227809,-0.657549,-1.050325,-0.114953,0.030672,0.424857,-0.408974,-0.430314,0,0,-0.2980819067274651,-0.6523776611111317,0.229262822189811,-0.6578056245370134,-1.0459108414238607,-0.1101091130196395,0.0258886464628345,-0.1662015849551992,-0.3771055691372916,-0.4312702207779623
22190,2024 8 08,15:43:14.313,-0.268527,-0.610071,0.322185,-0.672237,-0.979316,-0.089957,-0.037283,-0.024196,-1.349537,-0.666437,0,0,-0.2686010364523767,-0.6116214303632425,0.3233702084877555,-0.6701909168746926,-0.981167963544717,-0.1138861686143259,-0.0306608655471896,0.5756486894313352,-1.8471517426797168,-0.5207694534794798,-0.298463,-0.653211,0.22777,-0.657538,-1.045177,-0.111974,0.025072,0.360889,0.02032,-0.519126,0,0,-0.2981009613910918,-0.6524193280555751,0.2291881810803204,-0.6577922433101627,-1.0458741493526675,-0.1102023573686575,0.0258478141396928,-0.1398470557074392,-0.357234290680427,-0.4356630097390641
22191,2024 8 08,15:43:14.322,-0.268524,-0.609964,0.322178,-0.67234,-0.978784,-0.124362,0.014243,0.034642,-1.429137,-0.669854,0,0,-0.2685971846297579,-0.6115385588450803,0.3233105980633677,-0.6702983710309579,-0.9810487653674812,-0.1144099601836096,-0.0284156722698301,0.5485983549597684,-1.8262510055457304,-0.5282236808055057,-0.298474,-0.653241,0.227728,-0.657518,-1.046899,-0.095264,0.001207,0.207419,-0.214587,-0.559314,0,0,-0.2981196133215372,-0.6524604116527963,0.2291151720263043,-0.6577785311446546,-1.0459253918850342,-0.1094554395002246,0.0246157734327081,-0.1224837529220673,-0.3501019261464057,-0.4418455592521109
22192,2024 8 08,15:43:14.330,-0.268515,-0.609874,0.322163,-0.672431,-0.977954,-0.09306,-0.041959,0.219395,-1.370157,-0.670901,0,0,-0.26859307539827,-0.6114553309028262,0.3232532181601993,-0.6704050024794099,-0.980894027099107,-0.1133424621744291,-0.0290928386563386,0.53213818721178,-1.803446305268444,-0.5353575467652304,-0.298487,-0.653247,0.227685,-0.657521,-1.042236,-0.112716,0.02336,0.232497,0.182052,-0.42744,0,0,-0.2981379826554603,-0.6524997410701564,0.2290436634249891,-0.6577656545874219,-1.0457409222907823,-0.1096184675252134,0.0245529847610727,-0.1047347152759639,-0.3234942298390854,-0.4411252812895053
22193,2024 8 08,15:43:14.338,-0.268508,-0.609792,0.32214,-0.67252,-0.972745,-0.091878,-0.037363,0.318594,-1.351655,-0.423792,0,0,-0.2685888216283564,-0.6113721643576849,0.3231975572521893,-0.6705107523554394,-0.9804865757441515,-0.1122692390657077,-0.0295063467235217,0.5214609778511909,-1.7808567400050217,-0.5297792694269688,-0.298491,-0.653252,0.22767,-0.657519,-1.041308,-0.112681,0.022548,0.21806,0.222841,-0.386069,0,0,-0.2981556335226872,-0.6525373540166486,0.2289749802537397,-0.6577533218580507,-1.0455192761762433,-0.1097715941489527,0.0244527355230191,-0.0885949795121657,-0.2961774683471311,-0.43837246722503
22194,2024 8 08,15:43:14.347,-0.268508,-0.609792,0.32214,-0.67252,-0.976623,-0.099334,-0.03295,-0.302467,-1.141687,-0.385295,0,0,-0.2685847805469386,-0.6112931561398006,0.3231446793895798,-0.6706112147376675,-0.980293396956944,-0.1116224771124223,-0.0296785293873456,0.4802645789586314,-1.7488982530047703,-0.5225550559556205,-0.298498,-0.653273,0.227653,-0.657501,-1.044089,-0.112238,0.028242,0.050203,-0.216152,-0.350723,0,0,-0.2981727518465529,-0.6525741363158162,0.2289088812410527,-0.6577407057651481,-1.0454477623674312,-0.1098949144415051,0.0246421987468681,-0.0816550805365574,-0.2921761949297745,-0.4339899938637785
22195,2024 8 08,15:43:14.355,-0.268473,-0.609636,0.322111,-0.672689,-0.980642,-0.089974,-0.039606,0.337429,-1.19575,-0.471466,0,0,-0.2685791915195916,-0.6112102983328106,0.3230929954201009,-0.670715104000784,-0.9803108271090968,-0.1105400532568011,-0.0301749029179783,0.4731228000106998,-1.721240840354532,-0.5200006031578394,-0.29852,-0.653279,0.22764,-0.657489,-1.042518,-0.113281,0.020536,-0.243085,0.303306,-0.122891,0,0,-0.2981901142542252,-0.6526093795000253,0.228845437179,-0.6577281204768907,-1.0453012742490595,-0.1100642187194298,0.0244368888095247,-0.0897265765097295,-0.2624020851832858,-0.4184350441705896
22196,2024 8 08,15:43:14.363,-0.268467,-0.609629,0.322106,-0.6727,-0.98098,-0.121388,0.032623,0.485422,-1.22023,-0.487963,0,0,-0.268573581943612,-0.61113123341617,0.3230436456490958,-0.6708143488007448,-0.980344285753642,-0.1110824505939611,-0.0270350077720794,0.4737377600101648,-1.6961902983368051,-0.5183987229999474,-0.298551,-0.653258,0.227658,-0.65749,-1.052093,-0.109452,0.025778,-0.60339,0.125506,0.057549,0,0,-0.298208158541514,-0.652641810525024,0.22878606532005,-0.6577162144530462,-1.0456408605366063,-0.1100336077834583,0.0245039443690485,-0.115409747684243,-0.2430066809241214,-0.3946358419620601
22197,2024 8 08,15:43:14.372,-0.268452,-0.609559,0.322075,-0.672784,-0.983435,-0.085039,-0.041016,0.437189,-1.322678,-0.48827,0,0,-0.2685675028464314,-0.6110526217453615,0.322995213366641,-0.6709128313607075,-0.9804988214659598,-0.109780278064263,-0.0277340573834754,0.4719103220096565,-1.677514683419965,-0.51689228684995,-0.298608,-0.653161,0.227645,-0.657565,-1.035288,-0.104663,0.025405,-0.374241,1.714344,0.001948,0,0,-0.2982281506144383,-0.6526677699987727,0.2287290120540475,-0.6577086537303939,-1.0451232175097762,-0.1097650773942854,0.024548997150596,-0.1283513103000309,-0.1451391468779154,-0.374806649863957
22198,2024 8 08,15:43:14.380,-0.268445,-0.609473,0.322062,-0.672871,-0.984295,-0.090531,-0.045839,0.176564,-1.191105,-0.638978,0,0,-0.2685613777041098,-0.6109736406580933,0.3229485526983089,-0.671010739792672,-0.9806886303926616,-0.1088178141610499,-0.0286393045143016,0.4571430059091737,-1.6531941992489667,-0.5229965725074526,-0.298619,-0.653182,0.227664,-0.657533,-1.052387,-0.107756,0.041657,-0.482772,-1.078912,9.4e-05,0,0,-0.2982476930837163,-0.6526934814988341,0.2286757614513451,-0.6576998710438741,-1.0454864066342873,-0.1096646235245711,0.0254043972930662,-0.1460723447850294,-0.1918277895340196,-0.3560616173707592
22199,2024 8 08,15:43:14.388,-0.268433,-0.609388,0.322057,-0.672956,-0.984398,-0.090533,-0.045624,-0.023009,-1.112136,-0.718858,0,0,-0.2685549588189044,-0.6108943586251886,0.3229039750633935,-0.6711080028030384,-0.9808740988730286,-0.1079035734529974,-0.0294885392885866,0.433135405613715,-1.6261412892865184,-0.5327896438820799,-0.298619,-0.653182,0.227664,-0.657533,-1.053201,-0.107904,0.04243,-0.487938,-1.211864,6e-06,0,0,-0.2982662584295305,-0.6527179074238925,0.2286251733787779,-0.6576915274916803,-1.045872136302573,-0.1095765923483425,0.0262556774284129,-0.1631656275457779,-0.2428296000573186,-0.3382582365022212
22200,2024 8 08,15:43:14.397,-0.268429,-0.613495,0.323628,-0.668456,-0.980893,-0.08996,-0.043086,-0.155693,-1.002112,-0.682618,0,0,-0.2685486608779591,-0.6110243906939291,0.3229401763102238,-0.6709754026628865,-0.9808750439293772,-0.1070063947803475,-0.0301684123241572,0.4036939853330292,-1.5949398248221924,-0.5402810616879758,-0.298625,-0.653179,0.227661,-0.657534,-1.045129,-0.115009,0.061753,-0.093462,0.302741,0.0,0,0,-0.298284195508054,-0.6527409620526978,0.228576964709839,-0.6576836511170961,-1.0458349794874442,-0.1098482127309254,0.0280305435569923,-0.159680446168489,-0.2155510700544527,-0.3213453246771101
22201,2024 8 08,15:43:14.405,-0.268428,-0.60922,0.322077,-0.6731,-0.978551,-0.092549,-0.042536,-0.084511,-0.882692,-0.528164,0,0,-0.2685426278340611,-0.6109341711592325,0.3228970174947126,-0.6710816325297421,-0.9807588417329082,-0.1062835250413301,-0.0307867917079494,0.3792837360663777,-1.5593274335810827,-0.539675208603577,-0.298645,-0.653196,0.227654,-0.65751,-1.046748,-0.111308,0.030604,-0.063927,-0.306547,-0.333549,0,0,-0.2983022357326513,-0.6527637139500629,0.228530816474347,-0.6576749685612413,-1.045880630513072,-0.1099212020943791,0.0281592163791427,-0.1548927738600645,-0.22010086655173,-0.3219555084432546
22202,2024 8 08,15:43:14.413,-0.268428,-0.60922,0.322077,-0.6731,-0.978108,-0.093192,-0.042487,-0.063431,-0.85737,-0.492351,0,0,-0.268536896442358,-0.6108484626012709,0.3228560166199769,-0.671182550903255,-0.9806262996462628,-0.1056289487892636,-0.0313718021225519,0.3571479992630588,-1.5242295619020283,-0.5373089981733981,-0.298658,-0.653216,0.227626,-0.657494,-1.048206,-0.109137,0.025485,0.157896,-0.031282,-0.472491,0,0,-0.2983200239460187,-0.6527863282525598,0.2284855756506297,-0.6576659201331793,-1.0459968989874182,-0.1098819919896602,0.0280255055601855,-0.1392533351670613,-0.2106599232241436,-0.3294822830210919
22203,2024 8 08,15:43:14.422,-0.268415,-0.609157,0.322081,-0.673161,-0.981054,-0.091013,-0.041735,0.125636,-0.808085,-0.628957,0,0,-0.26853080162024,-0.6107638894712073,0.322817265788978,-0.6712814733580922,-0.9806476846639496,-0.1048981513498004,-0.0318899620164243,0.3455723992999058,-1.488422333806927,-0.5418913982647282,-0.298671,-0.653241,0.227583,-0.657479,-1.048785,-0.107621,0.027996,0.234262,-0.003583,-0.540516,0,0,-0.2983375727487178,-0.6528090618399317,0.2284404468680982,-0.6576565741265203,-1.0461363040380471,-0.1097689423901771,0.0280240302821762,-0.1205775684087082,-0.2003060770629364,-0.3400339688700373
22204,2024 8 08,15:43:14.430,-0.268405,-0.609092,0.32209,-0.67322,-0.976317,-0.086364,-0.043747,-0.008555,-0.749216,-0.666011,0,0,-0.2685245115392281,-0.6106802949976469,0.3227809024995292,-0.6713783996901876,-0.980431150430752,-0.1039714437823104,-0.0324828139156031,0.3278660293349105,-1.4514620171165806,-0.5480973783514917,-0.298684,-0.653249,0.227535,-0.657481,-1.042028,-0.107876,0.029986,0.189587,0.266055,-0.441598,0,0,-0.2983548941112819,-0.6528310587479351,0.2283951745246933,-0.6576477954201942,-1.0459308888361447,-0.1096742952706683,0.0281221287680674,-0.1050693399882728,-0.1769880232097895,-0.3451121704265354
22205,2024 8 08,15:43:14.438,-0.268417,-0.609037,0.322107,-0.673256,-0.977418,-0.093161,-0.032699,0.037176,-0.598337,-0.306878,0,0,-0.2685191359622666,-0.6105981302477645,0.3227472073745527,-0.6714722797056782,-0.9802804929092144,-0.1034309215931949,-0.0324936232198229,0.313331527868165,-1.4088057662607516,-0.5360364094339171,-0.298686,-0.65325,0.227529,-0.657481,-1.041183,-0.107908,0.030234,0.184003,0.299756,-0.429234,0,0,-0.2983714494057178,-0.6528520058105384,0.2283518657984586,-0.6576394556491845,-1.0456934943943377,-0.1095859805071349,0.0282277223296641,-0.0906157229888591,-0.1531508220493,-0.3493182619052086
22206,2024 8 08,15:43:14.447,-0.268395,-0.609005,0.322071,-0.673311,-0.973654,-0.242183,-0.082986,0.371496,-0.825849,-0.246539,0,0,-0.2685129291641532,-0.6105184737353763,0.3227133970058251,-0.6715642157203944,-0.9799491682637536,-0.1103685255135351,-0.0350182420588318,0.3162397514747567,-1.379657927947714,-0.5215615389622211,-0.298692,-0.653259,0.227494,-0.657482,-1.039408,-0.115093,0.063659,0.131363,-0.058779,-0.427544,0,0,-0.2983874769354319,-0.6528723555200114,0.2283089725085356,-0.6576315828667252,-1.0453792196746206,-0.1098613314817781,0.0299992862131808,-0.0795167868394162,-0.148432230946835,-0.3532295488099481
22207,2024 8 08,15:43:14.455,-0.268369,-0.60898,0.322023,-0.673367,-0.978454,-0.089185,-0.037855,0.46945,-0.723981,-0.155985,0,0,-0.2685057327059456,-0.6104415500486073,0.3226788771555338,-0.6716543549343746,-0.9798744098505658,-0.1093093492378583,-0.0351600799558902,0.3239002639010189,-1.3468740815503282,-0.50328271201411,-0.298699,-0.653282,0.227473,-0.657463,-1.040783,-0.112427,0.045025,0.021182,-0.009478,-0.273714,0,0,-0.2984030530886603,-0.6528928377440109,0.2282671738831088,-0.6576231537233889,-1.0451494086908897,-0.1099896149076892,0.0307505719025218,-0.0744818474974454,-0.1414845193994933,-0.3492537713694508
22208,2024 8 08,15:43:14.463,-0.268347,-0.608952,0.321973,-0.673425,-0.980496,-0.090213,-0.037534,0.65982,-0.767832,-0.127909,0,0,-0.2684977960706483,-0.610367072546177,0.3226435832977571,-0.671742887187656,-0.9799054893580376,-0.1083545317759654,-0.0352787759580957,0.3406962507059679,-1.3179219774728117,-0.4845140264134045,-0.298707,-0.653292,0.227465,-0.657452,-1.041406,-0.111533,0.026249,-0.147935,-0.304794,-0.047124,0,0,-0.2984182504342273,-0.6529127958568103,0.2282270651889534,-0.6576145960372194,-1.0449622382563448,-0.1100667841623047,0.0305254933073957,-0.0781545051225731,-0.1496499934295186,-0.3341472828009782
22209,2024 8 08,15:43:14.472,-0.268341,-0.608944,0.321959,-0.673441,-0.980897,-0.090712,-0.037587,0.71915,-0.788773,-0.123138,0,0,-0.2684899562671159,-0.610295918918868,0.3226093541328693,-0.6718277928282731,-0.9799550648901356,-0.1074724051871671,-0.0353941871601909,0.3596189381706695,-1.291464528599171,-0.4664452250927343,-0.298719,-0.653299,0.227485,-0.657433,-1.041911,-0.112964,0.023553,-0.32631,-0.255228,0.041264,0,0,-0.2984332879125159,-0.6529321060639698,0.2281899619295057,-0.6576055162353585,-1.0448096763435275,-0.1102116449541895,0.0301768686420259,-0.0905622798664444,-0.1549288937580427,-0.3153767186609293
22210,2024 8 08,15:43:14.480,-0.268329,-0.60891,0.321934,-0.673489,-0.980629,-0.090802,-0.044411,0.474338,-0.792552,-0.20745,0,0,-0.2684819084537601,-0.6102266229729246,0.3225755864262258,-0.6719108531868594,-0.9799887616456288,-0.1066388849278088,-0.0358450278021813,0.365354891262136,-1.2665189021692125,-0.4534954638380976,-0.298745,-0.653283,0.227514,-0.657427,-1.039638,-0.099147,0.050263,-0.555485,0.14768,0.106461,0,0,-0.2984488735168901,-0.6529496507607713,0.2281561638330304,-0.6575965904235904,-1.044551092526351,-0.10965841270648,0.0311811752099246,-0.1138084158731222,-0.1397984490701405,-0.2942848327278828
22211,2024 8 08,15:43:14.488,-0.268306,-0.615473,0.324982,-0.666027,-0.982207,-0.090482,-0.045418,0.51435,-0.709166,-0.278736,0,0,-0.2684731130310721,-0.6104889418242784,0.3226959071049145,-0.6716166605275165,-0.9800996735633472,-0.1058310406814184,-0.0363236764120723,0.3728046466990292,-1.2386512570607515,-0.4447574906461926,-0.29875,-0.65328,0.22752,-0.657426,-1.039205,-0.111396,0.023912,-0.599199,0.224533,0.118897,0,0,-0.2984639298410456,-0.6529661682227327,0.2281243556413789,-0.657588060902411,-1.0442837879000335,-0.109745292071156,0.0308177164494284,-0.1380779450794661,-0.1215818766166335,-0.2736257410914887
22212,2024 8 08,15:43:14.497,-0.26828,-0.608831,0.32188,-0.673605,-0.982119,-0.072435,0.052722,0.375732,-0.720972,-0.341074,0,0,-0.2684634573795185,-0.6104060447330645,0.3226551117496687,-0.6717160775011406,-0.9802006398851798,-0.1041612386473474,-0.0318713925914686,0.3729510143640777,-1.212767294207714,-0.439573316113883,-0.29876,-0.653284,0.227555,-0.657405,-1.044881,-0.136383,0.028451,-0.559948,-0.432416,0.169421,0,0,-0.2984787333489933,-0.6529820598115961,0.2280958878593099,-0.6575789078572903,-1.0443136485050315,-0.1110771774675982,0.030699380626957,-0.1591714478254928,-0.1371235827858018,-0.2514734040369142
22213,2024 8 08,15:43:14.505,-0.268254,-0.60879,0.321851,-0.673666,-0.981014,-0.090766,-0.042112,0.443968,-0.729871,-0.360612,0,0,-0.2684529845105425,-0.6103252424964112,0.3226149061621853,-0.6718135736260835,-0.9802413078909208,-0.10349147671498,-0.0323834229618952,0.3765018636458738,-1.1886224794973284,-0.4356252503081888,-0.298808,-0.653221,0.227585,-0.657435,-1.045697,-0.114194,0.015941,-0.504244,1.326888,0.132617,0,0,-0.2984951966815436,-0.6529940068210162,0.2280703434663444,-0.6575717124644258,-1.04438281607978,-0.1112330185942183,0.0299614615956091,-0.1764250754342182,-0.0639230036465117,-0.2322688838350685
22214,2024 8 08,15:43:14.513,-0.268225,-0.60875,0.321828,-0.673725,-0.981915,-0.090708,-0.042669,0.477995,-0.610239,-0.445972,0,0,-0.2684415852850154,-0.6102464803715906,0.322575560854076,-0.6719091449447794,-0.9803249924963748,-0.102852302879231,-0.0328977018138004,0.3815765204635801,-1.159703305522462,-0.4361425877927793,-0.298847,-0.653186,0.227606,-0.657445,-1.041002,-0.101333,0.027645,-0.773192,-0.254408,0.030784,0,0,-0.2985127868474664,-0.6530036064799654,0.2280471262930272,-0.6575653768412045,-1.0442137752757912,-0.1107380176645074,0.0298456385158287,-0.2062634216625072,-0.0734472534641861,-0.2191162396433151
22215,2024 8 08,15:43:14.522,-0.268215,-0.608737,0.321821,-0.673744,-0.982322,-0.090795,-0.042898,0.485799,-0.564016,-0.478073,0,0,-0.2684302560207646,-0.610171006353011,0.3225378328113722,-0.6720008876975404,-0.980424842871556,-0.1022494377352695,-0.0333977167231104,0.3867876444404011,-1.1299189402463388,-0.4382391084031404,-0.29885,-0.653201,0.227616,-0.657426,-1.043259,-0.105214,0.02964,-0.4181,0.031233,-0.085189,0,0,-0.2985296475050931,-0.6530134761559672,0.2280255699783758,-0.6575584079991443,-1.0441660365120016,-0.110461816781282,0.0298353565900372,-0.2168552505793819,-0.0682132407909768,-0.2124198776611493
22216,2024 8 08,15:43:14.530,-0.268198,-0.608701,0.321813,-0.673787,-0.983686,-0.112073,-0.017268,0.368935,-0.671719,-0.446152,0,0,-0.2684186432197263,-0.6100975060353605,0.3225015911708035,-0.6720901933126633,-0.980587900727978,-0.102740615848506,-0.0325912308869549,0.385895012218381,-1.1070089432340218,-0.4386347529829833,-0.298849,-0.653221,0.227615,-0.657407,-1.048923,-0.109801,0.026821,-0.150382,-0.541336,-0.112842,0,0,-0.2985456151298384,-0.6530238523481687,0.228005041479457,-0.6575508375991871,-1.0444038846864014,-0.1104287759422179,0.0296846387605354,-0.2135315880504128,-0.091869378751428,-0.2074409837780918
22217,2024 8 08,15:43:14.538,-0.268182,-0.608655,0.321794,-0.673844,-0.981403,-0.089831,-0.042078,0.282573,-0.79493,-0.393028,0,0,-0.26840681105874,-0.6100253807335925,0.3224662116122633,-0.67217788364703,-0.9806286556915792,-0.1020951350560807,-0.0330655693426071,0.380728911607462,-1.0914049960723204,-0.4363544153338341,-0.298855,-0.660618,0.124903,-0.67725,-1.049962,-0.113468,0.021781,-0.129402,-0.140184,-0.119681,0,0,-0.2985610843733465,-0.6534035597307603,0.2228499394054842,-0.6585357957192277,-1.044681790452081,-0.110580737145107,0.0292894568225086,-0.2093251086478921,-0.0942851098138566,-0.2030529845891872
22218,2024 8 08,15:43:14.547,-0.268178,-0.608598,0.321793,-0.673898,-0.983167,-0.090983,-0.042325,0.061103,-0.877223,-0.450711,0,0,-0.268395370505803,-0.6099540116969129,0.3224325510316502,-0.6722638894646784,-0.9807555729070002,-0.1015395283032766,-0.0335285408754768,0.3647476160270889,-1.0806958962687043,-0.4370722445671424,-0.298857,-0.653244,0.227623,-0.657377,-1.050228,-0.137447,-0.069055,-0.124031,-0.037498,-0.121431,0,0,-0.2985758801546792,-0.6533955817442222,0.2230885924352099,-0.6584778559332662,-1.0449591009294772,-0.1119240502878516,0.0243722339813831,-0.2050604032154975,-0.0914457543231637,-0.1989718853597278
22219,2024 8 08,15:43:14.555,-0.268176,-0.608539,0.321786,-0.673956,-0.9807,-0.16124,0.091964,0.087325,-0.866739,-0.401472,0,0,-0.2683844019805129,-0.6098832611120671,0.3224002234800677,-0.6723484949914444,-0.9807527942616502,-0.1045245518881128,-0.0272539138317029,0.3508764852257344,-1.0699980514552692,-0.4352922323387853,-0.298875,-0.653246,0.227617,-0.657369,-1.046055,-0.112887,0.024393,-0.211011,-0.187142,-0.254493,0,0,-0.2985908361469452,-0.6533881026570111,0.2233150128134494,-0.658422413136603,-1.0450138958830033,-0.111972197773459,0.024373272282314,-0.2053579330547226,-0.0962305666070056,-0.2017479410917414
22220,2024 8 08,15:43:14.563,-0.268166,-0.608482,0.321776,-0.674016,-0.981019,-0.089887,-0.045459,0.187789,-0.85797,-0.451811,0,0,-0.2683734818814872,-0.6098131980564637,0.3223690123060643,-0.6724318702418721,-0.9807661045485676,-0.1037926742937071,-0.0281641681401178,0.3427221109644477,-1.0593966488825055,-0.436118170721846,-0.298891,-0.653263,0.227615,-0.657346,-1.047714,-0.109261,0.034325,-0.147328,-0.184252,-0.247081,0,0,-0.2986058443395979,-0.6533818475241605,0.223530012172777,-0.6583685924797729,-1.045148901088853,-0.1118366378847861,0.0248708586681983,-0.2024564364019865,-0.1006316382766553,-0.2040145940371543
22221,2024 8 08,15:43:14.572,-0.268161,-0.608461,0.321772,-0.674038,-0.981342,-0.088821,-0.046463,0.227689,-0.855508,-0.477634,0,0,-0.2683628577874128,-0.6097455881536405,0.3223391616907611,-0.6725121767297785,-0.9807948993211392,-0.1030440905790218,-0.0290791097331119,0.3369704554162253,-1.0492022164383803,-0.4381939621857537,-0.298914,-0.653274,0.227617,-0.657324,-1.047143,-0.097556,0.000193,-0.302307,-0.269872,-0.288215,0,0,-0.298621252122618,-0.6533764551479524,0.2237343615641381,-0.6583163628557841,-1.0452486060344104,-0.1111226059905468,0.0236369657347884,-0.2074489645818871,-0.1090936563628225,-0.2082246143352966
22222,2024 8 08,15:43:14.580,-0.268171,-0.608414,0.321801,-0.674063,-0.979957,0.282337,0.137364,-0.721777,-0.559108,-0.595973,0,0,-0.2683532648980422,-0.6096790087459585,0.322312253606223,-0.6725897178932896,-0.9807530043550824,-0.0837750360500707,-0.0207569542464563,0.284033082645414,-1.0246975056164611,-0.4460829140764659,-0.298947,-0.653279,0.227619,-0.657303,-1.046294,-0.107878,0.027882,-0.389796,-0.038153,-0.342832,0,0,-0.2986375395164871,-0.6533715823905547,0.2239285934859312,-0.6582656947129949,-1.0453008757326898,-0.1109603756910194,0.0238492174480489,-0.2165663163527928,-0.1055466235446814,-0.2149549836185318
22223,2024 8 08,15:43:14.588,-0.268172,-0.608359,0.32183,-0.674098,-0.983412,-0.076065,0.006263,0.054536,-0.608295,-0.575089,0,0,-0.2683442016531401,-0.6096130083086606,0.3222881409259119,-0.6726651319986251,-0.980885954137328,-0.0833895342475671,-0.0194059565341335,0.2725582285131432,-1.0038773803356382,-0.4525332183726426,-0.298977,-0.653283,0.227612,-0.657287,-1.044689,-0.128116,0.024184,-0.204362,-0.2231,-0.359025,0,0,-0.2986545125406628,-0.6533671532710269,0.2241127638116346,-0.6582167599773451,-1.045270281946055,-0.1118181569064684,0.0238659565756465,-0.2159561005351531,-0.1114242923674473,-0.2221584844376052
22224,2024 8 08,15:43:14.597,-0.268172,-0.608359,0.32183,-0.674098,-0.983071,-0.089505,-0.041376,0.00704,-0.832347,-0.62976,0,0,-0.2683355915704831,-0.6095503078932276,0.3222652338796162,-0.6727367753986938,-0.9809952064304616,-0.0836953075351888,-0.0205044587074268,0.2592823170874861,-0.9953008613188564,-0.4613945574540105,-0.298987,-0.653285,0.22761,-0.657282,-1.044201,-0.110115,0.025632,-0.147978,-0.279336,-0.363949,0,0,-0.2986711369136297,-0.6533630456074755,0.2242876256210528,-0.6581700219784777,-1.0452168178487524,-0.111732999061145,0.0239542587468642,-0.2125571955083954,-0.1198198777490749,-0.2292480102157249
22225,2024 8 08,15:43:14.605,-0.268168,-0.608214,0.321853,-0.67422,-0.981506,-0.090729,-0.043575,0.026859,-1.073223,-0.586419,0,0,-0.2683272119919589,-0.6094834924985663,0.3222446221856354,-0.6728109366287591,-0.9810207461089384,-0.0840469921584293,-0.0216579857720555,0.2476611512331118,-0.9991969682529136,-0.4676457795813099,-0.299001,-0.653311,0.227599,-0.657253,-1.04769,-0.108954,0.030103,-0.089043,-0.296852,-0.448229,0,0,-0.2986876300679482,-0.6533604433271017,0.2244531943400002,-0.6581241708795538,-1.0453404769563148,-0.1115940491080878,0.024261695809521,-0.2063814857329756,-0.1286714838616212,-0.2401970597049386
22226,2024 8 08,15:43:14.613,-0.268169,-0.663507,0.140779,-0.684122,-0.98168,-0.090837,-0.043391,-0.091827,-1.065934,-0.526131,0,0,-0.268319301392361,-0.612184667873638,0.3131713410763536,-0.6733764897973211,-0.9810537088034916,-0.0843864925505079,-0.0227446364834527,0.2306867436714562,-1.0025338198402678,-0.4705700406022444,-0.299018,-0.653335,0.227576,-0.65723,-1.043235,-0.110551,0.040088,-0.02932,-0.179623,-0.51603,0,0,-0.2987041485645507,-0.6533591711607466,0.2246093346230002,-0.658079462335576,-1.045235203108499,-0.1115418966526834,0.0250530110190449,-0.1975284114463268,-0.1312190596685402,-0.2539887067196917
22227,2024 8 08,15:43:14.622,-0.26817,-0.608098,0.321857,-0.674321,-0.981868,-0.090828,-0.043111,-0.15241,-1.047127,-0.501009,0,0,-0.2683118363227429,-0.611980334479956,0.3136056240225359,-0.673423715307455,-0.9810944233633168,-0.0847085679229825,-0.02376295465928,0.2115319064878833,-1.0047634788482545,-0.4720919885721321,-0.299029,-0.653367,0.227546,-0.657204,-1.044376,-0.109105,0.028091,0.111671,-0.262955,-0.457102,0,0,-0.2987203911363231,-0.6533595626027092,0.2247561678918501,-0.6580356892187972,-1.045192242953074,-0.1114200518200492,0.0252049104680926,-0.1820684408740105,-0.1378058566851132,-0.2641443713837071
22228,2024 8 08,15:43:14.630,-0.268171,-0.608414,0.321801,-0.674063,-0.981962,-0.095216,-0.08056,-0.182666,-1.037734,-0.488463,0,0,-0.2683047945066057,-0.6118020177559582,0.3140153928214091,-0.6734556795420823,-0.981137802195151,-0.0852339395268333,-0.026602806926316,0.1918220111634891,-1.0064120049058416,-0.4729105391435255,-0.299035,-0.653386,0.227527,-0.657188,-1.04475,-0.125004,0.018148,0.165814,-0.280168,-0.427673,0,0,-0.2987361215795069,-0.6533608844725738,0.2248947094972576,-0.6579933047578572,-1.0451701308054202,-0.1120992492290467,0.024852064944688,-0.1646743188303099,-0.1449239638508575,-0.2723208028145217
22229,2024 8 08,15:43:14.638,-0.26819,-0.607987,0.321877,-0.674404,-0.980068,-0.091297,-0.04297,-0.30158,-1.274576,-0.54753,0,0,-0.2682990547812754,-0.6116112668681604,0.3144084731803387,-0.6735030955649781,-0.9810843120853936,-0.0855370925504916,-0.0274211665800002,0.1671519106053147,-1.0198202046605491,-0.4766415121863492,-0.299046,-0.653411,0.227497,-0.657169,-1.043205,-1.499766,0.690579,0.040079,-0.11069,-0.419248,0,0,-0.2987516155005316,-0.6533633902489451,0.2250248240223947,-0.6579520895199643,-1.045071874265149,-0.1814825867675944,0.0581384116974536,-0.1544366528887944,-0.1432122656583146,-0.2796671626737956
22230,2024 8 08,15:43:14.647,-0.268188,-0.645325,0.349433,-0.624075,-0.985148,-0.090377,-0.043437,-0.246665,-1.106364,-0.665944,0,0,-0.2682935020422117,-0.6132969535247523,0.3161596995213218,-0.6710316907867292,-0.9812874964811238,-0.0857790879229671,-0.0282219582510002,0.1464610650750489,-1.024147394427522,-0.4861066365770317,-0.299071,-0.653415,0.227484,-0.657158,-1.041142,-0.111077,0.026351,-0.114945,-0.004864,-0.368542,0,0,-0.2987675847255049,-0.6533659707364977,0.225147782821275,-0.6579123850439661,-1.0448753805518916,-0.1779623074292147,0.0565490411125809,-0.1524620702443547,-0.1362948523753989,-0.2841109045401058
22231,2024 8 08,15:43:14.655,-0.268198,-0.608701,0.321813,-0.673787,-0.985368,-0.091257,-0.044837,-0.07182,-1.271549,-0.671071,0,0,-0.2682887269401011,-0.6130671558485147,0.3164423645452556,-0.6711694562473927,-0.9814915216570675,-0.0860529835268187,-0.0290527103384502,0.1355470118212965,-1.0365174747061456,-0.4953548547481801,-0.299075,-0.653417,0.227485,-0.657154,-1.042359,-0.10373,0.042269,-0.168296,-0.031376,-0.3508,0,0,-0.2987829554892297,-0.6533685221996728,0.2252646436802112,-0.6578744657917678,-1.044749561524297,-0.1742506920577539,0.0558350390569519,-0.153253766732137,-0.1310489097566289,-0.2874453593131005
22232,2024 8 08,15:43:14.663,-0.268187,-0.607727,0.321904,-0.674627,-0.985381,-0.089041,-0.056247,-0.00516,-0.884454,-0.784665,0,0,-0.268283640593096,-0.612800148056089,0.3167154463179928,-0.671342333435023,-0.9816859955742142,-0.0862023843504778,-0.0304124248215277,0.1285116612302316,-1.0289143009708384,-0.5098203620107711,-0.299101,-0.653419,0.227482,-0.657141,-1.048759,-0.110664,0.030206,-0.419334,-0.02204,-0.259463,0,0,-0.2987988577147682,-0.6533710460896891,0.2253755114962007,-0.6578377925021794,-1.044950033448082,-0.1710713574548662,0.0545535871041043,-0.1665577783955301,-0.1255984642687975,-0.2860462413474455
22233,2024 8 08,15:43:14.672,-0.268194,-0.607636,0.32193,-0.674694,-0.981808,-0.092905,-0.046335,0.055396,-1.080387,-0.681037,0,0,-0.2682791585634412,-0.6125419406532845,0.3169761740020931,-0.6715099167632719,-0.9816920957955034,-0.0865375151329539,-0.0312085535804513,0.12485587816872,-1.0314879359222964,-0.5183811939102325,-0.299146,-0.653369,0.227445,-0.657183,-1.039231,-0.122381,0.081463,-0.124745,0.995452,-0.308831,0,0,-0.2988162148290298,-0.6533709437852045,0.2254789859213906,-0.6578050528770704,-1.044664081775678,-0.1686368395821229,0.0558990577488991,-0.1644671394757536,-0.0695459410553576,-0.2871854792800732
22234,2024 8 08,15:43:14.680,-0.268194,-0.607636,0.32193,-0.674694,-0.981508,-0.202205,-0.059709,0.060482,-1.096842,-0.672334,0,0,-0.2682749006352691,-0.6122966436206203,0.3172238653019885,-0.6716691209251082,-0.9816828910057284,-0.0923208893763062,-0.0326335759014287,0.121637184260284,-1.0347556391261814,-0.5260788342147209,-0.299169,-0.653395,0.227437,-0.65715,-1.049509,-0.116249,0.030948,0.035356,-0.534437,-0.345693,0,0,-0.2988338540875783,-0.6533721465959443,0.2255768866253211,-0.6577723002332168,-1.0449063276868942,-0.1660174476030168,0.0546515048614541,-0.1544759825019659,-0.0927904940025897,-0.2901108553160695
22235,2024 8 08,15:43:14.688,-0.268183,-0.607544,0.321921,-0.674785,-0.979308,-0.092392,-0.04629,0.060974,-1.369807,-0.671492,0,0,-0.2682703056035057,-0.6120590114395893,0.3174587220368891,-0.6718249148788528,-0.981564146455442,-0.0923244449074909,-0.0333163971063573,0.1186040250472698,-1.0515082071698725,-0.5333494925039848,-0.299189,-0.653392,0.227413,-0.657152,-1.042173,-0.111383,0.021643,-0.003422,0.405726,-0.262728,0,0,-0.2988516113831994,-0.653373139266147,0.225668692294055,-0.657741285221556,-1.0447696613025494,-0.1632857252228659,0.0530010796183814,-0.1469232833768677,-0.0678646693024602,-0.288741712550266
22236,2024 8 08,15:43:14.697,-0.268178,-0.608598,0.321793,-0.673898,-0.979068,-0.091444,-0.044235,-0.099551,-1.185521,-0.724926,0,0,-0.2682656903233303,-0.6118859608676098,0.3176754359350446,-0.6719285691349101,-0.9814393391326698,-0.0922804226621163,-0.0338623272510394,0.1076962737949063,-1.0582088468113786,-0.5429283178787855,-0.299196,-0.653414,0.227398,-0.657131,-1.048037,-0.110481,0.03692,-0.053947,-0.324768,-0.299954,0,0,-0.2988688308140394,-0.6533751823028398,0.2257551576793522,-0.6577107709604781,-1.0449330282374218,-0.1606454889617226,0.0521970256374623,-0.1422744692080242,-0.0807098358373372,-0.2893023269227527
22237,2024 8 08,15:43:14.705,-0.268173,-0.607375,0.321941,-0.674932,-0.982418,-0.093864,-0.050322,-0.013435,-1.110359,-0.678612,0,0,-0.2682610558071638,-0.6116604128242293,0.3178887141382923,-0.6720787406781645,-0.9814882721760364,-0.0923596015290105,-0.0346853108884874,0.101639710105161,-1.0608163544708096,-0.5497125019848462,-0.299197,-0.653417,0.227391,-0.65713,-1.048235,-0.075578,0.018632,-0.010106,-0.334887,-0.304471,0,0,-0.2988852392733374,-0.6533772731876978,0.2258369497953846,-0.6576817324124542,-1.0450981268255508,-0.1563921145136365,0.0505187743555892,-0.135666045747623,-0.0934186940454703,-0.290060760576615
22238,2024 8 08,15:43:14.713,-0.268169,-0.663507,0.140779,-0.684122,-0.978696,-0.11358,0.027753,-0.054059,-1.152441,-0.672446,0,0,-0.2682564530168057,-0.6142527421830178,0.3090332284313777,-0.6726809036442563,-0.9813486585672344,-0.09342062145256,-0.0315633953440631,0.093854774599903,-1.065397586747269,-0.5558491768856039,-0.299198,-0.653422,0.227355,-0.657138,-1.045131,-0.113985,0.039847,0.289929,0.145193,-0.298029,0,0,-0.2989008773096706,-0.6533795095283128,0.2259128523056154,-0.6576545457918315,-1.0450997704842733,-0.1542717587879546,0.0499851856378097,-0.1143862934602418,-0.0814881093431968,-0.2904591725477842
22239,2024 8 08,15:43:14.722,-0.268154,-0.607208,0.321944,-0.675089,-0.977747,-0.090334,-0.052664,0.145667,-1.107127,-0.671554,0,0,-0.2682513303659654,-0.6139005050738668,0.3096787670098088,-0.6728013084620434,-0.9811685756388726,-0.0932662903799319,-0.0326184255768599,0.0964453858699078,-1.0674840574099054,-0.5616344180413237,-0.299201,-0.65343,0.227319,-0.657141,-1.044615,-0.114291,0.030337,0.199968,0.19522,-0.252647,0,0,-0.298915883444187,-0.6533820340518971,0.2259831596903346,-0.6576288685022398,-1.0450755319600595,-0.1522727208485569,0.0490027763559192,-0.0986685787872297,-0.067652703876037,-0.288568563920395
22240,2024 8 08,15:43:14.730,-0.268151,-0.607196,0.321943,-0.675101,-0.977599,-0.089929,-0.053941,0.176784,-1.100067,-0.671415,0,0,-0.268246313847667,-0.6135652798201735,0.3102919786593183,-0.6729162930389413,-0.980990096856929,-0.0930994258609353,-0.0336845542980169,0.1004623165764124,-1.06911320453941,-0.5671234471392576,-0.299216,-0.653412,0.227283,-0.657165,-1.040553,-0.111623,0.025799,0.185953,0.559399,-0.231859,0,0,-0.2989308892719776,-0.6533835323493022,0.2260481517058178,-0.6576056750771277,-1.0448494053620565,-0.1502402348061291,0.0478425875381233,-0.0844374998478682,-0.0363001186822351,-0.2857330857243753
22241,2024 8 08,15:43:14.738,-0.268138,-0.607133,0.321938,-0.675165,-0.978375,-0.092265,-0.046543,0.131896,-1.048816,-0.571243,0,0,-0.2682408981552837,-0.6132436658291648,0.3108742797263524,-0.6730287283869942,-0.9808593420140824,-0.0930577045678886,-0.0343274765831161,0.1020340007475918,-1.0680983443124397,-0.5673294247822946,-0.299218,-0.653416,0.227261,-0.657167,-1.045278,-0.114881,0.027034,0.170075,0.147852,-0.141786,0,0,-0.2989452448083787,-0.6533851557318371,0.2261087941205269,-0.6575837413232714,-1.0448708350939535,-0.1484722730658226,0.0468021581612171,-0.0717118748554748,-0.0270925127481233,-0.2785357314381565
22242,2024 8 08,15:43:14.747,-0.268142,-0.607069,0.321958,-0.675211,-0.976536,-0.100194,-0.048,-0.518741,-0.693672,-0.504046,0,0,-0.2682359532475195,-0.6129349325377065,0.3114284657400348,-0.6731378419676445,-0.9806431749133782,-0.0934145193394941,-0.0350111027539603,0.0709952507102122,-1.0493770270968177,-0.5641652535431799,-0.299224,-0.574738,0.396183,-0.650521,-1.043038,-0.126971,0.02247,0.081756,0.374154,-0.125817,0,0,-0.2989591825679598,-0.6494527979452451,0.2346125044145005,-0.6572306042571078,-1.0447791933392558,-0.1473972094125315,0.0455855502531562,-0.0640384811127011,-0.0070301871107172,-0.2708997948662487
22243,2024 8 08,15:43:14.755,-0.268114,-0.607019,0.32195,-0.675271,-0.978534,-0.093638,-0.083679,0.140218,-0.773479,-0.540253,0,0,-0.2682298555851435,-0.6126391359108211,0.311954542453033,-0.6732444998692622,-0.9805377161677092,-0.0934256933725194,-0.0374444976162622,0.0744563881747016,-1.0355821257419766,-0.5629696408660209,-0.299228,-0.653404,0.227232,-0.657185,-1.042934,-0.114015,0.024626,0.018981,0.396815,-0.12282,0,0,-0.2989726234395618,-0.6496503580479829,0.2342434791937755,-0.6572283240442524,-1.044686933672293,-0.1457280989419049,0.0445375727404984,-0.059887507057066,0.0131620722448186,-0.2634958051229362
22244,2024 8 08,15:43:14.763,-0.268099,-0.606967,0.321938,-0.675329,-0.9824,-0.094081,-0.049345,0.222302,-0.692841,-0.402784,0,0,-0.2682233128058863,-0.61235552911528,0.3124537153303814,-0.673348724875799,-0.9806308303593236,-0.0934584587038935,-0.0380395227354491,0.0818486687659665,-1.0184450694548777,-0.5549603588227198,-0.299245,-0.653394,0.227224,-0.657189,-1.045332,-0.126462,0.013245,-0.246155,0.276224,-0.128746,0,0,-0.2989862422675837,-0.6498375401455837,0.2338925052340867,-0.6572263578420398,-1.0447191869886785,-0.1447647939948096,0.0429729441034735,-0.0692008817042127,0.0263151686325777,-0.2567583148667894
22245,2024 8 08,15:43:14.772,-0.268089,-0.606908,0.321918,-0.675396,-0.981678,-0.094587,-0.050086,0.334576,-0.866574,-0.326633,0,0,-0.268216597165592,-0.612083152659516,0.3129269295638623,-0.673451088632009,-0.9806831888413576,-0.0935148857686988,-0.0386418465986767,0.0944850353276681,-1.0108515159821336,-0.5435439908815838,-0.299257,-0.653378,0.227194,-0.65721,-1.047487,-0.112532,0.028702,0.003835,0.367087,-0.177594,0,0,-0.2989997801542046,-0.6500145631383045,0.2335575799723823,-0.6572255399499377,-1.0448575776392444,-0.1431531542950692,0.0422593968982998,-0.0655490876190021,0.0433537602009488,-0.2528000991234499
22246,2024 8 08,15:43:14.780,-0.268087,-0.606896,0.321913,-0.67541,-0.981522,-0.094697,-0.050247,0.358957,-0.904303,-0.310096,0,0,-0.2682101173073123,-0.61182379502654,0.3133762330856692,-0.6735490342004086,-0.9807251293992896,-0.0935739914802638,-0.0392221042687428,0.1077086335612847,-1.005524090183027,-0.5318715913375045,-0.299272,-0.653345,0.227146,-0.657253,-1.042636,-0.115441,0.024249,0.45605,0.953692,-0.247964,0,0,-0.2990133911464944,-0.6501810849813893,0.2332370009737632,-0.6572269129524407,-1.044746498757282,-0.1417675465803157,0.0413588770533848,-0.0394691332380519,0.0888706721909013,-0.2525582941672774
22247,2024 8 08,15:43:14.788,-0.26808,-0.606853,0.321892,-0.675462,-0.982974,-0.094968,0.019248,0.318003,-0.91285,-0.306349,0,0,-0.2682036114419467,-0.6115752552752131,0.3138020214313857,-0.6736446824903881,-0.980837572929325,-0.0936436919062506,-0.0362985990553057,0.1182233518832205,-1.0008903856738756,-0.5205954617706292,-0.299278,-0.653345,0.227093,-0.657268,-1.046652,-0.11397,0.024887,0.71547,0.135819,-0.39077,0,0,-0.2990266215891696,-0.6503392807323198,0.2329298009250751,-0.6572289673048186,-1.044841773819418,-0.1403776692512999,0.0405352832007156,-0.0017221765761493,0.0912180885813563,-0.2594688794589135
22248,2024 8 08,15:43:14.797,-0.268078,-0.606801,0.321869,-0.67552,-0.984786,-0.092246,-0.045606,0.216495,-0.914865,-0.21361,0,0,-0.2681973308698493,-0.6113365425114523,0.3142053703598164,-0.6737384483658687,-0.9810349942828588,-0.0935738073109381,-0.0367639691025404,0.1231369342890595,-0.9965891163901818,-0.5052461886820977,-0.299276,-0.653355,0.227033,-0.65728,-1.045374,-0.112352,0.021225,0.498586,0.538825,-0.464146,0,0,-0.2990390905097111,-0.6504900666957039,0.2326349608788213,-0.6572315189395777,-1.044868385128447,-0.1389763857887349,0.0395697690406798,0.023293232252658,0.1135984341522885,-0.2697027354859678
22249,2024 8 08,15:43:14.805,-0.268073,-0.606748,0.321855,-0.675576,-0.982324,-0.090098,-0.049819,0.191664,-0.779185,-0.327097,0,0,-0.2681911143263569,-0.6111071153858796,0.3145878518418256,-0.6738303259475752,-0.9810994445687158,-0.0934000169453912,-0.0374167206474134,0.1265632875746065,-0.9857189105706726,-0.4963387292479927,-0.299273,-0.653361,0.227011,-0.657283,-1.045307,-0.112496,0.020967,0.463944,0.557623,-0.482095,0,0,-0.2990507859842255,-0.6506336133609186,0.2323537628348802,-0.6572340929925987,-1.0448903158720246,-0.1376523664992982,0.0386396305886458,0.0453257706400251,0.1357996624446741,-0.2803223487116694
22250,2024 8 08,15:43:14.813,-0.268075,-0.606684,0.321859,-0.675631,-0.983136,-0.08776,-0.056271,-0.083826,-0.699943,-0.445582,0,0,-0.268185308610039,-0.6108859596165855,0.3149514092497343,-0.6739203596501965,-0.98120127234028,-0.0931180160981216,-0.0383594346150427,0.1160438231958762,-0.9714301150421388,-0.4938008927855931,-0.299265,-0.65338,0.226956,-0.657287,-1.046502,-0.0968,-0.001095,0.577634,0.136851,-0.486642,0,0,-0.2990614966850142,-0.6507709326928726,0.2320838746931362,-0.6572367383429687,-1.0449709000784233,-0.1356097481743333,0.0366528990592135,0.0719411821080239,0.1358522293224403,-0.2906383312760859
22251,2024 8 08,15:43:14.822,-0.268101,-0.60662,0.321878,-0.675669,-0.983703,-0.09176,-0.042702,0.065798,-0.679191,-0.299196,0,0,-0.268181093179537,-0.6106726616357563,0.3152977387872476,-0.6740077916676867,-0.981326358723266,-0.0930501152932155,-0.0385765628842905,0.1135315320360823,-0.956818159290032,-0.4840706481463134,-0.299273,-0.653361,0.227011,-0.657283,-1.044907,-0.121013,0.053774,0.597786,0.423342,-0.493831,0,0,-0.2990720718507634,-0.6509004360582289,0.2318302309584793,-0.6572390514258202,-1.044967705074502,-0.1348799107656166,0.0375089541062528,0.0982334230026227,0.1502267178563183,-0.3007979647122816
22252,2024 8 08,15:43:14.830,-0.268108,-0.606603,0.321883,-0.675679,-0.983857,-0.092841,-0.039035,0.106229,-0.673584,-0.259639,0,0,-0.2681774385205602,-0.6104691785539684,0.3156270018478851,-0.6740913520843023,-0.9814528907871024,-0.0930396595285548,-0.038599484740076,0.1131664054342782,-0.9426564513255302,-0.4728490657389977,-0.299286,-0.653408,0.226842,-0.657288,-1.045566,-1.62109,0.477197,0.299844,-0.096505,-0.527767,0,0,-0.2990827682582253,-0.6510258142553174,0.2315808194105554,-0.6572414988545292,-1.0449976198207769,-0.2091904152273357,0.0594933564009402,0.1083139518524916,0.1378901319635024,-0.3121464164766676
22253,2024 8 08,15:43:14.838,-0.268112,-0.606554,0.321884,-0.675721,-0.978696,-0.11358,0.027753,-0.099332,-0.802112,-0.378717,0,0,-0.2681741665945322,-0.6102734196262699,0.3159398517554909,-0.6741728344800871,-0.9813150462477472,-0.094066676552127,-0.0352818605030722,0.1025414851625643,-0.9356292287592536,-0.4681424624520478,-0.2993,-0.653429,0.226795,-0.657278,-1.043144,-0.115383,0.023485,0.222769,0.011878,-0.499714,0,0,-0.299093629845314,-0.6511459735425515,0.2313415284400276,-0.6572433239118027,-1.044904938829738,-0.2045000444659689,0.0576929385808932,0.114036704259867,0.1315895253653273,-0.3215247956528342
22254,2024 8 08,15:43:14.847,-0.268122,-0.606503,0.321875,-0.675767,-0.979276,-0.095495,-0.046475,-0.115308,-0.838915,-0.198394,0,0,-0.2681715582648055,-0.6100848986449564,0.3162366091677163,-0.6742525427560828,-0.98121309393536,-0.0941380927245206,-0.0358415174779186,0.0916490109044361,-0.9307935173212908,-0.4546550393294454,-0.299307,-0.653457,0.226757,-0.657261,-1.043043,-0.114252,0.024824,0.237785,-0.253772,-0.491681,0,0,-0.2991042983530483,-0.6512615248654239,0.2311123020180262,-0.6572442077162126,-1.044811841888251,-0.1999876422426705,0.0560494916518485,0.1202241190468736,0.1123214490970609,-0.3300326058701925
22255,2024 8 08,15:43:14.855,-0.268128,-0.606445,0.321871,-0.675819,-0.979108,-0.12452,0.040368,-0.035176,-0.934572,-0.272601,0,0,-0.2681693803515652,-0.6099029037127086,0.3165183287093305,-0.6743308656182786,-0.981107839238592,-0.0956571880882946,-0.0320310416040227,0.0853077603592142,-0.9309824414552264,-0.4455523373629731,-0.29931,-0.653468,0.226743,-0.657253,-1.043381,-0.115023,0.050746,0.224996,-0.326175,-0.472113,0,0,-0.2991145834353959,-0.6513718486221526,0.2308938369171249,-0.657244647330402,-1.0447402997938384,-0.195739410130537,0.0557843170692561,0.1254627130945299,0.0903966266422078,-0.3371366255766828
22256,2024 8 08,15:43:14.863,-0.268137,-0.606385,0.32186,-0.675874,-0.979393,-0.094608,-0.049029,-0.010995,-0.879523,-0.169122,0,0,-0.268167761333987,-0.6097270085270732,0.316785412273864,-0.6744080223373646,-0.9810220972766622,-0.0956047286838799,-0.0328809395238215,0.0804926223412535,-0.9284094693824648,-0.4317308204948245,-0.299317,-0.653494,0.226721,-0.657231,-1.045169,-0.095821,0.046084,0.134977,-0.277701,-0.368702,0,0,-0.2991247042636261,-0.6514779561910449,0.2306851950712686,-0.6572439649638819,-1.0447617348041465,-0.1907434896240101,0.0552993012157933,0.1259384274398034,0.0719917453100974,-0.3387148942978487
22257,2024 8 08,15:43:14.872,-0.268147,-0.606324,0.321845,-0.675932,-0.980809,-0.092698,-0.047233,-0.003518,-0.945517,-0.220141,0,0,-0.2681667232672876,-0.6095568581007195,0.3170383916601707,-0.6744842212204963,-0.9810114424128292,-0.0954593922496859,-0.0335985425476305,0.0762920912241908,-0.9292648459133416,-0.4211513294700832,-0.299328,-0.653516,0.226693,-0.657214,-1.042106,-0.114116,0.021859,0.222663,-0.125909,-0.402904,0,0,-0.2991348690504448,-0.6515798583814927,0.2304855853177052,-0.6572424667156878,-1.044628948063939,-0.1869121151428096,0.0536272861550036,0.1307746560678132,0.0620967080445926,-0.3419243495829562
22258,2024 8 08,15:43:14.880,-0.268163,-0.60626,0.321828,-0.675992,-0.9806,-0.094065,-0.047979,0.039919,-1.048546,-0.19522,0,0,-0.2681665371039232,-0.6093920151956835,0.3172778720771621,-0.6745596101594715,-0.9809908702921876,-0.0953896726372016,-0.0343175654202489,0.0744734366629813,-0.9352289036176744,-0.4098547629965791,-0.299332,-0.653556,0.226675,-0.657178,-1.043072,-0.118477,0.051014,0.067283,-0.525113,-0.356001,0,0,-0.2991447255979225,-0.651678665462418,0.2302950560518199,-0.6572392433799034,-1.044551100660742,-0.1834903593856691,0.0534966218472534,0.1276000732644226,0.0327362226423629,-0.3426281821038084
22259,2024 8 08,15:43:14.888,-0.268168,-0.608214,0.321853,-0.67422,-0.980533,-0.094507,-0.04822,0.053979,-1.081896,-0.187154,0,0,-0.268166610248727,-0.6093331144358993,0.3175066284733039,-0.6745426296514979,-0.9809679767775784,-0.0953455390053415,-0.0350126871492365,0.0734487148298322,-0.9425622584367908,-0.3987197248467501,-0.299336,-0.653588,0.226665,-0.657148,-1.040019,-0.123174,0.007364,-0.029146,-0.376495,-0.18925,0,0,-0.2991542893180264,-0.6517741321892971,0.2301135532492289,-0.6572346812109082,-1.044324495627705,-0.1804745414163857,0.0511899907548907,0.1197627696012014,0.0122746615102448,-0.334959272998618
22260,2024 8 08,15:43:14.897,-0.268186,-0.606169,0.321791,-0.676081,-0.979244,-0.092218,-0.047086,0.113242,-1.150746,-0.13087,0,0,-0.2681675797362907,-0.6091749087141044,0.3177208470496387,-0.674619548168923,-0.9808817779386994,-0.0951891620550744,-0.0356163527917747,0.0754383790883406,-0.9529714455149512,-0.3853272386044126,-0.299337,-0.653634,0.226677,-0.657098,-1.043939,-0.10852,0.042585,-0.181623,-0.668548,-0.001822,0,0,-0.299163424852125,-0.6518671255798323,0.2299417255867674,-0.6572278471503628,-1.0443052208463195,-0.1768768143455664,0.0507597412171462,0.1046934811211414,-0.0217664715652674,-0.3183024093486871
22261,2024 8 08,15:43:14.905,-0.268195,-0.606101,0.321755,-0.676156,-0.978627,-0.092222,-0.049764,0.327743,-1.313865,-0.173762,0,0,-0.2681689507494761,-0.6090212132783992,0.3179225546971568,-0.6746963707604767,-0.9807690390417644,-0.0950408039523207,-0.0363237351521859,0.0880536101339236,-0.9710161232392036,-0.3747489766741919,-0.299337,-0.653634,0.226677,-0.657098,-1.043976,-0.118655,0.024415,-0.183069,-0.671316,-4.5e-05,0,0,-0.2991721036095187,-0.6519554693008407,0.229778489307429,-0.6572213547928446,-1.0442887598040036,-0.173965723628288,0.0494425041562889,0.0903053570650843,-0.054243947987004,-0.3023895388812527
22262,2024 8 08,15:43:14.913,-0.268201,-0.606034,0.321717,-0.676232,-0.97936,-0.092691,-0.05149,0.263299,-1.138848,-0.233432,0,0,-0.2681705532120023,-0.6088718526144792,0.3181122769622989,-0.6747731522224529,-0.9806985870896762,-0.0949233137547046,-0.0370820483945766,0.0968158796272274,-0.9794077170772436,-0.3676831278404823,-0.299372,-0.653615,0.226708,-0.65709,-1.045384,-0.120231,-0.153921,-0.710704,0.266571,0.175865,0,0,-0.2991820984290428,-0.6520384458357986,0.2296249648420576,-0.6572147870532024,-1.0443435218138033,-0.1712789874468736,0.0392743289484744,0.0502548892118301,-0.0382032005876538,-0.2784768119371901
22263,2024 8 08,15:43:14.922,-0.268207,-0.60597,0.321686,-0.676301,-0.979114,-0.095169,-0.048948,0.245172,-1.050856,-0.293506,0,0,-0.2681723755514022,-0.6087267599837553,0.318290963114184,-0.6748495446113302,-0.9806193577351924,-0.0949355980669694,-0.0376753459748478,0.104233685645866,-0.9829801312233812,-0.3639742714484582,-0.299407,-0.653558,0.226722,-0.657126,-1.040357,-0.113809,0.021181,-0.615753,0.7651,0.124966,0,0,-0.2991933435075907,-0.6521144235440087,0.2294798165999547,-0.6572103477005422,-1.044144195723113,-0.1684054880745299,0.0383696625010507,0.0169544947512386,0.0019619594417288,-0.2583046713403306
22264,2024 8 08,15:43:14.930,-0.268208,-0.605908,0.321649,-0.676374,-0.981008,-0.116399,0.057529,0.29342,-1.136914,-0.255176,0,0,-0.2681741567738321,-0.6085858219845675,0.3184588649584748,-0.6749257673807636,-0.9806387898484328,-0.0960087681636209,-0.0329151286761054,0.1136930013635727,-0.9906768246622122,-0.3585343578760353,-0.299403,-0.653579,0.22678,-0.657087,-1.050106,-0.113775,0.025562,-0.326198,-1.086287,0.406785,0,0,-0.2992038263322111,-0.6521876523668082,0.2293448257699569,-0.6572041803155151,-1.044442285936957,-0.1656739636708034,0.0377292793759982,-0.0002031299863233,-0.0524504885303576,-0.225050187773314
22265,2024 8 08,15:43:14.938,-0.268208,-0.605908,0.321649,-0.676374,-0.981437,-0.119682,0.019132,0.304222,-1.157821,-0.245036,0,0,-0.2681758489351404,-0.608451930885339,0.3186183717105511,-0.6749981790117253,-0.9806787003560112,-0.0971924297554399,-0.0303127722423001,0.1232194512953941,-0.9990340334291016,-0.3528594399822335,-0.299406,-0.653575,0.226825,-0.657074,-1.046718,-0.113773,0.027649,-0.475127,0.080087,0.313422,0,0,-0.2992139350156005,-0.6522570197484677,0.2292188344814591,-0.6571976712997393,-1.0445560716401094,-0.1630789154872632,0.0372252654071982,-0.0239493234870071,-0.0458236141038397,-0.1981265783846483
22266,2024 8 08,15:43:14.947,-0.268206,-0.605846,0.321618,-0.676445,-0.977647,-0.086383,-0.047299,0.257278,-0.968261,-0.339842,0,0,-0.2681773564883834,-0.6083216343410721,0.3187683531250235,-0.6750705200611391,-0.9805271153382104,-0.0966519582676679,-0.0311620836301851,0.1299223787306244,-0.9974953817576464,-0.3522085679831218,-0.299403,-0.653579,0.22678,-0.657087,-1.048658,-0.112888,0.025162,-0.155342,-0.600568,0.140103,0,0,-0.2992233882648205,-0.6523231187610443,0.2290968927573861,-0.6571921377347523,-1.044761168058104,-0.1605693697129,0.0366221021368383,-0.0305189573126568,-0.0735608333986477,-0.1812150994654159
22267,2024 8 08,15:43:14.955,-0.268244,-0.605792,0.321645,-0.676466,-0.980476,-0.101649,-0.038625,-0.414373,-0.591208,-0.127705,0,0,-0.2681806886639642,-0.6081951526240185,0.3189121854687723,-0.6751402940580821,-0.9805245595713,-0.0969018103542845,-0.0315352294486758,0.1027076097940931,-0.977181012669764,-0.3409833895839657,-0.299403,-0.653579,0.22678,-0.657087,-1.048838,-0.112806,0.024931,-0.125629,-0.663812,0.123999,0,0,-0.2992323688515795,-0.6523859128229921,0.2289810481195168,-0.6571868808480147,-1.0449650096551986,-0.158181201227255,0.0360375470299964,-0.0352744594470239,-0.1030733917287153,-0.1659543944921451
22268,2024 8 08,15:43:14.963,-0.268238,-0.605742,0.321626,-0.676522,-0.978009,-0.101041,-0.05205,-0.029154,-1.011891,-0.301413,0,0,-0.2681835542307659,-0.6080724949928176,0.3190478761953337,-0.6752093793551779,-0.9803987815927347,-0.0971087698365703,-0.0325609679762421,0.0961145293043885,-0.9789165120362756,-0.3390048701047674,-0.2994,-0.653596,0.226876,-0.657038,-1.048857,-0.07618,0.014182,-0.23,-0.240463,0.068548,0,0,-0.2992407504090005,-0.6524464171818425,0.228875795713541,-0.657179436805614,-1.0451596091724389,-0.1540811411658922,0.0349447696784966,-0.0450107364746727,-0.1099428721422795,-0.1542292747675378
22269,2024 8 08,15:43:14.972,-0.268237,-0.605691,0.321592,-0.676584,-0.980871,-0.094355,-0.052371,0.102208,-1.002709,-0.128452,0,0,-0.2681862265192276,-0.6079534202431767,0.319175082385567,-0.6752781103874189,-0.9804223925130982,-0.0969710813447417,-0.0335514695774299,0.096419202839169,-0.980106136434462,-0.328477226599529,-0.299399,-0.653608,0.226876,-0.657027,-1.045042,-0.119365,0.04575,-0.083228,-0.349694,0.009003,0,0,-0.2992486628885504,-0.6525044963227504,0.2287758059278639,-0.6571718149653332,-1.0451537287138166,-0.1523453341075976,0.0354850311945717,-0.0469215996509391,-0.1219304285351655,-0.1460676610291609
22270,2024 8 08,15:43:14.980,-0.268229,-0.605642,0.321553,-0.67665,-0.983617,-0.094031,-0.051123,0.526317,-0.935071,-0.115911,0,0,-0.2681883651932662,-0.6078378492310178,0.3192939782662886,-0.6753467048680479,-0.9805821228874432,-0.0968240772775046,-0.0344300460985584,0.1179140926972106,-0.9778543796127388,-0.3178489152695525,-0.299397,-0.653628,0.226887,-0.657003,-1.053754,-0.117395,0.027305,-0.221122,-0.102327,0.001288,0,0,-0.2992560797441229,-0.6525606715066129,0.2286813656314707,-0.6571633742170665,-1.0455837422781258,-0.1505978174022177,0.0350760296348431,-0.0556316196683921,-0.1209502571084073,-0.1386998779777029
22271,2024 8 08,15:43:14.988,-0.268227,-0.605629,0.321543,-0.676667,-0.984283,-0.094209,-0.050835,0.648982,-0.918546,-0.121119,0,0,-0.2681902969336029,-0.6077274067694669,0.3194064293529742,-0.6754127196246454,-0.980767166743071,-0.0966933234136294,-0.0352502937936305,0.14446748806235,-0.9748889606321018,-0.3080124195060749,-0.29942,-0.653589,0.226854,-0.657044,-1.041358,-0.113538,0.059592,0.223895,0.809939,-0.154628,0,0,-0.2992642757569168,-0.6526120879312822,0.2285899973498972,-0.6571574055062132,-1.0453724551642194,-0.1487448265321069,0.036301828153101,-0.0416552886849725,-0.0744057942529869,-0.1394962840788177
22272,2024 8 08,15:43:14.997,-0.26823,-0.655471,0.196593,-0.678057,-0.985794,-0.094236,-0.052553,0.227225,-0.916027,-0.121913,0,0,-0.2681922820869227,-0.6101145864309936,0.3132657578853255,-0.6755449336434132,-0.9810185084059172,-0.0965704572429479,-0.036115429103949,0.1486053636592325,-0.9719458626004966,-0.2987074485307711,-0.299422,-0.65362,0.226855,-0.657012,-1.048841,-0.119846,0.070744,-0.01387,-0.68084,-0.12746,0,0,-0.2992721619690709,-0.652662483534718,0.2285032474824023,-0.6571501352309024,-1.0455458824060084,-0.1472998852055015,0.0380239367454459,-0.0402660242507239,-0.1047275045403376,-0.1388944698748768
22273,2024 8 08,15:43:15.005,-0.268238,-0.605742,0.321626,-0.676522,-0.983824,-0.093892,-0.050671,0.307715,-1.13299,-0.208992,0,0,-0.2681945679825765,-0.6098959571094439,0.3136837699910592,-0.6755937869612425,-0.9811587829856214,-0.0964365343808005,-0.0368432076487516,0.1565608454762709,-0.9799980694704716,-0.2942216761042325,-0.299413,-0.653641,0.226839,-0.657,-1.045639,-0.114151,0.016542,0.198644,-0.120057,-0.123021,0,0,-0.2992792038706173,-0.6527114093579821,0.2284200351082822,-0.6571426284693572,-1.045550538285708,-0.1456424409452264,0.0369498399081736,-0.0283205230381877,-0.1054939793133207,-0.1381007963811329
22274,2024 8 08,15:43:15.013,-0.26825,-0.605435,0.321455,-0.676873,-0.983105,-0.095152,-0.048938,0.097765,-1.547666,-0.409249,0,0,-0.2681973395834477,-0.6096729092539717,0.3140723314915062,-0.6756577476131803,-0.9812560938363404,-0.0963723076617605,-0.037447947266314,0.1536210532024573,-1.008381465996948,-0.2999730422990209,-0.299411,-0.653645,0.226837,-0.656998,-1.045082,-0.114638,0.013811,0.235639,-0.022435,-0.122248,0,0,-0.2992857936770865,-0.652758088890083,0.228340883352868,-0.6571353970458893,-1.0455271113714226,-0.1440922188979651,0.0357928979127649,-0.0151225468862783,-0.1013410303476546,-0.1373081565620763
22275,2024 8 08,15:43:15.022,-0.268267,-0.605356,0.32142,-0.676954,-0.985346,-0.005463,0.016027,0.273537,-1.295786,-0.133682,0,0,-0.2682008226042753,-0.609457063791273,0.3144397149169309,-0.6757225602325213,-0.9814605891445232,-0.0918268422786725,-0.0347741999029983,0.1596168505423345,-1.0227516926971008,-0.2916584901840699,-0.299425,-0.653666,0.226839,-0.65697,-1.047331,-0.114728,0.029381,-0.149562,-0.347446,-0.269115,0,0,-0.2992927539932322,-0.6528034844455788,0.2282657891852246,-0.6571271271935948,-1.0456173058028515,-0.1426240079530668,0.0354723030171267,-0.0218445195419644,-0.1136462788302719,-0.1438984987339724
22276,2024 8 08,15:43:15.030,-0.268283,-0.605267,0.321402,-0.677035,-0.986818,-0.097568,-0.033093,-0.029629,-1.062315,-0.320635,0,0,-0.2682049314740615,-0.6092475606017093,0.3147878291710844,-0.6757881822208952,-0.981728459687297,-0.0921139001647388,-0.0346901399078483,0.1501545580152177,-1.0247298580622457,-0.2931073156748664,-0.299445,-0.653674,0.226827,-0.656957,-1.041575,0.53263,0.04598,-0.03098,-0.071969,-0.249314,0,0,-0.2993003662935706,-0.6528470102232998,0.2281938497259634,-0.657118620833915,-1.045415190512709,-0.1088613075554135,0.0359976878662703,-0.0223012935648661,-0.1115624148887583,-0.1491692737972738
22277,2024 8 08,15:43:15.038,-0.268288,-0.605239,0.321397,-0.677061,-0.987223,-0.097096,-0.053555,-0.149817,-0.995162,-0.404123,0,0,-0.2682090849003584,-0.6090471325716238,0.3151182877125301,-0.6758518231098505,-0.982003186702932,-0.0923630051565019,-0.0356333829124559,0.1351559801144568,-1.0232514651591331,-0.2986580998911231,-0.299452,-0.653708,0.226815,-0.656924,-1.048427,-0.115476,0.025104,-0.054516,-0.445781,-0.340856,0,0,-0.299307947978892,-0.6528900597121348,0.2281249072396652,-0.6571088897922193,-1.045565780987073,-0.1091920421776428,0.0354530034729568,-0.0239120288866228,-0.1282733441443204,-0.1587536101074101
22278,2024 8 08,15:43:15.047,-0.268293,-0.605175,0.321374,-0.677127,-0.980123,-0.095245,-0.055157,-0.012243,-1.307425,-0.299516,0,0,-0.2682132806553405,-0.6088535259430425,0.3154310733269036,-0.6759155819543579,-0.9819091773677854,-0.0925071048986768,-0.0366095637668331,0.127786031108734,-1.0374601419011766,-0.2987009948965669,-0.299462,-0.653728,0.226796,-0.656906,-1.044985,-0.113781,0.02306,-0.012344,-0.053718,-0.36047,0,0,-0.2993156505799474,-0.652931956726528,0.2280584618776819,-0.6570987453026083,-1.0455367419377195,-0.1094214900687606,0.034833353299309,-0.0233336274422917,-0.1245455769371044,-0.1688394296020396
22279,2024 8 08,15:43:15.055,-0.268312,-0.605091,0.32135,-0.677206,-0.979361,-0.096737,-0.053983,0.043763,-1.347056,-0.257193,0,0,-0.2682182166225735,-0.6086653996458904,0.3157270196605584,-0.6759801028566399,-0.981781768499396,-0.092718599653743,-0.0374782355784915,0.1235848795532973,-1.0529399348061177,-0.2966255951517385,-0.299458,-0.653756,0.22678,-0.656886,-1.044961,-0.111909,0.026335,0.137035,-0.385848,-0.224913,0,0,-0.2993227680509501,-0.6529731588902017,0.2279945387837978,-0.6570881080374779,-1.0455079548408337,-0.1095458655653226,0.0344084356343435,-0.0153151960701771,-0.1376106980902491,-0.1716431081219376
22280,2024 8 08,15:43:15.063,-0.268325,-0.614539,0.324392,-0.667169,-0.980439,-0.096477,-0.05054,0.176393,-1.463408,-0.247336,0,0,-0.2682235557914448,-0.6089590796635959,0.3161602686775305,-0.6755395477138079,-0.9817146300744264,-0.0929065196710558,-0.0381313237995669,0.1262252855756324,-1.0734633380658116,-0.2941611153941516,-0.299457,-0.653763,0.226776,-0.656881,-1.044956,-0.111473,0.027097,0.171828,-0.463207,-0.193339,0,0,-0.2993294796484025,-0.6530126509456916,0.227933611844608,-0.657077752635604,-1.0454803570987918,-0.1096422222870565,0.0340428638526263,-0.0059580362666682,-0.1538905131857367,-0.1727279027158407
22281,2024 8 08,15:43:15.072,-0.268334,-0.604927,0.321282,-0.677376,-0.981478,-0.092169,-0.05273,0.266351,-1.39185,-0.126769,0,0,-0.2682290780018726,-0.608757475680416,0.3164163552436539,-0.6756313703281175,-0.981702798570705,-0.092869643687503,-0.0388612576095885,0.1332315712968508,-1.089382671162521,-0.285791509624444,-0.299446,-0.653795,0.226766,-0.656857,-1.046048,-0.114283,0.029104,0.089138,-0.390814,-0.185701,0,0,-0.2993353056659824,-0.653051768398407,0.2278752312523775,-0.6570667150038237,-1.0455087392438522,-0.1098742611727036,0.033795920659995,-0.0012032344533348,-0.1657366875264498,-0.1733765575800487
22282,2024 8 08,15:43:15.080,-0.268355,-0.604849,0.321286,-0.677435,-0.981836,-0.090144,-0.058176,-0.639504,-0.966273,-0.389776,0,0,-0.268235374101779,-0.6085620518963952,0.3166598374814712,-0.6757215518117116,-0.9817094586421696,-0.0927333615031279,-0.0398269947291091,0.0945947927320082,-1.083227187604395,-0.2909907341432218,-0.299452,-0.653708,0.226815,-0.656924,-1.042719,-0.114627,0.022403,-0.021644,-0.237588,-0.183786,0,0,-0.2993411403826833,-0.6530845799784866,0.2278222196897587,-0.6570595792536326,-1.0453692522816596,-0.1101118981140684,0.0332262746269953,-0.0022252727306681,-0.1693292531501273,-0.1738970297010462
22283,2024 8 08,15:43:15.088,-0.268363,-0.60482,0.321291,-0.677456,-0.981929,-0.089571,-0.060262,-1.018827,-0.79574,-0.506119,0,0,-0.26824175539669,-0.6083749493015754,0.3168913956073977,-0.675808274221126,-0.9817204357100612,-0.0925752434279715,-0.0408487449926537,0.0389237030954078,-1.0688528282241754,-0.3017471474360608,-0.299453,-0.65384,0.226749,-0.656815,-1.045773,-0.11436,0.02565,-0.05037,-0.375894,-0.227799,0,0,-0.299346733363549,-0.6531223509795623,0.2277685587052707,-0.6570473502909508,-1.0453894396675765,-0.110324303208365,0.0328474608956455,-0.0046325090941347,-0.179657490492621,-0.1765921282159939
22284,2024 8 08,15:43:15.097,-0.268385,-0.604761,0.321305,-0.677493,-0.982867,-0.149626,-0.076871,-0.054838,-0.978418,-0.423099,0,0,-0.2682489176268555,-0.6081942518364967,0.3171120758270278,-0.6758925105100697,-0.981777763924558,-0.0954277812565729,-0.042649857743021,0.0342356179406374,-1.0643310868129665,-0.3078147400642577,-0.29949,-0.653823,0.226757,-0.656812,-1.044478,-0.103375,0.03004,-0.586115,0.423171,-0.151572,0,0,-0.2993538966953716,-0.6531573834305842,0.2277179807700072,-0.6570355827764033,-1.0453438676841975,-0.1099768380479467,0.0327070878508632,-0.0337066336394279,-0.1495160659679899,-0.1753411218051942
22285,2024 8 08,15:43:15.105,-0.268413,-0.616222,0.3256,-0.664989,-0.983568,-0.089536,-0.052285,-0.150936,-1.177003,-0.4578,0,0,-0.2682571217455127,-0.6085956392446717,0.3175364720356763,-0.6753473349845662,-0.98186727572833,-0.0951331921937442,-0.0431316148558699,0.0249770370436055,-1.069964682472318,-0.3153140030610448,-0.299515,-0.653809,0.226752,-0.656816,-1.041684,-0.101389,0.025334,-0.864462,-0.139573,-0.261075,0,0,-0.299361951860603,-0.653189964259055,0.2276696817315068,-0.6570246036375831,-1.0451608742999878,-0.1095474461455494,0.0323384334583201,-0.0752444019574566,-0.1490189126695904,-0.1796278157149345
22286,2024 8 08,15:43:15.113,-0.268439,-0.60457,0.321322,-0.677634,-0.980539,-0.09262,-0.056454,-0.185251,-1.436896,-0.590923,0,0,-0.2682662156582371,-0.6083943572824382,0.3177257484338925,-0.6754616682353379,-0.9818008619419136,-0.095007532584057,-0.0437977341130764,0.0144656351914253,-1.0883112483487023,-0.3290944529079926,-0.299522,-0.653805,0.226751,-0.656817,-1.040891,-0.100825,0.023997,-0.943492,-0.299351,-0.292166,0,0,-0.2993699542675728,-0.6532207160461022,0.2276237476449314,-0.6570142234557039,-1.0449473805849885,-0.1091113238382719,0.0319213617854041,-0.1186567818595837,-0.1565355170361109,-0.1852547249291878
22287,2024 8 08,15:43:15.122,-0.268463,-0.604472,0.32132,-0.677713,-0.978266,-0.094339,-0.053825,-0.183755,-1.357482,-0.463011,0,0,-0.2682760548753252,-0.6081982394183163,0.3179054610121979,-0.675574234823571,-0.9816241188448178,-0.0949741059548541,-0.0442990974074226,0.004554603431854,-1.1017697859312672,-0.3357902802625929,-0.299513,-0.653839,0.226752,-0.656788,-1.048831,-0.110875,0.024288,-0.285629,-0.431085,-0.25868,0,0,-0.2993771065541942,-0.6532516302437971,0.2275801602626849,-0.6570029122829186,-1.0451415615557391,-0.1091995076463583,0.0315396936961338,-0.1270053927666046,-0.1702629911843053,-0.1889259886827284
22288,2024 8 08,15:43:15.130,-0.268481,-0.604385,0.321317,-0.677786,-0.97774,-0.09844,-0.051235,-0.074094,-1.341645,-0.432652,0,0,-0.2682863021315589,-0.6080075774474005,0.318076037961588,-0.6756848230823924,-0.9814299129025768,-0.0951474006571114,-0.0446458925370515,0.0006221732602613,-1.1137635466347036,-0.3406333662494633,-0.299525,-0.653864,0.226752,-0.656757,-1.045146,-0.130141,0.008333,-0.130726,-0.428437,-0.206556,0,0,-0.2993845012264845,-0.6532822487316071,0.2275387522495506,-0.6569906166687727,-1.0451417834779522,-0.1102465822640404,0.0303793590113271,-0.1271914231282743,-0.18317169162509,-0.1898074892485919
22289,2024 8 08,15:43:15.138,-0.268487,-0.60435,0.321315,-0.677814,-0.977623,-0.115594,-0.127423,-0.023539,-1.342415,-0.428963,0,0,-0.2682963370249809,-0.6078246985750305,0.3182379860635086,-0.6757912819282729,-0.981239567257448,-0.0961697306242558,-0.0487847479101989,-0.0005858854027517,-1.1251961193029685,-0.3450498479369901,-0.299533,-0.653896,0.226745,-0.656724,-1.047347,-0.095003,0.015778,-0.083175,-0.38598,-0.273845,0,0,-0.2993919261651602,-0.6533129362950267,0.2274990646370731,-0.656977285835334,-1.0452520443040545,-0.1094844031508384,0.0296492910607608,-0.1249906019718606,-0.1933121070438355,-0.1940093647861623
22290,2024 8 08,15:43:15.147,-0.26849,-0.604295,0.321299,-0.67787,-0.977872,-0.095674,-0.05765,0.170509,-1.271394,-0.392173,0,0,-0.2683060201737319,-0.607648213646279,0.3183910367603332,-0.6758952178318592,-0.9810711888945756,-0.0961449440930431,-0.0492280105146889,0.0079688588673858,-1.1325060133378198,-0.3474060055401406,-0.299542,-0.653924,0.226739,-0.656694,-1.046391,-0.135912,0.040477,-0.150635,-0.372635,-0.294995,0,0,-0.2993994298569022,-0.6533434894802753,0.2274610614052194,-0.6569631215435673,-1.045308992088852,-0.1108057829932964,0.0301906765077227,-0.1262728218732676,-0.2022782516916437,-0.1990586465468542
22291,2024 8 08,15:43:15.155,-0.268495,-0.604226,0.321288,-0.677935,-0.978842,-0.097643,-0.060371,0.084176,-1.096504,-0.410088,0,0,-0.2683154691650453,-0.6074771029639651,0.3185358849223165,-0.6759972069402663,-0.9809597294498468,-0.0962198468883909,-0.0497851599889545,0.0117792159240165,-1.130705912670929,-0.3505401052631335,-0.299551,-0.653949,0.226726,-0.65667,-1.044126,-0.109267,0.039401,-0.009244,-0.246034,-0.261026,0,0,-0.2994070083640571,-0.6533737650062615,0.2274243083349584,-0.6569484654663889,-1.0452498424844092,-0.1107288438436316,0.0306511926823366,-0.1204213807796042,-0.2044660391070615,-0.2021570142195115
22292,2024 8 08,15:43:15.163,-0.268498,-0.604181,0.321282,-0.677977,-0.979519,-0.099603,-0.06152,0.000412,-0.97715,-0.427162,0,0,-0.268324595706793,-0.6073122978157668,0.3186731906762007,-0.676096196593253,-0.9808876929773545,-0.0963890045439714,-0.0503719019895068,0.0112108551278157,-1.123028117037382,-0.3543711999999768,-0.299556,-0.653961,0.22672,-0.656658,-1.043006,-0.100593,0.034662,0.060691,-0.183414,-0.244223,0,0,-0.2994144579458542,-0.6534031267559485,0.2273890929182105,-0.6569339421930693,-1.0451376503601888,-0.11022205165145,0.0308517330482198,-0.111365761740624,-0.2034134371517084,-0.2042603135085359
22293,2024 8 08,15:43:15.172,-0.268501,-0.604111,0.321247,-0.678054,-0.979522,-0.09435,-0.049086,0.299012,-1.096176,-0.307643,0,0,-0.2683334159214533,-0.6071522329249784,0.3188018811423906,-0.6761940867635903,-0.9808194083284866,-0.0962870543167728,-0.0503076068900314,0.0256009123714249,-1.121685511185513,-0.3520347899999779,-0.299557,-0.653965,0.22672,-0.656653,-1.043259,-0.105214,0.02964,0.028685,-0.215455,-0.244142,0,0,-0.2994215850485615,-0.653431220418151,0.2273556382723,-0.6569198950834159,-1.0450437178421792,-0.1099716490688775,0.0307911463958088,-0.1043632236535928,-0.204015515294123,-0.2062543978331091
22294,2024 8 08,15:43:15.180,-0.268507,-0.604057,0.321241,-0.678102,-0.981407,-0.098485,-0.040829,0.010491,-0.921866,-0.305262,0,0,-0.2683420951253806,-0.6069974712787295,0.3189238370852711,-0.6762894824254108,-0.9808487879120622,-0.0963969516009341,-0.0498336765455298,0.0248454167528536,-1.1116945356262375,-0.349696150499979,-0.299567,-0.65399,0.226723,-0.656622,-1.044448,-0.099198,0.048081,-0.207527,-0.364073,-0.228214,0,0,-0.2994288557961334,-0.6534591593972434,0.2273240063586849,-0.656905000329245,-1.0450139319500702,-0.1094329666154337,0.0316556390760183,-0.1095214124709131,-0.2120183895294168,-0.2073523779414536
22295,2024 8 08,15:43:15.188,-0.268501,-0.604111,0.321247,-0.678054,-0.976831,0.10903,-0.083663,0.406615,-1.495978,-0.189153,0,0,-0.2683500403691116,-0.606853147714793,0.3190399952310075,-0.6763777083041401,-0.9806478985164592,-0.0861256040208874,-0.0515251427182533,0.043933895915211,-1.1309087088449257,-0.34166899297498,-0.299585,-0.653998,0.22673,-0.656604,-1.041931,-0.114545,0.060469,-0.416369,-0.041556,-0.111636,0,0,-0.2994366630063267,-0.6534861014273812,0.2272943060407507,-0.6568899503127827,-1.0448597853525663,-0.109688568284662,0.0330963071222174,-0.1248637918473675,-0.203495270052946,-0.2025665590443809
22296,2024 8 08,15:43:15.197,-0.268501,-0.604111,0.321247,-0.678054,-0.976607,-0.099122,-0.051725,0.425936,-1.52398,-0.183489,0,0,-0.268357588350656,-0.6067160403290534,0.3191503454694572,-0.676461522888933,-0.980445853590636,-0.0867754238198431,-0.0515351355823407,0.0630340011194504,-1.1505622734026792,-0.3337599933262309,-0.299604,-0.654,0.226754,-0.656586,-1.043143,-0.105781,0.035765,-0.395641,-0.143203,-0.007089,0,0,-0.2994450298560104,-0.6535117963560121,0.2272672907387131,-0.6568747527971436,-1.044773946084938,-0.1094931898704289,0.0332297417661065,-0.1384026522549991,-0.2004806565502987,-0.1927926810921618
22297,2024 8 08,15:43:15.205,-0.268496,-0.603916,0.321134,-0.678283,-0.976143,-0.094167,-0.053109,0.483475,-1.525733,-0.295796,0,0,-0.2683645089331232,-0.6065760383126007,0.3192495281959843,-0.6765525967444863,-0.9802307109111044,-0.0871450026288509,-0.0516138288032236,0.0840560510634779,-1.1693208097325454,-0.3318617936599194,-0.299622,-0.653991,0.226766,-0.656582,-1.043,-0.133787,0.009271,-0.260421,0.030058,0.022303,0,0,-0.2994538783632099,-0.6535357565382115,0.2272422262017774,-0.6568601151572864,-1.0446852487806912,-0.1107078803769074,0.0320318046778012,-0.1445035696422491,-0.1889537237227837,-0.1820378970375537
22298,2024 8 08,15:43:15.213,-0.268491,-0.603836,0.32109,-0.678377,-0.980105,-0.808495,0.23352,0.654421,-1.359292,-0.248804,0,0,-0.268370833486467,-0.6064390363969706,0.319341551786185,-0.6766438169072619,-0.980224425365549,-0.1232125024974084,-0.0373571373630624,0.112574298510304,-1.178819369245918,-0.3277089039769234,-0.299639,-0.653979,0.226796,-0.656575,-1.05144,-0.123287,0.012212,-0.634283,-0.052811,0.168588,0,0,-0.2994631344450494,-0.6535579187113009,0.2272199148916886,-0.656845859399422,-1.0450229863416567,-0.111336836358062,0.0310408144439111,-0.1689925411601367,-0.1821465875366445,-0.164506602185676
22299,2024 8 08,15:43:15.222,-0.268479,-0.603749,0.321037,-0.678485,-0.979144,-0.094149,-0.059146,0.45067,-1.45396,-0.408847,0,0,-0.2683762418121436,-0.6063045345771221,0.3194263241968758,-0.6767358760618988,-0.9801704040972716,-0.1217593273725379,-0.0384465804949093,0.1294790835847888,-1.192576400783622,-0.3317658087780772,-0.299646,-0.653969,0.226801,-0.656581,-1.049942,-0.117971,0.027975,-0.630552,0.087848,0.18901,0,0,-0.2994722777227969,-0.6535784727757359,0.2271989691471041,-0.6568326164294509,-1.0452689370245738,-0.1116685445401589,0.0308875237217156,-0.1920705141021298,-0.1686468581598123,-0.1468307720763922
22300,2024 8 08,15:43:15.230,-0.268462,-0.603671,0.320996,-0.67858,-0.977319,-0.093799,-0.061682,0.537915,-1.355624,-0.425119,0,0,-0.2683805297215365,-0.6061728578482659,0.3195048079870319,-0.6768280822588038,-0.980027833892408,-0.120361311003911,-0.0396083514701638,0.1499008794055494,-1.200728780744441,-0.3364334683391734,-0.299679,-0.653911,0.226818,-0.656617,-1.037641,-0.116499,0.01849,-0.41866,0.751131,0.252366,0,0,-0.2994826138366571,-0.6535950991369491,0.2271799206897489,-0.6568218356079782,-1.044887540173345,-0.111910067313151,0.0302676475356298,-0.2033999883970234,-0.1226579652518217,-0.1268709334725726
22301,2024 8 08,15:43:15.238,-0.268443,-0.603606,0.320956,-0.678664,-0.981796,-0.092907,-0.059842,0.54786,-1.078212,-0.373734,0,0,-0.2683836532354596,-0.6060445149558527,0.3195773675876803,-0.6769198781458635,-0.9801162421977876,-0.1189885954537155,-0.0406200338966556,0.1697988354352719,-1.1946029417072188,-0.3382984949222147,-0.299685,-0.653919,0.226876,-0.656587,-1.04867,0.245884,-0.088768,-0.568624,-0.803311,0.337274,0,0,-0.2994927331448242,-0.6536112941801017,0.2271647246552615,-0.6568100938275793,-1.0450766631646775,-0.0940203639474934,0.0243158651588483,-0.2216611889771722,-0.1566906169892306,-0.103663686798944
22302,2024 8 08,15:43:15.247,-0.26844,-0.603598,0.320951,-0.678675,-0.98236,-0.092794,-0.05961,0.549113,-1.043264,-0.36726,0,0,-0.2683864705736866,-0.6059221892080601,0.3196460492082963,-0.6770076342385702,-0.980228430087898,-0.1176788656810297,-0.0415695322018229,0.1887645436635083,-1.1870359946218578,-0.339746570176104,-0.299702,-0.653912,0.226925,-0.656569,-1.047323,-0.114735,0.01803,-0.786206,-0.025522,0.228728,0,0,-0.2995031964875829,-0.6536263294710966,0.2271527384224984,-0.6567980391362003,-1.0451889800064438,-0.0950560957501187,0.0240015719009059,-0.2498884295283136,-0.150132186139769,-0.0870441024589968
22303,2024 8 08,15:43:15.255,-0.268424,-0.60354,0.320922,-0.678747,-0.97539,-0.095681,-0.062065,0.342009,-1.090272,-0.418189,0,0,-0.2683883470450023,-0.605803079747657,0.3197098467478815,-0.6770946025266417,-0.9799865085835032,-0.1165789723969782,-0.0425943055917317,0.1964267664803329,-1.182197794890765,-0.3436686916672988,-0.299732,-0.653911,0.226967,-0.656542,-1.048606,-0.104691,0.032637,-0.566838,-0.317542,0.020523,0,0,-0.2995146366632038,-0.6536405629975417,0.2271434515013735,-0.6567852371793902,-1.0453598310061216,-0.0955378409626128,0.0244333433058606,-0.2657359080518979,-0.1585026768327806,-0.0816657473360469
22304,2024 8 08,15:43:15.263,-0.268414,-0.603485,0.32093,-0.678796,-0.978443,-0.097338,-0.05384,-0.353628,-0.688183,-0.528051,0,0,-0.2683896296927522,-0.6056871757602741,0.3197708544104874,-0.6771796724003095,-0.979909333154328,-0.1156169237771293,-0.0431565903121451,0.1689240281563162,-1.1574970551462265,-0.3528878070839338,-0.299752,-0.653915,0.226985,-0.656522,-1.051273,-0.116062,0.020949,-0.091927,-0.051498,-0.098945,0,0,-0.2995265048300436,-0.6536542848476646,0.2271355289263048,-0.6567720753204206,-1.0456554894558154,-0.0965640489144821,0.0242591261405676,-0.257045462649303,-0.1531524429911415,-0.0825297099692446
22305,2024 8 08,15:43:15.272,-0.268405,-0.609092,0.32209,-0.67322,-0.978931,-0.092758,-0.055754,-0.212617,-0.724766,-0.64658,0,0,-0.2683903982081146,-0.6058574169722604,0.319886811689963,-0.6769816887802941,-0.9798604164966116,-0.1144739775882728,-0.0437864607965379,0.1498469767485004,-1.135860502388915,-0.3675724167297372,-0.29976,-0.653915,0.22699,-0.656517,-1.051264,-0.114987,0.020705,-0.07733,-0.015737,-0.138541,0,0,-0.2995381795885414,-0.6536673206052814,0.2271282524799895,-0.6567593215543995,-1.0459359149830243,-0.097485196468758,0.0240814198335392,-0.2480596895168378,-0.1462816708415845,-0.0853302744707823
22306,2024 8 08,15:43:15.280,-0.268403,-0.603361,0.320962,-0.678895,-0.981407,-0.098485,-0.040829,-0.088878,-0.830664,-0.567182,0,0,-0.2683910282977089,-0.6057325961236473,0.3199405711054648,-0.6770773543412794,-0.9799377456717808,-0.1136745287088592,-0.043638587756711,0.1379107279110754,-1.1206006772694692,-0.3775528958932502,-0.299794,-0.653913,0.226997,-0.656501,-1.04845,-0.107489,0.026685,-0.442412,-0.086399,-0.308253,0,0,-0.2995509706091143,-0.6536796045750173,0.22712168985599,-0.6567464054766795,-1.0460616192338732,-0.0979853866453201,0.0242115988418622,-0.2577773050409959,-0.1432875372995052,-0.0964764107472432
22307,2024 8 08,15:43:15.288,-0.268413,-0.616222,0.3256,-0.664989,-0.979101,-0.097737,-0.059654,-0.558367,-0.751483,-0.651169,0,0,-0.2683921268828234,-0.6062570663174649,0.3202235425501916,-0.6764729366242154,-0.9798959083881918,-0.1128776522734162,-0.0444393583688754,0.1030968415155216,-1.1021447934059956,-0.3912337010985877,-0.299821,-0.653933,0.226979,-0.656475,-1.047334,-0.107938,0.028631,-0.274571,-0.311921,-0.565041,0,0,-0.2995644720786585,-0.6536922743462664,0.2271145553631905,-0.6567328352028455,-1.0461252382721795,-0.0984830173130541,0.0244325688997691,-0.2586169897889461,-0.15171921043453,-0.119904640209881
22308,2024 8 08,15:43:15.297,-0.268436,-0.603202,0.321052,-0.67898,-0.997313,0.199441,-0.043294,-0.599741,-0.736312,-0.47295,0,0,-0.2683943205386822,-0.6061043130015916,0.320264965422682,-0.6765982897930046,-0.9807667629687822,-0.0972617196597454,-0.0443820904504316,0.0679549494397455,-1.0838531537356957,-0.3953195160436583,-0.299829,-0.653975,0.226925,-0.656448,-1.046385,-0.121169,0.064561,0.469142,-0.361698,-0.711395,0,0,-0.2995776984747256,-0.6537064106289531,0.227105077595031,-0.6567185934427032,-1.0461382263585706,-0.0996173164474014,0.0264389904547806,-0.2222290402994988,-0.1622181499128034,-0.149479158199387
22309,2024 8 08,15:43:15.305,-0.268441,-0.603187,0.321062,-0.678988,-1.000984,-0.096262,-0.081057,-0.608082,-0.733254,-0.437024,0,0,-0.2683966545117481,-0.605958447351512,0.3203048171515479,-0.6767177753033544,-0.981777624820343,-0.0972117336767581,-0.04621583592791,0.0341531019677582,-1.0663231960489108,-0.3974047402414754,-0.299819,-0.654036,0.226838,-0.656422,-1.052532,-0.096612,0.036443,0.958824,-0.361326,-0.830365,0,0,-0.2995897635509894,-0.6537228900975054,0.2270917237152794,-0.656703763770568,-1.046457915040642,-0.0994670506250313,0.0269391909320416,-0.1631763882845238,-0.1721735424171633,-0.1835234502894177
22310,2024 8 08,15:43:15.313,-0.268478,-0.603098,0.321123,-0.679023,-0.982045,-0.100001,-0.06627,-1.4155,-0.637825,-0.618998,0,0,-0.2684007217861606,-0.6058154249839364,0.3203457262939705,-0.6768330365381867,-0.981790993579326,-0.0973511969929202,-0.0472185441315145,-0.0383295531306296,-1.044898286246465,-0.4084844032294016,-0.299786,-0.654094,0.226721,-0.656419,-1.056126,-0.111379,0.016202,1.636079,-0.033378,-0.89649,0,0,-0.2995995753734399,-0.6537414455926301,0.2270731875295155,-0.6566895255820395,-1.04694131928861,-0.1000626480937798,0.0264023313854395,-0.0732136188702976,-0.1652337652963051,-0.2191717777749467
22311,2024 8 08,15:43:15.322,-0.268523,-0.603021,0.321205,-0.679035,-0.988725,-0.094459,-0.063754,-1.219251,-0.66357,-0.518725,0,0,-0.2684068356968526,-0.6056757037347394,0.3203886899792719,-0.6769431347112773,-0.9821376939003597,-0.0972065871432742,-0.0480453169249388,-0.0973756254740981,-1.025831871934142,-0.4139964330679315,-0.299776,-0.654113,0.226677,-0.656421,-1.055451,-0.112072,0.015477,1.785645,0.089691,-0.949078,0,0,-0.2996083966047679,-0.6537600233129987,0.2270533781530397,-0.6566760993029376,-1.0473668033241794,-0.1006631156890908,0.0258560648161675,0.0197293120732172,-0.1524875270314898,-0.2556670888861994
22312,2024 8 08,15:43:15.330,-0.268555,-0.602922,0.321235,-0.679096,-0.976198,-0.093554,-0.051332,-0.75773,-1.317165,-0.680699,0,0,-0.26841424391201,-0.6055380185480024,0.3204310054803083,-0.6770507779757133,-0.9818407092053416,-0.0970239577861105,-0.0482096510786919,-0.1303933442003932,-1.0403985283374348,-0.4273315614145349,-0.299758,-0.654155,0.22653,-0.656438,-1.045864,-0.105724,0.028332,1.782532,0.406792,-1.1762,0,0,-0.2996158767745295,-0.6537797721473487,0.2270272092453877,-0.6566641943377907,-1.0472916631579705,-0.1009161599046362,0.0259798615753592,0.1078694464695563,-0.1245235506799153,-0.3016937344418894
22313,2024 8 08,15:43:15.338,-0.268594,-0.602829,0.321278,-0.679143,-0.977956,-0.107849,0.01946,-0.601621,-1.290629,-0.490854,0,0,-0.2684232317164094,-0.6054025676206023,0.3204733552062929,-0.6771553890769276,-0.9816464737450744,-0.097565209896805,-0.0448261685247573,-0.1539547269903736,-1.052910051920563,-0.4305076833438082,-0.299737,-0.654202,0.226367,-0.656457,-1.042523,-0.114685,0.02265,1.53221,0.272598,-1.084745,0,0,-0.299621932935803,-0.6538008835399812,0.2269941987831183,-0.6566538346209011,-1.0470532300000717,-0.1016046019094044,0.0258133684965912,0.1790864741460786,-0.1046674731459195,-0.3408462977197949
22314,2024 8 08,15:43:15.347,-0.268637,-0.602739,0.321299,-0.679195,-0.988876,-0.097144,-0.067028,-0.517714,-1.148491,-0.217837,0,0,-0.268433920130589,-0.6052693892395722,0.3205146374459783,-0.6772573696230811,-0.9820079500578208,-0.0975441494019647,-0.0459362600985194,-0.1721426906408549,-1.0576890993245347,-0.4198741491766177,-0.299721,-0.654256,0.226216,-0.656462,-1.040923,-0.117556,0.021309,1.34309,0.148941,-1.109664,0,0,-0.2996268862890129,-0.6538236393629822,0.2269552888439624,-0.656644242889856,-1.046746718500068,-0.1024021718139342,0.0255881500717616,0.2372866504387746,-0.0919870494886236,-0.3792871828338052
