frame,date,time,quaternion_x_left,quaternion_y_left,quaternion_z_left,quaternion_w_left,accel_x_left,accel_y_left,accel_z_left,gyro_x_left,gyro_y_left,gyro_z_left,HS_left,TO_left,filtered_quaternion_x_left,filtered_quaternion_y_left,filtered_quaternion_z_left,filtered_quaternion_w_left,filtered_accel_x_left,filtered_accel_y_left,filtered_accel_z_left,filtered_gyro_x_left,filtered_gyro_y_left,filtered_gyro_z_left,quaternion_x_right,quaternion_y_right,quaternion_z_right,quaternion_w_right,accel_x_right,accel_y_right,accel_z_right,gyro_x_right,gyro_y_right,gyro_z_right,HS_right,TO_right,filtered_quaternion_x_right,filtered_quaternion_y_right,filtered_quaternion_z_right,filtered_quaternion_w_right,filtered_accel_x_right,filtered_accel_y_right,filtered_accel_z_right,filtered_gyro_x_right,filtered_gyro_y_right,filtered_gyro_z_right
11437,2024 10 17,09:01:35.296,0.612148,-0.488301,-0.447323,-0.432133,-1.092807,0.156255,0.079592,-5.065918,-71.044922,-81.726074,0,0,0.612148,-0.488301,-0.447323,-0.432133,-1.092807,0.156255,0.079592,-5.065918,-71.044922,-81.726074,-0.77092,-0.349133,0.510354,-0.152732,-1.393109,0.051759,-0.027345,-17.211914,-184.082031,283.691406,0,0,-0.77092,-0.349133,0.510354,-0.152732,-1.393109,0.051759,-0.027345,-17.211914,-184.082031,283.691406
11438,2024 10 17,09:01:35.304,0.617259,-0.488412,-0.439962,-0.432294,-0.983428,0.259285,0.093265,-10.375977,-80.993652,-63.659668,0,0,0.61240355,-0.48830655,-0.44695495,-0.4321410499999999,-1.08733805,0.1614065,0.0802756499999999,-5.33142095,-71.54235849999999,-80.82275369999999,-0.759148,-0.337245,0.531645,-0.165268,-1.522019,0.095706,0.058107,-23.193359,-183.776855,283.14209,0,0,-0.7703314,-0.3485386,0.5114185499999999,-0.1533588,-1.3995545,0.0539563499999999,-0.0230724,-17.51098625,-184.0667722,283.6639402
11439,2024 10 17,09:01:35.312,0.622069,-0.487786,-0.432739,-0.433396,-0.712424,0.370617,0.233406,-10.131836,-86.425781,-54.016113,0,0,0.6128868225,-0.4882805225,-0.4462441525,-0.4322037975,-1.0685923475,0.1718670249999999,0.0879321674999999,-5.5714417025,-72.286529625,-79.48242166499999,-0.746973,-0.324632,0.552285,-0.17784,-1.596728,0.12891,0.116703,-25.634766,-178.527832,286.987305,0,0,-0.7691634799999999,-0.34734327,0.5134618724999999,-0.15458286,-1.409413175,0.0577040324999999,-0.0160836299999999,-17.917175237499997,-183.78982519,283.83010843999995
11440,2024 10 17,09:01:35.321,0.626137,-0.487199,-0.426474,-0.434407,-0.485855,0.521989,0.333995,-9.460449,-69.824219,-45.654297,0,0,0.613549331375,-0.4882264463749999,-0.4452556448749999,-0.4323139576249999,-1.0394554801250002,0.1893731237499999,0.1002353091249999,-5.765892067375,-72.16341409374999,-77.79101543175,-0.734498,-0.31128,0.572044,-0.190741,-1.658254,0.106937,0.121097,-26.916504,-170.10498,292.053223,0,0,-0.7674302059999998,-0.3455401065,0.5163909788749999,-0.156390767,-1.42185521625,0.0601656808749999,-0.0092245984999999,-18.367141675625,-183.10558293049996,284.241264168
11441,2024 10 17,09:01:35.329,0.628682,-0.487441,-0.421739,-0.435083,-0.396008,0.420423,0.26075,-16.174316,-44.677734,-36.560059,0,0,0.61430596480625,-0.4881871740562499,-0.4440798126312499,-0.43245240974375,-1.0072831061187502,0.2009256175624999,0.10826104366875,-6.28631326400625,-70.78913008906248,-75.72946761016249,-0.721675,-0.297252,0.591031,-0.203735,-1.718314,0.078127,0.112308,-29.11377,-165.100098,295.227051,0,0,-0.7651424456999997,-0.343125701175,0.5201229799312499,-0.15875797865,-1.4366781554375,0.0610637468312499,-0.0031479685749999,-18.904473091843748,-182.2053086839749,284.7905535096
11442,2024 10 17,09:01:35.337,0.629558,-0.488266,-0.4193,-0.435247,-0.480483,0.594745,0.364757,-14.038086,-11.535645,-19.042969,0,0,0.6150685665659374,-0.4881911153534374,-0.4428408219996874,-0.4325921392565625,-0.9809431008128128,0.2206165866843749,0.1210858414853125,-6.673901900805936,-67.82645583460935,-72.89514267965436,-0.721675,-0.297252,0.591031,-0.203735,-1.718314,0.078127,0.112308,-29.11377,-165.100098,295.227051,0,0,-0.7629690734149996,-0.34083201611625,0.5236683809346874,-0.1610068297174999,-1.4507599476656248,0.0619169094896874,0.00262482985375,-19.41493793725156,-181.35004814977611,285.31237838411994
11443,2024 10 17,09:01:35.346,0.629558,-0.488266,-0.4193,-0.435247,-0.480483,0.594745,0.364757,-14.038086,-11.535645,-19.042969,0,0,0.6157930382376405,-0.4881948595857655,-0.441663780899703,-0.4327248822937343,-0.955920095772172,0.2393230073501561,0.1332693994110468,-7.042111105765639,-65.01191529287887,-70.20253399567163,-0.708472,-0.282706,0.60932,-0.216503,-1.805719,0.065432,0.098148,-32.043457,-162.414551,294.98291,0,0,-0.7602442197442496,-0.3379257153104375,0.527950961887953,-0.1637816382316249,-1.4685079002823431,0.0620926640152031,0.0074009883610625,-20.04636389038898,-180.4032732922873,285.7959049649139
11444,2024 10 17,09:01:35.354,0.628918,-0.489548,-0.418644,-0.435364,-0.608905,0.591327,0.294443,-16.662598,4.150391,-7.019043,0,0,0.6164492863257585,-0.4882625166064772,-0.4405127918547178,-0.4328568381790476,-0.9385693409835631,0.2569232069826483,0.1413280794404945,-7.523135450477357,-61.55379997823492,-67.04335944588804,-0.694881,-0.267886,0.626924,-0.228788,-1.901425,0.037111,0.104495,-34.667969,-160.461426,291.503906,0,0,-0.7569760587570371,-0.3344237295449156,0.5328996137935553,-0.1670319563200437,-1.490153755268226,0.0608435808144429,0.0122556889430093,-20.77744414586953,-179.40618092767295,286.08130501666824
11445,2024 10 17,09:01:35.362,0.627599,-0.49099,-0.418684,-0.435605,-0.632344,0.559099,0.225593,-19.714355,12.512207,-1.037598,0,0,0.6170067720094705,-0.4883988907761533,-0.439421352261982,-0.4329942462700952,-0.9232580739343852,0.2720319966335159,0.1455413254684698,-8.13269642795349,-57.85049962932317,-63.74307137359365,-0.680975,-0.252959,0.643755,-0.240548,-1.956603,0.012207,0.1377,-36.071777,-158.14209,287.17041,0,0,-0.7531760058191852,-0.3303504930676699,0.5384423831038775,-0.1707077585040415,-1.5134762175048146,0.0584117517737208,0.0185279044958589,-21.54216078857605,-178.3429763812893,286.1357602658348
11446,2024 10 17,09:01:35.371,0.625959,-0.492406,-0.419121,-0.435947,-0.559099,0.52736,0.28663,-18.981934,15.74707,4.272461,0,0,0.6174543834089969,-0.4885992462373456,-0.4384063346488828,-0.4331418839565905,-0.9050501202376658,0.2847983968018401,0.1525957591950462,-8.675158306555815,-54.170621147857005,-60.34229475491396,-0.666781,-0.237991,0.659745,-0.251995,-1.981506,-0.034669,0.151372,-34.973145,-154.785156,284.423828,0,0,-0.748856255528226,-0.3257325184142863,0.5445075139486836,-0.1747721205788394,-1.5368777066295738,0.0537577141850347,0.0251701092710659,-22.21370999914725,-177.16508536222483,286.05016365254306
11447,2024 10 17,09:01:35.379,0.623816,-0.493737,-0.420505,-0.436179,-0.565935,0.50441,0.241218,-14.709473,26.306152,12.634277,0,0,0.617772464238547,-0.4888561339254783,-0.4375112679164387,-0.4332937397587609,-0.8880943642257825,0.295778976961748,0.1570268712352939,-8.976874041228024,-50.14678249046416,-56.69346616716826,-0.652307,-0.22308,0.674823,-0.263335,-2.027894,-0.125004,0.14893,-31.25,-150.268555,282.287598,0,0,-0.7440287927518147,-0.320599892493572,0.5510232882512494,-0.1792002645498974,-1.561428521298095,0.044819628475783,0.0313581038075126,-22.66552449918989,-175.8202588441136,285.862035369916
11448,2024 10 17,09:01:35.387,0.621191,-0.494771,-0.423042,-0.436301,-0.61623,0.518571,0.22071,-8.728027,36.193848,22.521973,0,0,0.6179433910266197,-0.4891518772292044,-0.4367878045206167,-0.4334441027708229,-0.8745011460144932,0.3069185781136606,0.1602110276735292,-8.964431689166624,-45.82975096594094,-52.73269420880984,-0.637645,-0.208502,0.688901,-0.2745,-2.091861,-0.255867,0.104984,-26.550293,-146.179199,276.367188,0,0,-0.7387096031142238,-0.3149949978688934,0.5579171738386869,-0.1839652513224025,-1.58795014523319,0.0297852970519938,0.035039398617137,-22.859762924230395,-174.3382058519079,285.3872930014201
11449,2024 10 17,09:01:35.396,0.621191,-0.494771,-0.423042,-0.436301,-0.61623,0.518571,0.22071,-8.728027,36.193848,22.521973,0,0,0.6181057714752887,-0.4894328333677442,-0.4361005142945858,-0.4335869476322817,-0.8615875887137685,0.3175011992079776,0.1632359762898527,-8.952611454708293,-41.72857101764389,-48.96996084836934,-0.637645,-0.208502,0.688901,-0.2745,-2.091861,-0.255867,0.104984,-26.550293,-146.179199,276.367188,0,0,-0.7336563729585126,-0.3096703479754487,0.5644663651467525,-0.1884919887562824,-1.613145687971531,0.0155026821993941,0.0385366286862801,-23.044289428018875,-172.9302555093125,284.93628775134914
11450,2024 10 17,09:01:35.404,0.618081,-0.495395,-0.426669,-0.436479,-0.693869,0.529313,0.172857,-3.662109,43.029785,33.752441,0,0,0.6181045329015241,-0.4897309416993569,-0.4356289385798565,-0.4337315502506676,-0.85320165927808,0.3280917892475787,0.1637170274753601,-8.688086331972878,-37.49065321676169,-44.83384075595087,-0.622936,-0.194583,0.701956,-0.285212,-2.128483,-0.417005,0.088382,-22.216797,-142.089844,265.563965,0,0,-0.728120354310587,-0.3039159805766763,0.5713408468894148,-0.1933279893184683,-1.638912553572954,-0.0061227019105755,0.0410288972519661,-23.00291480661793,-171.3882349338469,283.96767161378165
11451,2024 10 17,09:01:35.412,0.614614,-0.495439,-0.431151,-0.436919,-0.749535,0.519059,0.133793,0.915527,45.471191,44.86084,0,0,0.6179300062564479,-0.490016344614389,-0.4354050416508636,-0.4338909227381342,-0.848018326314176,0.3376401497851997,0.1622208261015921,-8.207905665374232,-33.342561005923606,-40.34910671815332,-0.608337,-0.181603,0.713992,-0.295231,-2.117252,-0.665059,0.031251,-18.005371,-139.831543,251.159668,0,0,-0.7221311865950576,-0.2978003315478424,0.578473404544944,-0.1984231398525449,-1.6628295258943062,-0.0390695168150467,0.0405400023893678,-22.75303761628703,-169.81040033715456,282.32727143309256
11452,2024 10 17,09:01:35.421,0.610875,-0.494899,-0.436291,-0.437672,-0.781762,0.49855,0.110843,5.310059,46.813965,54.748535,0,0,0.6175772559436254,-0.4902604773836695,-0.4354493395683204,-0.4340799766012275,-0.844705509998467,0.3456856422959397,0.1596519347965125,-7.53200743210552,-29.334734705627422,-35.59422463224565,-0.5937,-0.169818,0.725368,-0.304177,-2.051332,-0.901395,0.044435,-16.113281,-143.066406,233.642578,0,0,-0.7157096272653046,-0.2914012149704503,0.5858181343176968,-0.2037108328599176,-1.682254649599591,-0.0821857909742944,0.0407347522698994,-22.42104978547268,-168.4732006202968,279.89303676143794
11453,2024 10 17,09:01:35.429,0.606893,-0.493824,-0.44204,-0.438656,-0.804712,0.48146,0.088382,9.643555,48.76709,63.476563,0,0,0.6170430431464441,-0.490438653514486,-0.4357788725899044,-0.434308777771166,-0.8427058344985437,0.3524743601811427,0.1560884380566869,-6.673229310500244,-25.42964347034605,-30.640685250633368,-0.578813,-0.159581,0.736366,-0.311888,-1.921934,-1.101108,0.1377,-13.73291,-152.34375,213.439941,0,0,-0.7088647959020393,-0.2848102042219278,0.5933455276018119,-0.2091196912169217,-1.694238617119611,-0.1331319014255796,0.0455830146564045,-21.98664279619905,-167.66672808928195,276.57038197336607
11454,2024 10 17,09:01:35.437,0.602691,-0.49226,-0.448347,-0.439806,-0.83401,0.471694,0.076662,13.61084,50.231934,71.228027,0,0,0.6163254409891219,-0.4905297208387617,-0.4364072789604091,-0.4345836388826077,-0.8422710427736165,0.3584353421720856,0.1521171161538525,-5.659025844975232,-21.646564596828757,-25.547249638101697,-0.563205,-0.15121,0.747365,-0.318406,-1.772027,-1.209021,0.365246,-9.521484,-170.288086,193.603516,0,0,-0.7015818061069373,-0.2781301940108314,0.6010465012217213,-0.2145840066560756,-1.6981280362636306,-0.1869263563543007,0.0615661639235842,-21.363384856389093,-167.79779598481784,272.4220386746978
11455,2024 10 17,09:01:35.446,0.602691,-0.49226,-0.448347,-0.439806,-0.83401,0.471694,0.076662,13.61084,50.231934,71.228027,0,0,0.6156437189396657,-0.4906162347968236,-0.4370042650123887,-0.4348447569384773,-0.8418579906349357,0.3640982750634813,0.1483443603461599,-4.69553255272647,-18.05263966698732,-20.70848580619661,-0.563205,-0.15121,0.747365,-0.318406,-1.772027,-1.209021,0.365246,-9.521484,-170.288086,193.603516,0,0,-0.6946629658015904,-0.2717841843102899,0.6083624261606352,-0.2197751063232718,-1.701822984450449,-0.2380310885365856,0.076750155727405,-20.77128981356964,-167.92231048557693,268.48111254096284
11456,2024 10 17,09:01:35.454,0.598271,-0.490257,-0.455126,-0.441113,-0.862819,0.469253,0.052248,16.784668,51.635742,78.186035,0,0,0.6147750829926824,-0.4905982730569824,-0.4379103517617692,-0.4351581690915534,-0.8429060411031889,0.3693560113103072,0.1435395423288519,-3.6215225250901466,-14.568220583637952,-15.763759765886778,-0.546565,-0.144866,0.758471,-0.32404,-1.635792,-1.275918,0.668966,-1.89209,-190.246582,175.231934,0,0,-0.6872580675115108,-0.2654382750947754,0.6158678548526034,-0.2249883510071082,-1.6985214352279263,-0.2899254341097563,0.1063609479410348,-19.827329822891155,-169.03852406129806,263.8186536139147
11457,2024 10 17,09:01:35.462,0.593602,-0.4879,-0.462297,-0.442574,-0.882351,0.462416,0.043947,18.615723,53.161621,84.594727,0,0,0.6137164288430482,-0.4904633594041333,-0.4391296841736807,-0.4355289606369757,-0.8448782890480295,0.3740090107447918,0.1385599152124093,-2.5096602488356394,-11.181728504456052,-10.74583542759244,-0.529282,-0.140852,0.76914,-0.329308,-1.66509,-1.431684,1.103549,13.671875,-200.134277,153.259277,0,0,-0.6793592641359352,-0.2592089613400366,0.6235314621099732,-0.2302043334567528,-1.69684986346653,-0.3470133624042685,0.156220350543983,-18.1523695817466,-170.59331170823316,258.290684783219
11458,2024 10 17,09:01:35.471,0.588546,-0.48525,-0.469926,-0.444202,-0.918973,0.470229,0.021973,19.714355,56.335449,92.224121,0,0,0.6124579074008958,-0.4902026914339266,-0.4406694999649967,-0.435962612605127,-0.8485830245956281,0.3788200102075522,0.1327305694517888,-1.398459486393857,-7.80586962923325,-5.597337606212816,-0.513213,-0.139182,0.777954,-0.334707,-1.799371,-1.79693,1.272012,34.912109,-183.166504,126.098633,0,0,-0.6710519509291384,-0.2532076132730348,0.6312525890044746,-0.2354294667839152,-1.7019759202932037,-0.419509194284055,0.2120099330167839,-15.49914565265927,-171.2219713228215,251.68108219405804
11459,2024 10 17,09:01:35.479,0.582971,-0.482355,-0.477965,-0.446125,-0.975616,0.469741,0.00293,18.493652,58.959961,100.463867,0,0,0.610983562030851,-0.4898103068622302,-0.4425342749667468,-0.4364707319748706,-0.8549346733658466,0.3833660596971746,0.1262405409791994,-0.403853912074164,-4.467578097771586,-0.2942773759021753,-0.498201,-0.14015,0.78527,-0.339861,-2.190496,-2.274972,1.652394,50.964355,-178.894043,96.801758,0,0,-0.6624094033826815,-0.247554732609383,0.6389534595542508,-0.2406510434447194,-1.726401924278543,-0.5122823345698523,0.2840291363659447,-12.175970620026304,-171.60557490668043,243.9371159843551
11460,2024 10 17,09:01:35.487,0.576907,-0.479259,-0.486184,-0.448458,-1.005402,0.448256,-0.015137,15.014648,59.082031,107.543945,0,0,0.6092797339293085,-0.4892827415191187,-0.4447167612184095,-0.4370700953761271,-0.8624580396975542,0.3866105567123158,0.1191716639302394,0.3670711835295442,-1.2900976428830062,5.097633742892934,-0.488522,-0.141577,0.788748,-0.345224,-2.241279,-2.688559,1.657765,59.448242,-88.134766,70.617676,0,0,-0.6537150332135474,-0.2422558459789139,0.6464431865765381,-0.2458796912724834,-1.752145778064616,-0.6210961678413597,0.3527159295476474,-8.59475998902499,-167.4320344613464,235.27114398513731
11461,2024 10 17,09:01:35.496,0.576907,-0.479259,-0.486184,-0.448458,-1.005402,0.448256,-0.015137,15.014648,59.082031,107.543945,0,0,0.607661097232843,-0.4887815544431627,-0.446790123157489,-0.4376394906073207,-0.8696052377126764,0.3896928288767001,0.1124562307337274,1.099450024353067,1.7285087892611444,10.219949305748289,-0.488522,-0.141577,0.788748,-0.345224,-2.241279,-2.688559,1.657765,59.448242,-88.134766,70.617676,0,0,-0.64545538155287,-0.2372219036799681,0.6535584272477111,-0.2508469067088593,-1.7766024391613853,-0.7244693094492918,0.417968383070265,-5.19260988957374,-163.46717103827908,227.03847058588048
11462,2024 10 17,09:01:35.504,0.570376,-0.47611,-0.494446,-0.451124,-1.026887,0.41847,-0.019044,11.230469,60.241699,112.243652,0,0,0.6057968423712008,-0.4881479767210046,-0.4491729169996146,-0.4383137160769547,-0.8774693258270426,0.391131687432865,0.105881219197041,1.6060009731354137,4.654168299798087,15.321134440460872,-0.485961,-0.142234,0.787992,-0.350256,-1.860408,-2.869716,1.298868,55.664063,-9.155273,41.07666,0,0,-0.6374806624752264,-0.2324725084959697,0.6602801058853255,-0.2558173613734163,-1.7807927172033158,-0.8317316439768272,0.4620133639167517,-2.149776245095053,-155.75157613636512,217.74038005658645
11463,2024 10 17,09:01:35.512,0.563416,-0.47305,-0.502661,-0.454002,-1.046419,0.388195,-0.020997,6.835938,61.950684,114.746094,0,0,0.6036778002526407,-0.4873930778849543,-0.4518473211496338,-0.4390981302731069,-0.8859168095356905,0.3909848530612217,0.099537308237189,1.8674978244786429,7.518994084808183,20.29238241843783,-0.487068,-0.143493,0.785668,-0.353412,-1.631397,-2.735923,1.233436,40.344238,21.362305,6.591797,0,0,-0.629960029351465,-0.2280235330711712,0.6665495005910591,-0.2606970933047455,-1.7733229313431498,-0.9269412117779858,0.5005844957209141,-0.0250755328403,-146.89588207954685,207.1829509037571
11464,2024 10 17,09:01:35.521,0.55604,-0.470209,-0.510766,-0.456992,-1.074252,0.363292,-0.020997,1.831055,64.27002,115.783691,0,0,0.6012959102400086,-0.4865338739907066,-0.4547932550921521,-0.4399928237594516,-0.8953335690589059,0.3896002104081606,0.0935105928253295,1.8656756832547103,10.356545380567772,25.066947847515937,-0.491203,-0.145498,0.78217,-0.354626,-1.558153,-2.379467,1.082064,27.954102,48.461914,-25.268555,0,0,-0.6230221778838917,-0.2238972564176126,0.6723305255615061,-0.2653935386395082,-1.762564434775992,-0.9995675011890864,0.5296584709348684,1.373883343801715,-137.1279922755695,195.56037560856925
11465,2024 10 17,09:01:35.529,0.548242,-0.467612,-0.518696,-0.460135,-1.113804,0.353526,-0.023438,-3.90625,66.101074,117.004395,0,0,0.5986432147280082,-0.4855877802911713,-0.4579883923375444,-0.440999932571479,-0.9062570906059606,0.3877964998877525,0.087663163184063,1.577079399091975,13.143771811539384,29.66382020514014,-0.497043,-0.148144,0.777995,-0.354578,-1.536668,-1.919004,1.013214,21.362305,60.48584,-44.311523,0,0,-0.6167232189896971,-0.220109593596732,0.6776137492834308,-0.2698527617075327,-1.7512696130371923,-1.0455393261296322,0.553836247388125,2.373304426611629,-127.24730066179104,183.5667806781408
11466,2024 10 17,09:01:35.537,0.54002,-0.465223,-0.52637,-0.463552,-1.150914,0.347667,-0.020508,-10.864258,66.101074,118.469238,0,0,0.5957120539916076,-0.4845695412766128,-0.4614074727206672,-0.442127535942905,-0.9184899360756624,0.3857900248933649,0.0822546050248598,0.955012529137376,15.791636920962414,34.10409109488313,-0.501958,-0.153475,0.781311,-0.337693,-2.468825,0.900906,6.853725,-294.555664,-124.572754,-241.943359,0,0,-0.6109849580402122,-0.2167778639168954,0.6827986118192592,-0.2732447736221561,-1.7871473823853326,-0.9482170598231504,0.8688306850187186,-12.473143994718953,-127.11357332870148,162.29127369423372
11467,2024 10 17,09:01:35.546,0.54002,-0.465223,-0.52637,-0.463552,-1.150914,0.347667,-0.020508,-10.864258,66.101074,118.469238,0,0,0.5929274512920273,-0.4836022142127821,-0.4646555990846339,-0.4431987591457598,-0.9301111392718794,0.3838838736486967,0.0771164747736169,0.3640490026805071,18.30710877491429,38.322348440138974,-0.501958,-0.153475,0.781311,-0.337693,-2.468825,0.900906,6.853725,-294.555664,-124.572754,-241.943359,0,0,-0.6055336101382016,-0.2136127207210506,0.6877242312282962,-0.2764671849410482,-1.8212312632660657,-0.855760906831993,1.1680754007677827,-26.577269994983,-126.9865323622664,142.07954205952203
11468,2024 10 17,09:01:35.554,0.531402,-0.463021,-0.533691,-0.46733,-1.130406,0.320322,-0.002441,-18.066406,65.551758,119.995117,0,0,0.589851178727426,-0.482573153502143,-0.4681073691304022,-0.4444053211884718,-0.9401258823082852,0.3807057799662618,0.073138601034936,-0.5574737474535183,20.669341236168577,42.405986868132025,-0.528456,-0.157834,0.767753,-0.326157,-1.083529,-0.046388,-3.064059,-122.802734,405.151367,-212.036133,0,0,-0.6016797296312915,-0.2108237846849981,0.6917256696668813,-0.2789516756939958,-1.7843461501027624,-0.8152922614903934,0.9564686807293934,-31.38854319523385,-100.37963739415306,124.37375830654592
11469,2024 10 17,09:01:35.562,0.522347,-0.46104,-0.540759,-0.471354,-1.135777,0.279305,0.006348,-24.230957,67.199707,121.337891,0,0,0.5864759697910547,-0.4814964958270358,-0.471739950673882,-0.4457527551290482,-0.949908438192871,0.3756357409679487,0.0697990709831892,-1.7411479100808425,22.99585952436015,46.35258207472543,-0.554644,-0.159475,0.754963,-0.311398,0.297372,1.078158,-3.075778,-20.446777,138.183594,-216.61377,0,0,-0.5993279431497268,-0.2082563454507482,0.6948875361835372,-0.2805739919092961,-1.6802602425976243,-0.7206197484158736,0.7548563466929237,-30.84145488547216,-88.45147582444541,107.32438189121862
11470,2024 10 17,09:01:35.571,0.512883,-0.459294,-0.547652,-0.475475,-1.172887,0.244636,0.007324,-28.930664,69.335938,121.948242,0,0,0.5827963213015018,-0.480386371035684,-0.4755355531401878,-0.4472388673725957,-0.9610573662832274,0.3690857539195513,0.0666753174340297,-3.1006237145768005,25.31286344814214,50.13236507098915,-0.557436,-0.175311,0.755929,-0.295132,-1.857479,1.272012,3.163183,-56.091309,-24.169922,-264.648438,1,0,-0.5972333459922404,-0.2066090781782108,0.6979396093743603,-0.2813018923138313,-1.689121180467743,-0.6209881609950799,0.8752726793582775,-32.10394759119855,-85.23739813322314,88.72574089665768
11471,2024 10 17,09:01:35.579,0.503182,-0.457673,-0.554294,-0.479689,-1.184606,0.20069,0.005371,-32.714844,69.030762,121.826172,0,0,0.5788156052364267,-0.4792507024838998,-0.4794734754831784,-0.448861374003966,-0.972234797969066,0.3606659662235737,0.0636101015623282,-4.581334728847961,27.49875837573503,53.71705541743969,-0.576599,-0.189176,0.740332,-0.289231,-0.718284,-0.30958,-1.16068,56.762695,203.552246,-253.90625,0,0,-0.5962016286926284,-0.2057374242693002,0.7000592289056422,-0.2816983476981397,-1.6405793214443558,-0.605417752945326,0.7734750453903635,-27.66061546163862,-70.79791592656198,71.59414135182479
11472,2024 10 17,09:01:35.587,0.49338,-0.456141,-0.560675,-0.483896,-1.193884,0.150395,-0.009278,-34.606934,68.786621,120.544434,0,0,0.5745438249746054,-0.4780952173597048,-0.4835335517090195,-0.4506131053037677,-0.9833172580706124,0.350152417912395,0.0599656964842118,-6.082614692405563,29.56315150694828,57.0584243465677,-0.582311,-0.207257,0.733124,-0.283705,-2.368236,-0.301279,1.373577,91.674805,1.464844,-207.641602,0,0,-0.5955070972579969,-0.2058134030558352,0.7017124674603601,-0.2817986803132327,-1.676962155372138,-0.5902108152980596,0.8034801431208453,-21.693844438556688,-67.18477793023389,57.63235418423354
11473,2024 10 17,09:01:35.596,0.483611,-0.454644,-0.566839,-0.487968,-1.213416,0.095218,-0.02588,-34.484863,68.481445,118.408203,0,0,0.5699971837258752,-0.4769226564917195,-0.4876988241235685,-0.4524808500385793,-0.994822195167082,0.3374056970167752,0.0556734116600012,-7.502727107785285,31.509066181600865,60.12591327923931,-0.582311,-0.207257,0.733124,-0.283705,-2.368236,-0.301279,1.373577,91.674805,1.464844,-207.641602,0,0,-0.594847292395097,-0.2058855829030434,0.7032830440873421,-0.281893996297571,-1.711525847603531,-0.5757642245331567,0.831984985964803,-16.02541196662885,-63.75229683372219,44.36865637502186
11474,2024 10 17,09:01:35.604,0.483611,-0.454644,-0.566839,-0.487968,-1.213416,0.095218,-0.02588,-34.484863,68.481445,118.408203,0,0,0.5656778745395813,-0.4758087236671335,-0.49165583291739,-0.4542552075366503,-1.0057518854087275,0.3252963121659364,0.0515957410770012,-8.85183390239602,33.35768512252082,63.040027765277344,-0.595197,-0.217021,0.720198,-0.282768,-1.412153,-0.110355,-0.015625,57.739258,201.171875,-141.113281,0,0,-0.5948647777753422,-0.2064423537578912,0.7041287918829751,-0.2819376964826924,-1.6965572052233544,-0.5524937633064988,0.7896044866665628,-12.337178468297408,-50.50608824203608,35.094559506270755
11475,2024 10 17,09:01:35.612,0.474036,-0.453089,-0.572786,-0.491849,-1.228065,0.050783,-0.034669,-32.775879,66.101074,115.905762,0,0,0.5610957808126023,-0.4746727374837768,-0.4957123412715205,-0.4561348971598177,-1.0168675411382913,0.3115706465576396,0.0472825040231511,-10.048036157276218,34.99485456639478,65.68331447701348,-0.607155,-0.222969,0.708087,-0.283303,-1.059114,-0.059084,-0.259285,53.588867,132.629395,-105.34668,0,0,-0.595479288886575,-0.2072686860699967,0.7043267022888262,-0.2820059616585578,-1.6646850449621866,-0.5278232751411739,0.7371600123332346,-9.040876194882538,-41.349314079934274,28.07249753095721
11476,2024 10 17,09:01:35.621,0.464816,-0.451356,-0.578474,-0.495572,-1.230995,-0.000977,-0.04297,-30.029297,62.133789,113.28125,0,0,0.556281791771972,-0.473506900609588,-0.4998504242079444,-0.4581067523018268,-1.0275739140813769,0.2959432642297576,0.0427698788219935,-11.047099199412406,36.35180128807504,68.0632112531628,-0.614191,-0.229075,0.699222,-0.285276,-1.314493,0.018067,0.039064,79.528809,109.741211,-71.411133,0,0,-0.5964148744422462,-0.2083590017664968,0.7040714671743848,-0.2821694635756299,-1.6471754427140772,-0.5005287613841152,0.7022552117165728,-4.61239193513841,-33.794787825937554,23.098316004409348
11477,2024 10 17,09:01:35.629,0.456015,-0.449404,-0.583965,-0.499071,-1.235389,-0.043947,-0.057619,-26.000977,58.166504,110.412598,0,0,0.5512684521833734,-0.4723017555791086,-0.5040561529975472,-0.4601549646867355,-1.0379646683773078,0.2789487510182697,0.0377504348808939,-11.794793089441784,37.442536423671285,70.18068059050466,-0.62115,-0.234067,0.689001,-0.290969,-1.063997,-0.173833,-0.213874,95.64209,125.12207,-43.09082,0,0,-0.5976516307201338,-0.209644401678172,0.7033179438156656,-0.2826094403968484,-1.6180165205783732,-0.4841939733149094,0.6564487511307441,0.4003321616185111,-25.84894493464067,19.78885920418888
11478,2024 10 17,09:01:35.637,0.447767,-0.447162,-0.589227,-0.502357,-1.233436,-0.102054,-0.054689,-21.484375,52.368164,106.994629,0,0,0.5460933795742047,-0.4710447678001531,-0.5083146953476698,-0.4622650664523987,-1.0477382349584423,0.2598986134673562,0.0331284631368492,-12.279272184969694,38.18881780248772,72.02137801097942,-0.627144,-0.23763,0.680369,-0.295501,-1.009796,-0.031251,0.024415,66.772461,105.407715,-36.743164,0,0,-0.599126249184127,-0.2110436815942634,0.7021704966248823,-0.283254018377006,-1.5876054945494544,-0.4615468246491638,0.6248470635742068,3.718938603537586,-19.28611193790864,16.962258043979435
11479,2024 10 17,09:01:35.646,0.44016,-0.444661,-0.594245,-0.505379,-1.207556,-0.158208,-0.055177,-16.418457,47.058105,102.722168,0,0,0.5407967105954944,-0.4697255794101454,-0.5126112105802864,-0.4644207631297787,-1.05572912321052,0.2389932827939884,0.0287131899800067,-12.48623142572121,38.63228216236333,73.55641751043044,-0.627144,-0.23763,0.680369,-0.295501,-1.009796,-0.031251,0.024415,66.772461,105.407715,-36.743164,0,0,-0.6005271367249206,-0.2123729975145502,0.7010804217936382,-0.2838663674581557,-1.5587150198219817,-0.4400320334167056,0.5948254603954964,6.871614723360707,-13.051420591013205,14.27698694178046
11480,2024 10 17,09:01:35.654,0.44016,-0.444661,-0.594245,-0.505379,-1.207556,-0.158208,-0.055177,-16.418457,47.058105,102.722168,0,0,0.5357648750657197,-0.4684723504396381,-0.516692900051272,-0.4664686749732898,-1.063320467049994,0.2191332186542889,0.0245186804810064,-12.68284270443515,39.05357330424516,75.01470503490891,-0.632881,-0.240392,0.672113,-0.299897,-1.051302,0.096683,-0.12598,70.495605,107.727051,-28.686523,0,0,-0.6021448298886746,-0.2137739476388226,0.6996320507039563,-0.2846678990852479,-1.5333443688308823,-0.4131962817458703,0.5587851873757216,10.05281423719267,-7.012497011462544,12.128811444691436
11481,2024 10 17,09:01:35.662,0.433306,-0.441939,-0.598987,-0.508086,-1.183142,-0.213874,-0.039552,-11.108398,40.344238,96.862793,0,0,0.5306419313124336,-0.4671456829176562,-0.5208076050487084,-0.4685495412246253,-1.0693115436974945,0.1974828577215745,0.021315146456956,-12.604120469213392,39.1181065390329,76.10710943316346,-0.637783,-0.243335,0.66368,-0.305857,-1.059603,-0.023438,-0.10889,85.510254,104.675293,-16.357422,0,0,-0.6039267383942408,-0.2152520002568815,0.6978344481687584,-0.2857273541309855,-1.5096573003893383,-0.3937083676585768,0.5254014280069356,13.825686225333037,-1.428107510889416,10.704499772456863
11482,2024 10 17,09:01:35.671,0.427263,-0.439073,-0.603423,-0.510433,-1.153844,-0.250496,-0.04297,-5.493164,34.545898,89.904785,0,0,0.5254729847468119,-0.4657420487717733,-0.5249383747962729,-0.470643714163394,-1.0735381665126196,0.1750839148354957,0.0181008891341082,-12.24857264575272,38.88949611208125,76.79699321150528,-0.642137,-0.245682,0.655752,-0.311912,-0.882839,-0.096194,0.175298,73.608398,97.900391,-8.911133,0,0,-0.6058372514745288,-0.2167735002440374,0.6957303257603205,-0.2870365864244362,-1.4783163853698713,-0.3788326492756479,0.5078962566065888,16.814821814066384,3.538317414655056,9.72371813383402
11483,2024 10 17,09:01:35.679,0.422042,-0.436129,-0.607563,-0.512386,-1.104038,-0.28663,-0.041505,0.061035,28.991699,82.336426,0,0,0.5203014355094713,-0.4642613963331846,-0.5290696060564593,-0.4727308284552243,-1.0750631581869885,0.1519982190937209,0.0151205946774028,-11.633092263465084,38.39460625647719,77.07396485093001,-0.645764,-0.24713,0.649462,-0.31641,-0.889187,-0.007813,0.031251,52.062988,72.692871,-7.202148,0,0,-0.6078335889008023,-0.2182913252318355,0.6934169094723044,-0.2885052571032144,-1.4488599161013775,-0.3602816668118655,0.4840639937762593,18.577230123363066,6.9960450939223024,8.877424827142319
11484,2024 10 17,09:01:35.687,0.417588,-0.433124,-0.611475,-0.513928,-1.052767,-0.317392,-0.0459,5.859375,24.475098,75.439453,0,0,0.5151657637339977,-0.4627045265165254,-0.5331898757536362,-0.4747906870324631,-1.073948350277639,0.1285287081390349,0.0120695649435327,-10.75846890029183,37.69863084365333,76.9922392583835,-0.648061,-0.248429,0.645033,-0.319737,-0.992218,0.031251,0.066897,42.236328,50.476074,-5.004883,0,0,-0.6098449594557621,-0.2197982089702437,0.6909977139986891,-0.2900668442480537,-1.4260278202963086,-0.3407050334712722,0.4632056440874463,19.76018501719491,9.170046539226188,8.183309435785201
11485,2024 10 17,09:01:35.696,0.413827,-0.430122,-0.615231,-0.515007,-0.996124,-0.344737,-0.038087,11.352539,21.728516,68.54248,0,0,0.5100988255472978,-0.4610754001906991,-0.5372919319659544,-0.4768015026808399,-1.070057132763757,0.1048654227320831,0.009561736696356,-9.652918505277238,36.90012510147066,76.56975129546433,-0.648061,-0.248429,0.645033,-0.319737,-0.992218,0.031251,0.066897,42.236328,50.476074,-5.004883,0,0,-0.611755761482974,-0.2212297485217315,0.6886994782987547,-0.291550352035651,-1.4043373292814931,-0.3221072317977086,0.443390211883074,20.88399216633516,11.235347912264878,7.52389981399594
11486,2024 10 17,09:01:35.704,0.413827,-0.430122,-0.615231,-0.515007,-0.996124,-0.344737,-0.038087,11.352539,21.728516,68.54248,0,0,0.5052852342699329,-0.4595277301811642,-0.5411888853676566,-0.4787117775467978,-1.066360476125569,0.0823853015954789,0.0071792998615382,-8.602645630013377,36.14154464639713,76.16838773069111,-0.649989,-0.249499,0.641318,-0.322454,-0.984405,0.007813,0.019532,33.569336,44.189453,-5.187988,0,0,-0.6136674234088252,-0.222643211095645,0.6863304043838169,-0.2930955344338685,-1.3833407128174184,-0.3056112202078231,0.4221973012889203,21.5182593580184,12.883053166651631,6.888305423296142
11487,2024 10 17,09:01:35.712,0.410578,-0.427275,-0.618931,-0.515545,-0.977081,-0.356945,-0.052736,16.479492,22.094727,61.706543,0,0,0.5005498725564362,-0.457915093672106,-0.5450759910992738,-0.4805534386694579,-1.0618965023192906,0.060418786515705,0.0041835348684613,-7.348538748512709,35.43920376407728,75.44529549415655,-0.65169,-0.250173,0.638429,-0.324226,-0.963897,0.032716,0.052736,19.897461,33.630371,-6.347656,0,0,-0.6155685522383839,-0.2240197005408627,0.683935334164626,-0.294652057712175,-1.3623685271765476,-0.288694859197432,0.4037242362244743,21.43721944011748,13.920419058319052,6.226507352131335
11488,2024 10 17,09:01:35.721,0.407854,-0.424643,-0.622519,-0.515561,-0.987823,-0.3755,-0.054201,20.812988,21.240234,53.833008,0,0,0.4959150789286143,-0.4562514889885006,-0.54894814154431,-0.4823038167359849,-1.058192827203326,0.0386228471899197,0.0012643081250382,-5.940462411087073,34.72925527587341,74.36468111944872,-0.653033,-0.250705,0.636292,-0.325311,-0.969756,0.019044,0.059572,14.953613,25.512695,-6.713867,0,0,-0.6174417746264648,-0.2253539655138196,0.6815531674563947,-0.2961850048265663,-1.34273790081772,-0.2733079162375603,0.3865166244132506,21.1130391181116,14.5000328554031,5.579488634524768
11489,2024 10 17,09:01:35.729,0.405842,-0.42213,-0.625771,-0.515275,-0.95999,-0.397473,-0.028809,23.193359,15.441895,46.020508,0,0,0.4914114249821836,-0.4545454145390756,-0.5527892844670945,-0.4839523758991857,-1.0532826858431594,0.0168180548304237,-0.0002393572812136,-4.483771340532718,33.76488726207974,72.94747246347627,-0.654221,-0.251085,0.634761,-0.325621,-1.000519,0.090823,0.026856,5.79834,17.39502,-9.643555,0,0,-0.6192807358951414,-0.2266405172381286,0.679213559083575,-0.2976568045852379,-1.325626955776834,-0.2551013704256823,0.368533593192588,20.34730416220602,14.644782212632943,4.81833645279853
11490,2024 10 17,09:01:35.737,0.404465,-0.419791,-0.628736,-0.51466,-0.935575,-0.429701,-0.031739,26.794434,13.122559,38.085938,0,0,0.4870641037330744,-0.4528076938121218,-0.5565866202437398,-0.4854877571042264,-1.0473973015510014,-0.0055078979110974,-0.0018143394171529,-2.919861073506082,32.73277084897575,71.20439574030246,-0.655217,-0.251579,0.633519,-0.325656,-1.013703,0.06592,0.043947,4.394531,14.953613,-11.169434,0,0,-0.6210775491003843,-0.2278874413762222,0.6769288311293962,-0.299056764355976,-1.3100307579879922,-0.2390503019043982,0.3523042635329586,19.54966550409572,14.660223752001295,4.018947930158603
11491,2024 10 17,09:01:35.746,0.403746,-0.417534,-0.631473,-0.51371,-0.942412,-0.471206,-0.037599,31.066895,9.155273,31.555176,0,0,0.4828981985464207,-0.4510440091215157,-0.5603309392315529,-0.486898869249015,-1.0421480364734512,-0.0287928030155425,-0.0036035724462952,-1.2205232698307782,31.55389595652696,69.22193475328733,-0.655217,-0.251579,0.633519,-0.325656,-1.013703,0.06592,0.043947,4.394531,14.953613,-11.169434,0,0,-0.622784521645365,-0.229072019307411,0.6747583395729263,-0.3003867261381772,-1.2952143700885923,-0.2238017868091782,0.3368864003563106,18.79190877889093,14.67489321440123,3.259528833650673
11492,2024 10 17,09:01:35.754,0.403746,-0.417534,-0.631473,-0.51371,-0.942412,-0.471206,-0.037599,31.066895,9.155273,31.555176,0,0,0.4789405886190996,-0.44936850866544,-0.5638880422699752,-0.4882394257865643,-1.0371612346497787,-0.0509134628647654,-0.0053033438239805,0.3938476436607607,30.43396480870061,67.33859681562296,-0.656244,-0.252047,0.632412,-0.325379,-1.020051,0.056642,0.018555,2.258301,12.390137,-12.878418,0,0,-0.6244574955630967,-0.2302207683420405,0.6726410225942799,-0.3016363398312683,-1.2814562015841628,-0.2097795974687193,0.3209698303384951,17.965228389946386,14.560655403681167,2.45263149196814
11493,2024 10 17,09:01:35.762,0.403808,-0.41506,-0.634069,-0.512466,-0.897,-0.547868,-0.035646,37.353516,1.89209,27.46582,0,0,0.4751839591881446,-0.4476530832321679,-0.5673970901564764,-0.4894507544972361,-1.0301531729172897,-0.0757611897215271,-0.0068204766327815,2.241831061477723,29.00687106826557,65.3449579748418,-0.657225,-0.252571,0.631434,-0.324891,-0.991241,0.029786,0.074221,1.220703,11.413574,-13.916016,0,0,-0.6260958707849418,-0.2313382799249384,0.6705806714645659,-0.302799072839705,-1.2669454415049546,-0.1978013175952833,0.3086323888215703,17.128002120449064,14.40330133349711,1.634199117369732
11494,2024 10 17,09:01:35.771,0.404576,-0.41214,-0.636809,-0.510815,-0.849147,-0.652852,-0.021973,47.607422,-1.647949,26.794434,0,0,0.4716535612287374,-0.4458774290705595,-0.5708676856486526,-0.4905189667723743,-1.0211028642714253,-0.1046157302354507,-0.0075781028011424,4.510110608403837,27.474130064852297,63.41743177609971,-0.658216,-0.25298,0.630629,-0.324128,-0.993194,0.044435,0.04004,-2.868652,8.422852,-14.648438,0,0,-0.6277018772456947,-0.2324203659286915,0.6685830878913376,-0.3038655191977197,-1.253257869429707,-0.1856895017155192,0.2952027693804918,16.12816941442661,14.104278866822254,0.8200672615012452
11495,2024 10 17,09:01:35.779,0.405814,-0.408587,-0.640131,-0.508531,-0.902371,-0.690451,-0.028321,61.218262,-3.479004,29.35791,0,0,0.4683615831673005,-0.4440129076170315,-0.57433085136622,-0.4914195684337555,-1.015166271057854,-0.1339074937236782,-0.0086152476610853,7.345518177983645,25.92647336160968,61.71445568729472,-0.659084,-0.253343,0.630122,-0.323067,-1.010773,0.057619,0.039064,-6.774902,5.310059,-15.563965,0,0,-0.62927098338341,-0.2334664976322569,0.6666600334967706,-0.3048255932378337,-1.2411336259582215,-0.1735240766297432,0.2823958309114672,14.983015843705276,13.66456787348114,0.0008656484261829
11496,2024 10 17,09:01:35.787,0.407891,-0.404305,-0.643676,-0.50581,-0.986358,-0.711936,-0.072756,72.387695,-12.756348,27.282715,0,0,0.4653380540089355,-0.44202751223618,-0.5777981087979089,-0.4921390900120677,-1.0137258575049612,-0.1628089190374943,-0.011822285278031,10.597627019084465,23.992332293529195,59.99286865292999,-0.659942,-0.25367,0.629726,-0.321827,-1.012238,0.041993,0.032228,-8.117676,4.272461,-16.296387,0,0,-0.6308045342142395,-0.2344766727506441,0.664813331821932,-0.305675663575942,-1.2296888446603105,-0.162748222798256,0.2698874393658938,13.827981251520011,13.194962529807082,-0.8139969839951262
11497,2024 10 17,09:01:35.796,0.411486,-0.399624,-0.646679,-0.502779,-0.95706,-0.745628,-0.073733,79.284668,-28.198242,15.380859,0,0,0.4626454513084887,-0.4399073366243709,-0.5812421533580134,-0.4926710855114643,-1.010892564629713,-0.1919498730856196,-0.0149178210141294,14.03197906813024,21.382803578852734,57.76226817028349,-0.659942,-0.25367,0.629726,-0.321827,-1.012238,0.041993,0.032228,-8.117676,4.272461,-16.296387,0,0,-0.6322614075035276,-0.2354363391131119,0.6630589652308354,-0.3064832303971448,-1.2188163024272949,-0.1525111616583432,0.2580044673975991,12.73069838894401,12.748837453316728,-1.58811648479537
11498,2024 10 17,09:01:35.804,0.411486,-0.399624,-0.646679,-0.502779,-0.95706,-0.745628,-0.073733,79.284668,-28.198242,15.380859,0,0,0.4600874787430642,-0.4378931697931523,-0.5845139956901126,-0.4931764812358911,-1.0082009363982274,-0.2196337794313386,-0.017858579963423,17.294613514723725,18.90375129991009,55.6431977117693,-0.660772,-0.253982,0.629478,-0.320361,-1.010285,0.04297,0.030274,-10.009766,2.01416,-17.211914,0,0,-0.6336869371283512,-0.2363636221574563,0.6613799169692935,-0.3071771188772876,-1.20838973730593,-0.142737103575426,0.2466179440277191,11.593675169496809,12.21210358065089,-2.3693063605556013
11499,2024 10 17,09:01:35.812,0.416476,-0.395169,-0.648873,-0.499352,-0.912625,-0.693869,-0.081545,81.604004,-36.743164,-0.305176,0,0,0.457906904805911,-0.4357569613034946,-0.5877319459056071,-0.4934852571740964,-1.0034221395783158,-0.2433455404597717,-0.0210429009652518,20.51008303898754,16.121405534914587,52.84577902618084,-0.661564,-0.254293,0.629336,-0.318753,-1.00882,0.048341,0.039064,-11.230469,1.037598,-17.883301,0,0,-0.6350807902719335,-0.2372600910495834,0.6597777211208289,-0.3077559129334232,-1.1984112504406337,-0.1331831983966547,0.2362402468263331,10.452467961021968,11.653378301618345,-3.1450060925278214
11500,2024 10 17,09:01:35.821,0.424414,-0.396706,-0.654448,-0.483937,-3.358989,0.216315,-2.888272,243.469238,112.426758,-173.522949,1,0,0.4562322595656154,-0.4338044132383199,-0.5910677486103267,-0.4930078443153916,-1.1212004825994,-0.2203625134367831,-0.1644043559169892,31.65804078703816,20.93667315816886,41.52734262487179,-0.662349,-0.254643,0.629168,-0.317174,-1.006867,0.037599,0.039552,-10.009766,1.159668,-17.883301,0,0,-0.6364442007583369,-0.2381292364971042,0.6582472350647874,-0.308226817286752,-1.1888340379186015,-0.124644088476822,0.2264058344850164,9.429356262970868,11.128692786537426,-3.88192083790143
11501,2024 10 17,09:01:35.829,0.447451,-0.391657,-0.641119,-0.485139,0.318857,-0.236824,1.535203,33.508301,-343.261719,-143.432617,0,0,0.4557931965873347,-0.4316970425764039,-0.5935703111798103,-0.492614402099622,-1.04919760846943,-0.2211855877649439,-0.0794239881211397,31.75055379768625,2.726753550260412,32.2793446436282,-0.663133,-0.255037,0.628971,-0.315605,-0.995636,0.052248,0.051759,-9.70459,1.281738,-18.188477,0,0,-0.63777864072042,-0.238974624672249,0.656783423311548,-0.3085957264224144,-1.1791741360226715,-0.1157994840529809,0.2176734927607656,8.472658949822325,10.636345047210554,-4.597248646006358
11502,2024 10 17,09:01:35.837,0.463884,-0.393125,-0.637788,-0.472747,-1.0347,1.55913,-1.260781,85.998535,21.728516,-172.607422,0,0,0.4561977367579679,-0.4297684404475836,-0.5957811956208197,-0.4916210319946409,-1.0484727280459585,-0.1321698083766967,-0.1384918387150828,34.46295285780194,3.676841672747392,22.035006311446782,-0.663904,-0.255494,0.628696,-0.314158,-0.994171,0.047365,0.060549,-7.873535,1.953125,-17.822266,0,0,-0.6390849086843989,-0.2398005934386366,0.6553790521459706,-0.3088738401012937,-1.169923979221538,-0.1076412598503318,0.2098172681227273,7.655349252331208,10.202184044850028,-5.25849951370604
11503,2024 10 17,09:01:35.846,0.47251,-0.399638,-0.630286,-0.468788,-1.589404,0.722678,1.364299,15.74707,-96.923828,-155.456543,0,0,0.4570133499200695,-0.4282619184252044,-0.5975064358397787,-0.4904793803949088,-1.0755192916436604,-0.0894274179578618,-0.0633522967793286,33.52715871491184,-1.3531918108899783,13.160428845874446,-0.66465,-0.256054,0.628334,-0.312847,-0.997101,0.041505,0.054689,-5.554199,2.380371,-17.63916,0,0,-0.640363163250179,-0.2406132637667047,0.654026799538672,-0.309072498096229,-1.1612828302604608,-0.1001839468578152,0.2020608547165909,6.994871839714648,9.811093392607525,-5.877532538020738
11504,2024 10 17,09:01:35.854,0.47251,-0.399638,-0.630286,-0.468788,-1.589404,0.722678,1.364299,15.74707,-96.923828,-155.456543,0,0,0.457788182424066,-0.4268307225039442,-0.5991454140477898,-0.4893948113751634,-1.1012135270614771,-0.0488221470599687,0.0080302680596377,32.63815427916625,-6.13172362034548,4.729580253580721,-0.66465,-0.256054,0.628334,-0.312847,-0.997101,0.041505,0.054689,-5.554199,2.380371,-17.63916,0,0,-0.64157750508767,-0.2413853005783695,0.6527421595617384,-0.3092612231914176,-1.1530737387474377,-0.0930994995149245,0.1946922619807614,6.367418297728915,9.439557272977147,-6.465613911119701
11505,2024 10 17,09:01:35.862,0.480939,-0.406219,-0.619661,-0.468726,-1.520554,-0.156255,-0.819361,-81.726074,-76.843262,-138.48877,0,0,0.4589457233028627,-0.425800136378747,-0.6001711933454003,-0.4883613708064052,-1.1221805507084035,-0.0541937897069703,-0.0333392953433441,26.919942865207936,-9.667300539328206,-2.4313372590983158,-0.665369,-0.256726,0.627895,-0.311646,-0.998077,0.033692,0.064455,-3.173828,2.807617,-17.700195,0,0,-0.6427670798332864,-0.242152335549451,0.6514998015836515,-0.3093804620318466,-1.1453239018100656,-0.0867599245391782,0.1881803988817233,5.890355982842468,9.107960259328287,-7.027342965563715
11506,2024 10 17,09:01:35.871,0.491158,-0.410067,-0.607766,-0.47035,-1.213416,-0.063967,0.219245,-44.067383,-131.225586,-119.628906,0,0,0.4605563371377196,-0.4250134795598096,-0.6005509336781303,-0.4874608022660849,-1.1267423231729834,-0.0546824502216218,-0.0207100805761769,23.370576571947534,-15.745214812361796,-8.2912156961434,-0.666082,-0.25744,0.627406,-0.31052,-0.953154,0.024415,0.087405,-2.746582,2.929688,-17.76123,0,0,-0.643932825841622,-0.2429167187719784,0.6502951115044688,-0.3094374389302542,-1.1357154067195625,-0.0812011783122193,0.1831416289376371,5.458509083700345,8.799046646361875,-7.564037317285529
11507,2024 10 17,09:01:35.879,0.498594,-0.412213,-0.598329,-0.472744,-1.057649,-0.218268,-0.347179,-37.902832,-95.88623,-72.08252,0,0,0.4624582202808336,-0.4243734555818191,-0.6004398369942238,-0.4867249621527807,-1.1232876570143342,-0.0628617277105407,-0.037033526547368,20.30690614335016,-19.752265571743703,-11.48078091133623,-0.666696,-0.258175,0.627036,-0.309334,-0.970244,0.028809,0.084964,-3.479004,0.183105,-17.578125,0,0,-0.6450709845495409,-0.2436796328333795,0.6491321559292454,-0.3094322669837415,-1.127441836383584,-0.0757006693966083,0.1782327474907552,5.011633429515327,8.36824956404378,-8.064741701421251
11508,2024 10 17,09:01:35.887,0.504289,-0.412432,-0.591431,-0.475186,-0.940947,0.167486,0.14893,-30.456543,-83.068848,-44.189453,0,0,0.464549759266792,-0.4237763828027281,-0.5999893951445125,-0.4861480140451416,-1.1141706241636171,-0.0513443413250136,-0.0277353502199996,17.768733686182653,-22.918094693156515,-13.11621451576942,-0.667208,-0.258975,0.62677,-0.308097,-0.984405,0.037599,0.090335,-3.417969,-1.159668,-17.883301,0,0,-0.6461778353220639,-0.2444444011917105,0.6480140481327832,-0.3093655036345545,-1.120289994564405,-0.0700356859267779,0.1738378601162175,4.59015330803956,7.89185368584159,-8.55566966635019
11509,2024 10 17,09:01:35.896,0.508504,-0.412872,-0.585429,-0.477737,-0.921415,0.17481,-0.064455,-30.944824,-72.44873,-39.855957,0,0,0.4667474713034523,-0.4232311636625917,-0.5992613753872869,-0.4857274633428845,-1.1045328429554364,-0.040036624258763,-0.0295713327089996,15.33305580187352,-25.39462645849869,-14.453201639980948,-0.667642,-0.259899,0.626506,-0.306916,-0.992218,0.021485,0.094729,-1.342773,-1.953125,-18.188477,0,0,-0.6472510435559606,-0.245217131132125,0.646938645726144,-0.3092430284528268,-1.1138863948361846,-0.065459651630439,0.1698824171104066,4.293506992637582,7.39960475154951,-9.03731003303268
11510,2024 10 17,09:01:35.904,0.508504,-0.412872,-0.585429,-0.477737,-0.921415,0.17481,-0.064455,-30.944824,-72.44873,-39.855957,0,0,0.4688352977382797,-0.4227132054794621,-0.5985697566179224,-0.4853279401757402,-1.0953769508076645,-0.0292942930458248,-0.0313155160735496,13.019161811779842,-27.74733163557375,-15.7233394079819,-0.667642,-0.259899,0.626506,-0.306916,-0.992218,0.021485,0.094729,-1.342773,-1.953125,-18.188477,0,0,-0.6482705913781626,-0.2459512245755187,0.6459170134398368,-0.3091266770301855,-1.1078029750943752,-0.0611124190489171,0.1661247462548862,4.011692993005702,6.931968263972034,-9.494868381381044
11511,2024 10 17,09:01:35.912,0.513109,-0.413071,-0.579514,-0.479849,-0.93997,0.190435,-0.02295,-25.512695,-73.913574,-43.029785,0,0,0.4710489828513657,-0.422231095205489,-0.5976169687870263,-0.4850539931669532,-1.087606603267281,-0.0183078283935336,-0.0308972402698722,11.092568971190849,-30.05564375379506,-17.088661687582803,-0.6681,-0.26087,0.62615,-0.305818,-0.992218,0.030763,0.061037,0.0,-0.488281,-17.944336,0,0,-0.6492620618092544,-0.2466971633467428,0.6449286627678449,-0.3089612431786762,-1.1020237263396564,-0.0565186480964712,0.1608703589421419,3.811108343355417,6.560955800773432,-9.917341762311992
11512,2024 10 17,09:01:35.921,0.517619,-0.413226,-0.573458,-0.482142,-0.992706,0.229011,0.146001,-30.456543,-76.35498,-39.794922,0,0,0.4733774837087974,-0.4217808404452145,-0.596409020347675,-0.4849083935086055,-1.082861573103917,-0.0059418869738569,-0.0220523282563786,9.015113372631308,-32.370610566105306,-18.223974703203663,-0.668441,-0.262004,0.6258,-0.304821,-1.00589,0.030274,0.113773,1.953125,-2.319336,-18.188477,0,0,-0.6502210087187916,-0.2474625051794056,0.6439722296294527,-0.3087542310197423,-1.0972170400226735,-0.0521790156916476,0.1585154909950348,3.7182091761876457,6.116941210734761,-10.33089852419639
11513,2024 10 17,09:01:35.929,0.521115,-0.413596,-0.566726,-0.486003,-0.9888,0.101077,0.084475,-55.114746,-81.176758,-28.015137,0,0,0.4757643595233575,-0.4213715984229538,-0.5949248693302912,-0.4849631238331752,-1.078158494448721,-0.000590942625164,-0.0167259618435596,5.8086204039997416,-34.81091793780004,-18.71353281804348,-0.668844,-0.263213,0.625244,-0.304034,-1.012726,0.01709,0.079592,5.249023,1.464844,-17.63916,0,0,-0.651152158282852,-0.2482500299204353,0.64303581814798,-0.3085182194687552,-1.0929924880215398,-0.0487155649070652,0.154569316445283,3.794749867378264,5.884336350198023,-10.696311597986572
11514,2024 10 17,09:01:35.937,0.523671,-0.413752,-0.559564,-0.491393,-0.800806,-0.007813,-0.239265,-64.63623,-83.862305,-13.305664,0,0,0.4781596915471896,-0.4209906185018061,-0.5931568258637766,-0.4852846176415165,-1.064290869726285,-0.0009520454939058,-0.0278529137513816,2.286377883799754,-37.26348729091004,-18.443139377141307,-0.66929,-0.264462,0.62456,-0.303374,-1.050813,0.028809,0.064455,6.835938,2.01416,-17.63916,0,0,-0.6520590503687094,-0.2490606284244135,0.642112027240581,-0.3082610084953174,-1.0908835136204629,-0.044839336661712,0.1500636006230189,3.94680927400935,5.690827532688122,-11.043454018087242
11515,2024 10 17,09:01:35.946,0.525505,-0.413498,-0.553916,-0.496025,-0.801294,0.080081,-0.250496,-44.677734,-61.645508,-6.04248,0,0,0.4805269569698301,-0.4206159875767157,-0.5911947845705878,-0.4858216367594406,-1.0511410262399707,0.0030996067807894,-0.0389850680638126,-0.0618277103902338,-38.482588326364535,-17.82310640828424,-0.669817,-0.265825,0.623639,-0.302913,-1.043977,-0.004883,0.024415,9.58252,6.469727,-17.944336,0,0,-0.6529469478502739,-0.2498988470031928,0.6411883758785519,-0.3079936080705516,-1.0885381879394396,-0.0428415198286264,0.1437811705918679,4.228594810308882,5.729772506053715,-11.38849811718288
11516,2024 10 17,09:01:35.954,0.526645,-0.413268,-0.549923,-0.49944,-0.875515,0.111332,-0.133305,-36.010742,-43.212891,-2.685547,0,0,0.4828328591213386,-0.4202485881978799,-0.5891311953420585,-0.4865025549214685,-1.042359724927972,0.0085112264417499,-0.0437010646606219,-1.8592734248707223,-38.71910346004631,-17.066228437870027,-0.669817,-0.265825,0.623639,-0.302913,-1.043977,-0.004883,0.024415,9.58252,6.469727,-17.944336,0,0,-0.6537904504577601,-0.2506951546530332,0.6403109070846243,-0.307739577667024,-1.0863101285424674,-0.040943593837195,0.1378128620622745,4.496291069793438,5.766770230751028,-11.716290011323736
11517,2024 10 17,09:01:35.962,0.526645,-0.413268,-0.549923,-0.49944,-0.875515,0.111332,-0.133305,-36.010742,-43.212891,-2.685547,0,0,0.4850234661652717,-0.4198995587879859,-0.5871707855749556,-0.4871494271753951,-1.0340174886815734,0.0136522651196624,-0.0481812614275908,-3.5668468536271862,-38.94379283704399,-16.347194365976527,-0.670536,-0.267158,0.622443,-0.302611,-1.022004,0.035157,0.08301,10.498047,8.605957,-17.944336,0,0,-0.654627727934872,-0.2515182969203815,0.6394175117303931,-0.3074831487836728,-1.083094822115344,-0.0371385641453353,0.1350727189591608,4.796378866303765,5.9087295692134765,-12.027692310757551
11518,2024 10 17,09:01:35.971,0.527126,-0.413267,-0.547062,-0.502067,-0.853053,0.059572,-0.192877,-28.564453,-29.47998,0.183105,0,0,0.4871285928570081,-0.4195679308485867,-0.5851653462962079,-0.4878953058166254,-1.0249692642474948,0.0159482518636793,-0.0554160483562113,-4.816727160945827,-38.47060219519179,-15.520679397677702,-0.671173,-0.268682,0.621192,-0.302419,-1.061556,0.061037,0.125492,12.634277,9.155273,-18.981934,0,0,-0.6554549915381284,-0.2523764820743624,0.6385062361438734,-0.3072299413444892,-1.0820178810095769,-0.0322297859380685,0.1345936830112027,5.188273772988577,6.071056740752802,-12.375404395219674
11519,2024 10 17,09:01:35.979,0.527595,-0.413103,-0.545386,-0.503531,-0.887234,0.152348,-0.081057,-11.108398,-16.296387,-0.732422,0,0,0.4891519132141576,-0.4192446843061573,-0.5831763789813975,-0.4886770905257941,-1.01808250103512,0.0227682392704953,-0.0566980959384007,-5.131310702898535,-37.3618914354322,-14.781266527793816,-0.672061,-0.270332,0.619499,-0.302449,-1.070345,0.024415,0.028809,15.74707,14.526367,-20.629883,0,0,-0.6562852919612219,-0.2532742579706443,0.6375558743366796,-0.3069908942772648,-1.081434236959098,-0.0293975466411651,0.1293044488606426,5.716213584339148,6.493822253715161,-12.78812832545869
11520,2024 10 17,09:01:35.987,0.527834,-0.413109,-0.544605,-0.50412,-0.984893,0.163091,-0.043458,-6.713867,-8.117676,-2.380371,0,0,0.4910860175534497,-0.4189379000908494,-0.5812478100323276,-0.4894492359995044,-1.016423025983364,0.0297843773069705,-0.0560360911414807,-5.210438517753608,-35.89968066366058,-14.161221751404124,-0.673071,-0.272094,0.617708,-0.302288,-1.05179,0.025391,0.105472,15.625,14.282227,-23.803711,0,0,-0.6571245773631608,-0.2542152450721121,0.6365634806198456,-0.3067557495634015,-1.0799520251111432,-0.0266581193091068,0.1281128264176105,6.21165290512219,6.883242491029403,-13.338907459185757
11521,2024 10 17,09:01:35.996,0.528321,-0.413093,-0.544006,-0.504271,-0.914579,0.169927,-0.100589,-0.12207,-6.652832,-6.04248,0,0,0.4929477666757773,-0.4186456550863069,-0.5793857195307112,-0.4901903241995291,-1.011330824684196,0.036791508441622,-0.0582637365844066,-4.956020091865927,-34.43733823047756,-13.75528466383392,-0.67416,-0.274055,0.615881,-0.301817,-1.085971,0.018067,0.067873,13.73291,13.305664,-28.442383,0,0,-0.6579763484950026,-0.2552072328185064,0.6355293565888532,-0.3065088120852314,-1.080252973855586,-0.0244218633436515,0.1251008350967299,6.58771575986608,7.204363566477933,-14.094081236226469
11522,2024 10 17,09:01:36.004,0.528951,-0.413197,-0.543773,-0.503775,-0.909207,0.168462,-0.114261,4.943848,-0.732422,-9.399414,0,0,0.4947479283419884,-0.4183732223319916,-0.5776050835541756,-0.4908695579895526,-1.006224633449986,0.0433750330195409,-0.0610635997551863,-4.46102668727263,-32.75209241895367,-13.537491130642222,-0.67416,-0.274055,0.615881,-0.301817,-1.085971,0.018067,0.067873,13.73291,13.305664,-28.442383,0,0,-0.6587855310702524,-0.2561496211775811,0.6345469387594106,-0.3062742214809698,-1.0805388751628064,-0.0222974201764689,0.1222394433418934,6.944975471872775,7.509428588154036,-14.811496324415144
11523,2024 10 17,09:01:36.012,0.528951,-0.413197,-0.543773,-0.503775,-0.909207,0.168462,-0.114261,4.943848,-0.732422,-9.399414,0,0,0.4964580819248889,-0.4181144112153919,-0.5759134793764669,-0.4915148300900749,-1.0013737517774866,0.0496293813685639,-0.063723469767427,-3.990782952908999,-31.15110889800599,-13.33058727411011,-0.675299,-0.276288,0.614116,-0.300828,-1.112339,0.010743,0.070803,13.305664,9.94873,-34.484863,0,0,-0.6596112045167397,-0.257156540118702,0.6335253918214401,-0.3060019104069213,-1.082128881404666,-0.0206453991676455,0.1196676211747987,7.263009898279136,7.631393658746334,-15.795164658194386
11524,2024 10 17,09:01:36.021,0.529554,-0.41346,-0.543872,-0.502818,-0.917997,0.160649,-0.084475,8.850098,4.577637,-11.169434,0,0,0.4981128778286444,-0.4178816906546223,-0.5743114054076436,-0.4920799885855712,-0.997204914188612,0.0551803623001357,-0.0647610462790556,-3.348738905263549,-29.364671603105688,-13.222529610404605,-0.676473,-0.278861,0.612509,-0.299088,-1.153844,0.012207,0.070803,8.605957,5.92041,-42.785645,0,0,-0.6604542942909026,-0.2582417631127669,0.632474572230368,-0.3056562148865752,-1.0857146373344326,-0.0190027792092632,0.1172243901160588,7.330157253365178,7.545844475809017,-17.144688675284666
11525,2024 10 17,09:01:36.029,0.530055,-0.413841,-0.544259,-0.501558,-0.938994,0.158696,-0.081057,10.009766,8.117676,-11.291504,0,0,0.4997099839372122,-0.4176796561218912,-0.5728087851372614,-0.4925538891562926,-0.9942943684791816,0.0603561441851289,-0.0655758439651028,-2.680813660000371,-27.4905542229504,-13.125978329884374,-0.677877,-0.28172,0.610851,-0.29661,-1.198279,0.02002,0.043947,4.455566,4.272461,-52.55127,0,0,-0.6613254295763574,-0.2594156749571286,0.6313933936188496,-0.3052039041422464,-1.0913428554677111,-0.0170516402488,0.1135605206102559,7.186427690696919,7.382175302018566,-18.915017741520437
11526,2024 10 17,09:01:36.037,0.530526,-0.414261,-0.544693,-0.50024,-0.976592,0.159185,-0.036134,10.314941,8.300781,-11.413574,0,0,0.5012507847403516,-0.4175087233157966,-0.5714029958803983,-0.4929381946984779,-0.9934092500552224,0.0652975869758724,-0.0641037517668477,-2.031025927000353,-25.70098746180288,-13.040358113390155,-0.679557,-0.284831,0.609214,-0.293141,-1.22953,-0.014161,0.07178,-0.915527,3.417969,-62.316895,0,0,-0.6622370080975395,-0.2606864412092721,0.6302844239379071,-0.3046007589351341,-1.0982522126943255,-0.01690710823636,0.111471494579743,6.7813299561620735,7.183964986917637,-21.08511160444441
11527,2024 10 17,09:01:36.046,0.531115,-0.414582,-0.545049,-0.49896,-0.984893,0.161626,-0.02588,10.559082,5.615234,-11.71875,0,0,0.5027439955033339,-0.4173623871500068,-0.5700852960863784,-0.493239284963554,-0.9929834375524612,0.0701140076270788,-0.0621925641785053,-1.4015205306503349,-24.135176388712733,-12.974277707720647,-0.681693,-0.288162,0.607304,-0.288857,-1.25248,-0.01709,0.030763,-6.286621,4.760742,-73.242188,0,0,-0.6632098076926626,-0.2620602191488085,0.6291354027410117,-0.3038135709883774,-1.105963602059609,-0.016916252824542,0.1074360698507559,6.12793240835397,7.062803837571755,-23.692965424222187
11528,2024 10 17,09:01:36.054,0.5318,-0.414837,-0.545227,-0.497821,-0.96292,0.167974,-0.057619,8.789063,2.929688,-11.962891,0,0,0.5041967957281672,-0.4172361177925064,-0.5688423812820594,-0.4934683707153763,-0.9914802656748382,0.0750070072457248,-0.06196388596958,-0.8919913541178179,-22.781933169277096,-12.923708372334614,-0.681693,-0.288162,0.607304,-0.288857,-1.25248,-0.01709,0.030763,-6.286621,4.760742,-73.242188,0,0,-0.6641339673080294,-0.263365308191368,0.628043832603961,-0.3030657424389585,-1.1132894219566285,-0.0169249401833149,0.1036024163582181,5.507204737936271,6.947700745693166,-26.17042655301108
11529,2024 10 17,09:01:36.062,0.5318,-0.414837,-0.545227,-0.497821,-0.96292,0.167974,-0.057619,8.789063,2.929688,-11.962891,0,0,0.5055769559417589,-0.4171161619028811,-0.5676616122179564,-0.4936860021796075,-0.9900522523910962,0.0796553568834386,-0.061746641671101,-0.4079386364119269,-21.49635211081324,-12.875667503717883,-0.684136,-0.291801,0.605261,-0.28367,-1.257851,0.014161,0.08887,-8.728027,4.333496,-83.068848,0,0,-0.6651340689426279,-0.2647870927817997,0.6269046909737629,-0.3020959553170106,-1.1205175008587969,-0.0153706431741492,0.1028657955403072,4.795443151039457,6.816990508408507,-29.01534762536052
11530,2024 10 17,09:01:36.071,0.532488,-0.415106,-0.545214,-0.496875,-0.966338,0.172857,-0.061525,6.835938,1.281738,-11.71875,0,0,0.506922508144671,-0.417015653807737,-0.5665392316070585,-0.4938454520706272,-0.9888665397715414,0.0843154390392666,-0.061735559587546,-0.0457448045913305,-20.35744760527258,-12.81782162853199,-0.686949,-0.295814,0.602614,-0.278303,-1.35551,0.051271,0.100101,-5.981445,10.986328,-90.515137,0,0,-0.6662248154954966,-0.2663384381427097,0.6256901564250746,-0.30090630755116,-1.132267125815857,-0.0120385610154417,0.1027275557632918,4.256598743487484,7.0254573829880815,-32.09033709409249
11531,2024 10 17,09:01:36.079,0.533208,-0.415357,-0.545007,-0.496121,-0.95999,0.169439,-0.061037,4.943848,-1.342773,-11.71875,0,0,0.5082367827374374,-0.4169327211173501,-0.5654626200267056,-0.4939592294670958,-0.9874227127829642,0.0885716170873033,-0.0617006316081687,0.2037348356382359,-19.40671387500895,-12.762868047105387,-0.690132,-0.300428,0.599354,-0.272463,-1.376019,0.066408,0.126469,-3.662109,14.343262,-103.149414,0,0,-0.6674201747207218,-0.2680429162355742,0.6243733486038209,-0.2994841421736021,-1.144454719525064,-0.0081162329646696,0.1039146279751272,3.860663356313109,7.391347613838677,-35.64329093938786
11532,2024 10 17,09:01:36.087,0.53393,-0.415615,-0.544625,-0.495546,-0.947783,0.165532,-0.063967,2.868652,-2.685547,-11.413574,0,0,0.5095214436005655,-0.4168668350614826,-0.5644207390253703,-0.494038567993741,-0.985440727143816,0.0924196362329381,-0.0618139500277602,0.3369806938563241,-18.570655531258502,-12.69540334475012,-0.693802,-0.305731,0.595268,-0.266127,-1.416059,0.092288,0.103519,-0.915527,20.935059,-116.394043,0,0,-0.6687392659846856,-0.2699273204237954,0.6229180811736298,-0.2978162850649219,-1.158034933548811,-0.0030960213164361,0.1038948465763708,3.6218538384974535,8.068533183146743,-39.68082854241846
11533,2024 10 17,09:01:36.096,0.53464,-0.41592,-0.544137,-0.495061,-0.961455,0.165044,-0.052248,1.403809,-3.540039,-11.84082,0,0,0.5107773714205373,-0.4168194933084084,-0.5634065520741017,-0.4940896895940539,-0.9842414407866252,0.0960508544212912,-0.0613356525263722,0.3903221091635079,-17.81912470469558,-12.652674177512612,-0.697884,-0.31192,0.590204,-0.259467,-1.477096,0.088382,0.113773,5.615234,27.893066,-130.371094,0,0,-0.6701965026854513,-0.2720269544026056,0.6212823771149483,-0.2958988208116758,-1.1739879868713703,0.0014778797493856,0.1043887542475523,3.72152284657258,9.059759823989406,-44.21534181529754
11534,2024 10 17,09:01:36.104,0.535395,-0.416276,-0.543559,-0.494582,-0.951201,0.15772,-0.064943,0.793457,-4.02832,-12.756348,0,0,0.5120082528495103,-0.4167923186429879,-0.5624141744703967,-0.4941143051143513,-0.9825894187472938,0.0991343117002267,-0.0615160199000536,0.4104788537053325,-17.1295844694608,-12.65785786863698,-0.697884,-0.31192,0.590204,-0.259467,-1.477096,0.088382,0.113773,5.615234,27.893066,-130.371094,0,0,-0.6715808775511787,-0.2740216066824754,0.6197284582592009,-0.294077229771092,-1.189143387527802,0.0058230857619163,0.1048579665351747,3.816208404243951,10.001425132789937,-48.52312942453266
11535,2024 10 17,09:01:36.112,0.535395,-0.416276,-0.543559,-0.494582,-0.951201,0.15772,-0.064943,0.793457,-4.02832,-12.756348,0,0,0.5131775902070348,-0.4167665027108385,-0.5614714157468768,-0.4941376898586337,-0.981019997809929,0.1020635961152153,-0.0616873689050509,0.4296277610200658,-16.474521245987756,-12.662782375205133,-0.702374,-0.319069,0.58429,-0.251935,-1.514206,0.106449,0.094729,8.728027,30.395508,-149.536133,0,0,-0.6731205336736197,-0.2762739763483516,0.6179565353462408,-0.2919701182825374,-1.205396518151412,0.0108543814738205,0.1043515182084159,4.061799334031753,11.021129276150438,-53.57377960330603
11536,2024 10 17,09:01:36.121,0.536162,-0.416687,-0.54292,-0.494106,-0.933622,0.149907,-0.067873,0.244141,-3.90625,-13.427734,0,0,0.514326810696683,-0.4167625275752966,-0.5605438449595329,-0.494136105365702,-0.9786500979194326,0.1044557663094545,-0.0619966504597984,0.4203534229690625,-15.846107683688366,-12.701029956444874,-0.707232,-0.327333,0.577453,-0.243359,-1.574267,0.124516,0.06299,11.291504,32.836914,-171.081543,0,0,-0.6748261069899386,-0.2788269275309339,0.6159313585789288,-0.2895395623684105,-1.2238400422438414,0.0165374624001295,0.1022834422979951,4.423284567330165,12.111918512342914,-59.44916777314073
11537,2024 10 17,09:01:36.129,0.5369,-0.417157,-0.542334,-0.49355,-0.940458,0.151372,-0.067873,0.915527,-2.685547,-13.73291,0,0,0.5154554701618488,-0.4167822511965317,-0.5596333527115562,-0.4941068000974169,-0.9767404930234608,0.1068015779939818,-0.0622904679368084,0.4451121018206094,-15.188079649503948,-12.752623958622628,-0.711901,-0.337027,0.570454,-0.232792,-1.692434,0.169927,0.104007,11.962891,17.333984,-198.486328,0,0,-0.6766798516404416,-0.2817369311543872,0.6136574906499823,-0.2867021842499899,-1.2472697401316493,0.024206939280123,0.1023696201830954,4.800264888963656,12.373021786725769,-66.40102578448369
11538,2024 10 17,09:01:36.137,0.537609,-0.417654,-0.541762,-0.492986,-0.936552,0.155278,-0.075198,0.488281,-2.01416,-13.73291,0,0,0.5165631466537564,-0.4168258386367051,-0.5587397850759783,-0.494050760092546,-0.9747310683722876,0.1092253990942827,-0.062935844539968,0.4472705467295789,-14.529383667028748,-12.801638260691496,-0.716641,-0.34821,0.562818,-0.220023,-1.868221,0.193854,0.051759,9.155273,17.211914,-230.407715,0,0,-0.6786779090584195,-0.2850605845966679,0.6111155161174832,-0.2833682250374904,-1.2783173031250668,0.0326892923161168,0.0998390891739406,5.0180152945154735,12.614966397389477,-74.6013602452595
11539,2024 10 17,09:01:36.146,0.538258,-0.418254,-0.541218,-0.492368,-0.934599,0.156743,-0.082522,-0.183105,-0.610352,-14.404297,0,0,0.5176478893210685,-0.4168972467048698,-0.5578636958221794,-0.4939666220879187,-0.9727244649536734,0.1116012791395686,-0.0639151523129696,0.4157517693931,-13.833432083677309,-12.88177119765692,-0.722168,-0.360589,0.553512,-0.205117,-2.082095,0.265145,-0.023438,5.79834,23.254395,-266.967773,0,0,-0.6808524136054985,-0.2888370053668345,0.608235340311609,-0.2794556637856159,-1.3185061879688134,0.044312077700311,0.0936752347152436,5.0570315297897,13.146937827520002,-84.21968088299653
11540,2024 10 17,09:01:36.154,0.538805,-0.418998,-0.540671,-0.491737,-0.929716,0.149907,-0.083987,-1.403809,1.159668,-14.648438,0,0,0.5187057448550151,-0.4170022843696263,-0.5570040610310704,-0.4938551409835227,-0.9705740417059896,0.1135165651825901,-0.0649187446973211,0.3247737309234449,-13.083777079493442,-12.970104537774075,-0.722168,-0.360589,0.553512,-0.205117,-2.082095,0.265145,-0.023438,5.79834,23.254395,-266.967773,0,0,-0.6829181929252236,-0.2924246050984928,0.6054991732960285,-0.2757387305963351,-1.3566856285703728,0.0553537238152954,0.0878195729794814,5.094096953300214,13.652310686144002,-93.3570854888467
11541,2024 10 17,09:01:36.162,0.538805,-0.418998,-0.540671,-0.491737,-0.929716,0.149907,-0.083987,-1.403809,1.159668,-14.648438,0,0,0.5197107076122642,-0.417102070151145,-0.5561874079795168,-0.4937492339343465,-0.9685311396206902,0.1153360869234606,-0.0658721574624551,0.2383445943772726,-12.371604825518771,-13.054021210885372,-0.728426,-0.374455,0.542162,-0.187723,-2.360912,0.404797,0.085452,6.347656,33.691406,-310.241699,0,0,-0.6851935832789624,-0.2965261248435681,0.602332314631227,-0.2713379440665183,-1.4068969471418542,0.0728258876245307,0.0877011943305073,5.156774905635203,14.6542654518368,-104.20131616440436
11542,2024 10 17,09:01:36.171,0.539279,-0.419861,-0.540116,-0.491091,-0.947783,0.15479,-0.072756,-2.746582,1.708984,-15.197754,0,0,0.520689122231651,-0.4172400166435878,-0.5553838375805409,-0.4936163222376292,-0.9674937326396555,0.1173087825772876,-0.0662163495893323,0.089098264658409,-11.667575384242832,-13.161207850341103,-0.735707,-0.389961,0.527783,-0.16766,-2.617267,0.496597,0.039552,5.371094,50.598145,-361.083984,0,0,-0.6877192541150143,-0.3011978686013897,0.5986048488996657,-0.2661540468631924,-1.4674154497847616,0.0940144432433041,0.0852937346139819,5.167490860353443,16.45145942924496,-117.04544955618417
11543,2024 10 17,09:01:36.179,0.5397,-0.420816,-0.539445,-0.490547,-0.939482,0.140141,-0.064455,-4.577637,1.464844,-15.197754,0,0,0.5216396661200684,-0.4174188158114084,-0.5545868957015139,-0.4934628561257477,-0.9660931460076728,0.1184503934484232,-0.0661282821098657,-0.1442384985745114,-11.01095441503069,-13.263035157824048,-0.743585,-0.407383,0.510128,-0.144535,-2.859462,0.602069,0.238777,7.141113,67.626953,-417.114258,0,0,-0.6905125414092635,-0.3065071251713202,0.5941810064546824,-0.2600730945200327,-1.5370177772955236,0.1194171710811389,0.0929678978832828,5.2661719673357705,19.01023410778271,-132.04888997837494
11544,2024 10 17,09:01:36.187,0.540058,-0.421841,-0.538744,-0.490044,-0.945341,0.136723,-0.090335,-6.408691,1.708984,-15.075684,0,0,0.522560582814065,-0.4176399250208379,-0.5537947509164381,-0.4932919133194603,-0.965055538707289,0.119364023776002,-0.0673386180043724,-0.4574611236457859,-10.374957494279156,-13.353667599932844,-0.751963,-0.426598,0.488176,-0.11937,-2.902921,0.510758,0.560076,16.662598,93.688965,-465.148926,0,0,-0.6935850643388003,-0.3125116689127542,0.5888807561319482,-0.2530379397940311,-1.6053129384307472,0.138984212527082,0.1163233029891187,5.835993268968982,22.74417065239357,-148.7038917794562
11545,2024 10 17,09:01:36.196,0.540375,-0.422922,-0.537964,-0.489619,-0.943876,0.136235,-0.046388,-7.141113,1.647949,-15.197754,0,0,0.5234513036733618,-0.417904028769796,-0.5530032133706162,-0.4931082676534873,-0.9639965617719246,0.1202075725872019,-0.0662910871041538,-0.7916437174634966,-9.7738121695652,-13.445871919936202,-0.759714,-0.447892,0.462142,-0.093016,-2.999603,0.201666,0.382336,38.208008,113.769531,-503.967285,0,0,-0.6968915111218602,-0.3192806854671164,0.5825438183253508,-0.2450368428043295,-1.6750274415092097,0.1421183019007278,0.1296239378396627,7.454594005520533,27.29543866977389,-166.46706144048338
11546,2024 10 17,09:01:36.204,0.540628,-0.42407,-0.537121,-0.489273,-0.940947,0.13184,-0.068361,-9.033203,1.220703,-15.075684,0,0,0.5243101384896937,-0.4182123273313061,-0.5522091027020853,-0.4929165042708129,-0.9628440836833284,0.1207891939578418,-0.0663945827489461,-1.2037216815903218,-9.224086411086938,-13.527362523939392,-0.759714,-0.447892,0.462142,-0.093016,-2.999603,0.201666,0.382336,38.208008,113.769531,-503.967285,0,0,-0.7000326355657672,-0.3257112511937606,0.5765237274090833,-0.237435800664113,-1.741256219433749,0.1450956868056914,0.1422595409476796,8.992264705244507,31.6191432862852,-183.3420726184592
11547,2024 10 17,09:01:36.212,0.540628,-0.42407,-0.537121,-0.489273,-0.940947,0.13184,-0.068361,-9.033203,1.220703,-15.075684,0,0,0.525126031565209,-0.4185052109647408,-0.5514546975669811,-0.4927343290572722,-0.961749229499162,0.1213417342599497,-0.0664929036114988,-1.5951957475108056,-8.70184694053259,-13.604778597742422,-0.765787,-0.470405,0.433568,-0.065642,-2.836024,0.013672,0.109378,52.429199,119.32373,-526.428223,0,0,-0.7033203537874788,-0.3329459386340725,0.5693759410386291,-0.2288461106309074,-1.7959946084620615,0.1385245024654068,0.1406154639002956,11.164111419982282,36.00437262197094,-200.49638013753625
11548,2024 10 17,09:01:36.221,0.540865,-0.42525,-0.536192,-0.489004,-0.939482,0.123051,-0.074709,-10.070801,0.976563,-15.075684,0,0,0.5259129799869485,-0.4188424504165037,-0.550691562688632,-0.4925478126044086,-0.960635868024204,0.1214271975469522,-0.0669037084309238,-2.0189760101352654,-8.21792644350596,-13.6783238678553,-0.770448,-0.49216,0.403447,-0.037669,-2.690512,0.001953,0.21778,45.593262,125.549316,-529.602051,0,1,-0.7066767360981048,-0.3409066417023689,0.5610794939866975,-0.219287255099362,-1.8407204780389583,0.1316959273421365,0.1444736907052808,12.885568948983169,40.4816197908724,-216.9516636806594
11549,2024 10 17,09:01:36.229,0.541106,-0.426433,-0.535231,-0.488761,-0.940458,0.103519,-0.083499,-10.375977,0.183105,-15.014648,0,0,0.5266726309876011,-0.4192219778956785,-0.5499185345542004,-0.4923584719741881,-0.9596269746229936,0.1205317876696046,-0.0677334730093776,-2.436826059628502,-7.797874871330661,-13.745140074462537,-0.774327,-0.511718,0.372105,-0.009993,-2.467849,0.186529,-0.210944,33.508301,130.126953,-522.644043,0,0,-0.7100592492931994,-0.3494472096172505,0.5516307692873627,-0.2088225423443939,-1.8720769041370104,0.1344375809750297,0.1267028061700168,13.91670555153401,44.963886451328776,-232.23628264662645
11550,2024 10 17,09:01:36.237,0.541433,-0.427515,-0.534291,-0.488481,-0.929716,0.11475,-0.084964,-8.361816,-0.061035,-15.197754,0,0,0.527410649438221,-0.4196366290008946,-0.5491371578264903,-0.4921645983754787,-0.958131425891844,0.1202426982861244,-0.0685949993589087,-2.733075556647077,-7.411032877764128,-13.81777077073941,-0.776431,-0.529709,0.340939,0.01798,-2.250557,0.519547,0.018555,29.846191,121.154785,-521.240234,0,0,-0.7133778368285394,-0.358460299136388,0.5410961808229945,-0.1974824152271742,-1.89100090893016,0.1536930519262782,0.1212954158615159,14.713179823957308,48.77343137876234,-246.6864802142951
11551,2024 10 17,09:01:36.246,0.541804,-0.428565,-0.533387,-0.488138,-0.928739,0.119144,-0.075198,-6.835938,0.366211,-15.74707,0,0,0.5281303169663099,-0.4200830475508498,-0.5483496499351658,-0.4919632684567048,-0.9566618045972518,0.1201877633718181,-0.0689251493909633,-2.9382186788147227,-7.022170683875921,-13.91423573220244,-0.776931,-0.546469,0.309307,0.045596,-1.345256,0.687521,-0.971709,30.212402,117.980957,-506.164551,0,0,-0.7165554949871125,-0.3678607341795685,0.5295067217818448,-0.1853284944658155,-1.863713663483652,0.1803844493299643,0.0666451950684401,15.488140932759444,52.23380765982422,-259.66038375358033
11552,2024 10 17,09:01:36.254,0.542157,-0.429668,-0.532608,-0.487627,-0.950224,0.113285,-0.069338,-6.652832,2.075195,-16.174316,0,0,0.5288316511179944,-0.4205622951733073,-0.5475625674384075,-0.4917464550338695,-0.9563399143673892,0.1198426252032272,-0.0689457919214151,-3.1239493448739863,-6.5673023996821245,-14.027239745592317,-0.776931,-0.546469,0.309307,0.045596,-1.345256,0.687521,-0.971709,30.212402,117.980957,-506.164551,0,0,-0.7195742702377569,-0.37679114747059,0.5184967356927526,-0.1737822697425247,-1.837790780309469,0.2057412768634661,0.0147274853150181,16.224353986121468,55.52116512683301,-271.98559211590134
11553,2024 10 17,09:01:36.262,0.542157,-0.429668,-0.532608,-0.487627,-0.950224,0.113285,-0.069338,-6.652832,2.075195,-16.174316,0,0,0.5294979185620946,-0.4210175804146419,-0.5468148390664871,-0.491540482282176,-0.9560341186490195,0.1195147439430659,-0.0689654023253443,-3.300393477630287,-6.1351775296980176,-14.1345935583127,-0.774549,-0.560767,0.283172,0.073675,-1.908261,0.577166,-0.47853,21.54541,38.818359,-467.407227,0,0,-0.722323006725869,-0.3859899400970605,0.506730498908115,-0.1614094062553984,-1.841314291293996,0.2243125130202928,-0.0099353889507327,16.490406786815395,54.68602482049136,-281.7566738601063
11554,2024 10 17,09:01:36.271,0.542511,-0.430812,-0.531872,-0.487028,-0.955596,0.129398,-0.088382,-5.859375,3.295898,-16.845703,0,0,0.5301485726339898,-0.4215073013939098,-0.5460676971131627,-0.4913148581680672,-0.9560122127165688,0.1200089067459126,-0.0699362322090771,-3.4283425537487724,-5.663623753213116,-14.270149030397064,-0.771018,-0.571749,0.260248,0.104429,-1.186071,0.994659,-1.124058,-11.352539,-1.159668,-471.374512,0,0,-0.7247577563895755,-0.3952778930922074,0.4944063739627091,-0.1481174859426285,-1.808552126729296,0.2628298373692781,-0.0656415195031961,15.098259497474626,51.89374017946679,-291.23756576710093
11555,2024 10 17,09:01:36.279,0.542882,-0.432025,-0.531085,-0.486398,-0.957549,0.116214,-0.064943,-6.164551,2.746582,-18.005371,0,0,0.5307852440022903,-0.4220331863242144,-0.5453185622575045,-0.4910690152596638,-0.95608905208074,0.1198191614086169,-0.0696865705986233,-3.5651529760613334,-5.243113465552461,-14.45691012887721,-0.770288,-0.576626,0.237816,0.132671,1.198767,1.402387,-1.648976,-84.594727,35.15625,-380.615234,0,0,-0.7270342685700968,-0.4043452984375971,0.4815768552645736,-0.1340780616454971,-1.6581861703928311,0.3198076955008142,-0.1448082435280363,10.113610172600891,51.05686567049344,-295.70644917874586
11556,2024 10 17,09:01:36.287,0.543297,-0.433319,-0.530328,-0.485609,-0.963408,0.104007,-0.070315,-5.187988,4.455566,-19.65332,0,0,0.5314108318021759,-0.4225974770080036,-0.5445690341446293,-0.4907960144966806,-0.9564549994767032,0.1190285533381861,-0.0697179920686921,-3.646294727258266,-4.758179492274838,-14.71673062243335,-0.77067,-0.57843,0.224062,0.145886,1.042024,0.820338,-0.401868,-38.085938,14.343262,-140.930176,0,0,-0.7292160551415919,-0.4130495335157172,0.468701112501345,-0.1200798585632222,-1.523175661873189,0.3448342107257735,-0.1576612313516345,7.703632763970848,49.22118548696877,-287.9676355198086
11557,2024 10 17,09:01:36.296,0.543876,-0.434603,-0.529553,-0.484657,-0.953154,0.103519,-0.069338,-2.868652,3.479004,-21.789551,0,0,0.532034090212067,-0.4231977531576034,-0.5438182324373978,-0.4904890637718466,-0.956289949502868,0.1182530756712768,-0.0696989924652575,-3.607412590895353,-4.346320317661096,-15.07037164131168,-0.77425,-0.573103,0.225273,0.146091,-0.265633,1.542528,0.07178,-61.401367,4.821777,80.566406,0,0,-0.7314677523845123,-0.4210522068399313,0.4565297068762777,-0.1067713156350611,-1.4602985287795296,0.4047189001894848,-0.1461891697840527,4.2483827757723045,47.001215062620325,-269.5409334438181
11558,2024 10 17,09:01:36.304,0.544547,-0.435911,-0.528821,-0.483528,-0.960479,0.10303,-0.078616,-1.647949,4.821777,-23.193359,0,0,0.5326597357014636,-0.4238334154997232,-0.5430683708155278,-0.4901410105832542,-0.9564994020277244,0.1174919218877129,-0.0701448428419946,-3.5094394113505856,-3.8879154517780408,-15.476521009246095,-0.779632,-0.566536,0.232276,0.131371,-0.095706,1.326212,-0.597186,-44.311523,30.517578,234.741211,0,0,-0.7338759647652866,-0.4283263964979347,0.4453170215324638,-0.094864199853308,-1.392068902340553,0.4507935551800106,-0.1687390112948501,1.820387486983689,46.17703320948931,-244.3268262216272
11559,2024 10 17,09:01:36.312,0.544547,-0.435911,-0.528821,-0.483528,-0.960479,0.10303,-0.078616,-1.647949,4.821777,-23.193359,0,0,0.5332540989163904,-0.424437294724737,-0.5423560022747513,-0.4898103600540915,-0.9566983819263384,0.1167688257933273,-0.0705684006998949,-3.4163648907830564,-3.4524308291891384,-15.862362908783789,-0.779632,-0.566536,0.232276,0.131371,-0.095706,1.326212,-0.597186,-44.311523,30.517578,234.741211,0,0,-0.7361637665270222,-0.4352368766730379,0.4346649704558406,-0.0835524398606426,-1.3272507572235253,0.49456447742101,-0.1901613607301076,-0.4862080373654958,45.394060449014844,-220.37342436054584
11560,2024 10 17,09:01:36.321,0.545345,-0.437189,-0.528018,-0.48235,-0.954619,0.085452,-0.076174,-1.159668,2.868652,-24.108887,0,0,0.5338586439705708,-0.4250748799885002,-0.5416391021610137,-0.4894373420513869,-0.9565944128300212,0.1152029845036609,-0.0708486806649001,-3.3035300462439032,-3.136376687729681,-16.2746891133446,-0.783618,-0.559359,0.246991,0.1098,-0.772973,0.73928,0.010743,-4.577637,12.207031,328.613281,0,0,-0.738536478200671,-0.441442982839386,0.4252812719330485,-0.0738848178676105,-1.299536869362349,0.5068002535499595,-0.1801161426936022,-0.690779485497221,43.7347089765641,-192.92408909251856
11561,2024 10 17,09:01:36.329,0.546197,-0.438496,-0.527311,-0.480971,-0.969756,0.08594,-0.085452,0.366211,5.310059,-25.512695,0,0,0.5344755617720423,-0.4257459359890752,-0.540922697052963,-0.4890140249488175,-0.9572524921885202,0.1137398352784778,-0.0715788466316551,-3.1200429939317083,-2.7140549033431967,-16.73658940767737,-0.787525,-0.55121,0.262349,0.084529,-0.688498,0.469253,-0.669942,-5.981445,23.498535,351.501465,0,0,-0.7409859042906375,-0.4469313336974167,0.417134658336396,-0.06596412697423,-1.2689849258942316,0.5049228908724614,-0.2046074355589221,-0.95531276122236,42.72290027773589,-165.7028113878926
11562,2024 10 17,09:01:36.337,0.547191,-0.439751,-0.526578,-0.479497,-0.969756,0.090823,-0.049318,2.624512,3.90625,-26.794434,0,0,0.5351113336834401,-0.4264461891896214,-0.5402054622003148,-0.4885381737013766,-0.957877667579094,0.1125939935145539,-0.0704658043000723,-2.8328152442351224,-2.383039658176037,-17.2394816372935,-0.78975,-0.542657,0.279425,0.061158,-0.687521,0.239753,-0.477065,-7.629395,-13.793945,337.402344,0,0,-0.7434241090761056,-0.4517176170125458,0.4102491754195762,-0.0596080206255185,-1.23991172959952,0.4916643963288383,-0.218230313780976,-1.289016873161242,39.89705801384909,-140.54755361849797
11563,2024 10 17,09:01:36.346,0.548287,-0.440998,-0.525843,-0.477903,-0.986847,0.080569,-0.061525,3.601074,3.417969,-27.954102,0,0,0.5357701169992681,-0.4271737797301403,-0.539487339090299,-0.4880064150163078,-0.9593261342001392,0.1109927438388262,-0.0700187640850687,-2.511120782023366,-2.092989225267235,-17.775212655428824,-0.79123,-0.533343,0.296327,0.041109,-0.728538,0.054689,-0.799829,-23.986816,-34.423828,305.419922,0,0,-0.7458144036223003,-0.4557988861619185,0.4045530666485973,-0.0545721695942425,-1.214343043119544,0.4698156265123964,-0.2473102480919272,-2.42390682950318,36.18101371315663,-118.24917983757308
11564,2024 10 17,09:01:36.354,0.549607,-0.442159,-0.525029,-0.476206,-0.978057,0.087405,-0.059572,5.310059,1.77002,-30.029297,0,0,0.5364619611493048,-0.4279230407436332,-0.538764422135784,-0.4874163942654924,-0.9602626774901324,0.1098133566468849,-0.0694964258808153,-2.120061792922197,-1.899838764003873,-18.38791687265738,-0.792184,-0.523067,0.313424,0.024725,-0.750511,0.015137,-0.617206,-45.227051,-57.189941,279.23584,0,0,-0.7481328834411853,-0.4591622918538226,0.3999966133161675,-0.0506073111145304,-1.1911514409635666,0.4470816951867765,-0.2658050356873308,-4.564064038028021,31.5124659774988,-98.3749288456944
11565,2024 10 17,09:01:36.362,0.551066,-0.443365,-0.524169,-0.474343,-0.996612,0.102542,-0.047853,6.652832,2.075195,-32.226563,0,0,0.5371921630918395,-0.4286951387064515,-0.5380346510289948,-0.4867627245522178,-0.9620801436156255,0.1094497888145407,-0.0684142545867745,-1.6814171032760874,-1.7010870758036791,-19.07984917902451,-0.792184,-0.523067,0.313424,0.024725,-0.750511,0.015137,-0.617206,-45.227051,-57.189941,279.23584,0,0,-0.750335439269126,-0.4623575272611315,0.3956679826503591,-0.0468406955588039,-1.1691194189153882,0.4254844604274376,-0.2833750839029643,-6.5972133861266204,27.07734562862386,-79.49439040340967
11566,2024 10 17,09:01:36.371,0.551066,-0.443365,-0.524169,-0.474343,-0.996612,0.102542,-0.047853,6.652832,2.075195,-32.226563,0,0,0.5378858549372475,-0.4294286317711289,-0.5373413684775451,-0.4861417383246069,-0.9638067364348444,0.1091043993738136,-0.0673861918574358,-1.2647046481122828,-1.512272972013495,-19.73718487007328,-0.793665,-0.511108,0.3298,0.009839,-0.567888,0.098636,-0.632832,-67.810059,-54.504395,273.31543,0,0,-0.7525019173056697,-0.4647950508980749,0.3923745835178411,-0.0440067107808637,-1.1390578479696187,0.4091420374060657,-0.300847929707816,-9.65785566682029,22.998258597192663,-61.85389938323919
11567,2024 10 17,09:01:36.379,0.552617,-0.444745,-0.523228,-0.472281,-1.017121,0.102542,-0.091311,6.225586,2.746582,-36.071777,0,0,0.5386224121903851,-0.4301944501825724,-0.5366357000536678,-0.4854487014083766,-0.9664724496131022,0.1087762794051229,-0.068582432264564,-0.8901901157066685,-1.29933022341282,-20.553914476569616,-0.795353,-0.497198,0.346677,-0.004841,-0.518571,0.17188,-0.468276,-85.754395,-62.316895,286.865234,0,0,-0.7546444714403863,-0.4664151983531711,0.390089704341949,-0.0420484252418205,-1.1080335055711377,0.3972789355357624,-0.3092193332224252,-13.462682633479275,18.732500917333027,-44.41794271407723
11568,2024 10 17,09:01:36.387,0.554324,-0.446295,-0.522126,-0.470032,-1.052278,0.101077,-0.034181,6.04248,2.807617,-39.916992,0,0,0.5394074915808658,-0.4309994776734438,-0.5359102150509844,-0.4846778663379577,-0.970762727132447,0.1083913154348668,-0.0668623606513358,-0.543556609921335,-1.093982862242179,-21.522068352741133,-0.797097,-0.481031,0.364461,-0.020323,-0.600604,0.200201,-0.443373,-102.600098,-64.39209,309.692383,0,0,-0.7567670978683669,-0.4671459884355124,0.3888082691248515,-0.0409621539797295,-1.082662030292581,0.3874250387589742,-0.3159270165613039,-17.91955340180531,14.576271371466376,-26.71242642837336
11569,2024 10 17,09:01:36.396,0.556228,-0.448069,-0.520799,-0.46756,-1.113804,0.125492,-0.086917,6.164551,2.197266,-45.837402,0,0,0.5402485170018225,-0.4318529537897716,-0.5351546542984351,-0.4838219730210598,-0.9779147907758248,0.1092463496631234,-0.067865092618769,-0.2081512294252682,-0.92942041913007,-22.73783503510408,-0.798571,-0.462707,0.383197,-0.036701,-0.69631,0.210944,-0.371105,-116.455078,-69.580078,330.749512,0,0,-0.7588572929749486,-0.4669240390137368,0.3885277056686089,-0.040749096280743,-1.0633444287779517,0.3786009868210255,-0.3186859157332388,-22.846329631715044,10.368453902893055,-8.83932950695469
11570,2024 10 17,09:01:36.404,0.558569,-0.450096,-0.519061,-0.464748,-1.121128,0.122562,-0.027833,6.469727,-0.305176,-54.138184,0,0,0.5411645411517314,-0.432765106100283,-0.5343499715835134,-0.4828682743700068,-0.9850754512370334,0.1099121321799673,-0.0658634879878305,0.1257426820459952,-0.8982081981735663,-24.307852483348874,-0.799541,-0.442543,0.402528,-0.053492,-0.751488,0.180181,-0.331553,-127.990723,-74.157715,343.566895,0,0,-0.7608914783262011,-0.4657049870630499,0.3892277203851784,-0.0413862414667058,-1.047751607339054,0.3686799874799742,-0.3193292699465768,-28.10354930012929,6.142145457748403,8.780981718393045
11571,2024 10 17,09:01:36.412,0.561241,-0.452564,-0.517038,-0.461374,-1.194372,0.136723,-0.079592,8.117676,2.624512,-64.819336,0,0,0.5421683640941447,-0.4337550507952688,-0.5334843730043377,-0.4817935606515064,-0.9955402786751816,0.1112526755709689,-0.066549913588439,0.5253393479436955,-0.722072188264888,-26.333426659181427,-0.799541,-0.442543,0.402528,-0.053492,-0.751488,0.180181,-0.331553,-127.990723,-74.157715,343.566895,0,0,-0.7628239544098909,-0.4645468877098974,0.3898927343659195,-0.0419915293933705,-1.0329384269721014,0.3592550381059755,-0.319940456449248,-33.09790798512282,2.1271524348609825,25.520277382473395
11572,2024 10 17,09:01:36.421,0.561241,-0.452564,-0.517038,-0.461374,-1.194372,0.136723,-0.079592,8.117676,2.624512,-64.819336,0,0,0.5431219958894374,-0.4346954982555053,-0.5326620543541208,-0.4807725826189311,-1.0054818647414223,0.1125261917924204,-0.067202017909017,0.9049561805465108,-0.5547429788516435,-28.257722126222355,-0.79963,-0.42106,0.422398,-0.069862,-0.798364,0.159673,-0.271004,-137.268066,-86.791992,346.862793,0,0,-0.7646642566893963,-0.4623725433244025,0.3915179976476235,-0.043385052923702,-1.021209705623496,0.3492759362006767,-0.3174936336267856,-38.30641588586668,-2.3188047868820663,41.58740316334973
11573,2024 10 17,09:01:36.429,0.564537,-0.455348,-0.514408,-0.457538,-1.189001,0.121097,0.013184,7.93457,-3.662109,-75.683594,0,0,0.5441927460949656,-0.43572812334273,-0.5317493516364148,-0.4796108534879845,-1.0146578215043514,0.1129547322027994,-0.0631827170135662,1.2564368715191851,-0.7101112799090613,-30.629015719911237,-0.798559,-0.398761,0.44278,-0.085085,-0.890164,0.138188,-0.245613,-143.798828,-102.416992,341.674805,0,0,-0.7663589938549265,-0.4591919661581823,0.3940810977652423,-0.0454700502775169,-1.014657420342321,0.3387215393906429,-0.3138996019454463,-43.58103649157334,-7.323714147537963,56.59177325518225
11574,2024 10 17,09:01:36.437,0.568318,-0.458497,-0.511165,-0.453327,-1.210486,0.133793,-0.066408,6.04248,-5.92041,-85.9375,0,0,0.5453990087902173,-0.4368665671755935,-0.5307201340545941,-0.4782966608135853,-1.0244492304291335,0.1139966455926594,-0.0633439811628879,1.495739027943226,-0.9706262159136082,-33.39443993391567,-0.796075,-0.376258,0.463619,-0.098747,-0.981964,0.188971,-0.125004,-146.850586,-121.398926,330.566406,0,0,-0.7678447941621801,-0.4550452678502732,0.3975579928769802,-0.0481338977636411,-1.013022749325205,0.3312340124211108,-0.3044548218481739,-48.744513966994674,-13.027474740161065,70.29050489242313
11575,2024 10 17,09:01:36.446,0.572699,-0.462033,-0.507132,-0.44873,-1.204138,0.146977,-0.039552,6.591797,-10.192871,-99.121094,0,0,0.5467640083507065,-0.4381248888168139,-0.5295407273518643,-0.476818327772906,-1.033433668907677,0.1156456633130265,-0.0621543821047435,1.7505419265460649,-1.431738455117928,-36.68077263721989,-0.792133,-0.354038,0.484639,-0.110939,-1.068392,0.261727,-0.043458,-144.042969,-136.657715,317.504883,0,0,-0.769059204454071,-0.4499949044577595,0.4019120432331312,-0.051274152875459,-1.0157912118589447,0.3277586618000552,-0.2914049807557652,-53.50943671864494,-19.20898675315301,82.65122379780198
11576,2024 10 17,09:01:36.454,0.577525,-0.466045,-0.502474,-0.443606,-1.222694,0.138188,-0.049806,4.150391,-11.291504,-110.595703,0,0,0.5483020579331712,-0.4395208943759732,-0.528187390984271,-0.4751577113842607,-1.0428966854622932,0.1167727801473751,-0.0615369629995063,1.8705343802187613,-1.924726732362032,-40.37651915535889,-0.786655,-0.332514,0.505648,-0.122186,-1.152867,0.308115,0.037111,-134.277344,-149.963379,307.983398,0,0,-0.7699389942313675,-0.4441208592348715,0.4070988410714746,-0.054819745231686,-1.0226450012659976,0.3267764787100524,-0.274979181717977,-57.547832082712695,-25.74670636549536,93.91783250791188
11577,2024 10 17,09:01:36.462,0.582921,-0.470512,-0.497017,-0.437945,-1.254921,0.146001,-0.023927,3.479004,-15.869141,-124.755859,0,0,0.5500330050365126,-0.4410704496571745,-0.5266288714350574,-0.4732970758150476,-1.0534979011891783,0.1182341911400064,-0.059656464849531,1.950957861207823,-2.6219474457439302,-44.59548614759095,-0.786655,-0.332514,0.505648,-0.122186,-1.152867,0.308115,0.037111,-134.277344,-149.963379,307.983398,0,0,-0.7707747945197991,-0.4385405162731279,0.4120262990179008,-0.0581880579701017,-1.0291561012026975,0.3258434047745498,-0.2593746726320781,-61.38430767857706,-31.95753999722059,104.62111078251628
11578,2024 10 17,09:01:36.471,0.582921,-0.470512,-0.497017,-0.437945,-1.254921,0.146001,-0.023927,3.479004,-15.869141,-124.755859,0,0,0.5516774047846871,-0.4425425271743157,-0.5251482778633045,-0.4715294720242952,-1.0635690561297195,0.119622531583006,-0.0578699916070544,2.027360168147432,-3.284307123456734,-48.6035047902114,-0.779552,-0.311918,0.526532,-0.133301,-1.261269,0.345225,0.118168,-118.713379,-158.874512,304.6875,0,0,-0.7712136547938091,-0.4322093904594715,0.4177515840670057,-0.0619437050715966,-1.040761746142563,0.3268124845358223,-0.2404975390004742,-64.2507612446482,-38.30338859735956,114.62443024339046
11579,2024 10 17,09:01:36.479,0.588993,-0.475448,-0.490437,-0.431865,-1.321329,0.156255,-0.013672,0.671387,-23.010254,-140.258789,0,0,0.5535431845454527,-0.4441878008155999,-0.5234127139701392,-0.4695462484230804,-1.0764570533232338,0.1214541550038557,-0.0556600920267017,1.9595615097400605,-4.2706044672838965,-53.18626900070082,-0.770835,-0.292261,0.54716,-0.144956,-1.373089,0.403333,0.170904,-100.158691,-166.19873,306.396484,0,0,-0.7711947220541187,-0.425211970936498,0.4242220048636554,-0.0660943198180168,-1.0573781088354344,0.3306385103090312,-0.2199274620504505,-66.0461577324158,-44.69815566749158,124.21303293122094
11580,2024 10 17,09:01:36.487,0.595761,-0.480979,-0.482689,-0.425134,-1.368206,0.163579,-0.041993,-1.77002,-26.977539,-159.118652,0,0,0.55565407531818,-0.4460273607748199,-0.5213765282716323,-0.4673256360019264,-1.091044500657072,0.123560397253663,-0.0549767374253666,1.7730824342530571,-5.405951193919702,-58.48288815066577,-0.760516,-0.273702,0.567316,-0.157653,-1.489792,0.427259,0.224128,-76.293945,-169.311523,309.692383,0,0,-0.7706607859514126,-0.417636472389673,0.4313767046204726,-0.070672253827116,-1.0789988033936626,0.3354695347935796,-0.1977246889479279,-66.55854709579499,-50.928824034117,133.48700043465988
11581,2024 10 17,09:01:36.496,0.603244,-0.487302,-0.473956,-0.417133,-1.471725,0.277352,-0.030763,-0.732422,-26.611328,-182.189941,0,0,0.558033571552271,-0.4480910927360789,-0.5190055018580506,-0.46481600420183,-1.1100785256242185,0.1312499773909798,-0.0537660505540983,1.6478072125404044,-6.466220034223717,-64.66824079313248,-0.748721,-0.256618,0.586638,-0.171524,-1.592822,0.419446,0.208991,-49.438477,-171.081543,309.509277,0,0,-0.769563796653842,-0.4095855487701894,0.439139769389449,-0.0757148411357602,-1.1046899632239793,0.3396683580539006,-0.1773889045005315,-65.70254359100524,-56.93645998241115,142.28811426292688
11582,2024 10 17,09:01:36.504,0.611075,-0.494913,-0.463894,-0.407984,-1.649464,0.296884,-0.172857,-8.850098,-23.986816,-209.289551,0,0,0.5606856429746574,-0.450432188099275,-0.516249926765148,-0.4619744039917385,-1.1370477993430077,0.1395316785214308,-0.0597205980263934,1.1229119519133843,-7.342249832512531,-71.89930630347585,-0.735448,-0.241206,0.6052,-0.186196,-1.67925,0.377453,0.160161,-24.597168,-176.208496,305.297852,0,0,-0.7678580068211499,-0.4011665713316799,0.4474427809199765,-0.0812388990789722,-1.1334179650627805,0.3415575901512055,-0.1605114092755049,-63.64727481145497,-62.90006178329059,150.43860114978054
11583,2024 10 17,09:01:36.512,0.620042,-0.503609,-0.451988,-0.39703,-1.903867,0.354015,-0.031251,-10.192871,-31.25,-245.544434,0,0,0.5636534608259245,-0.4530910286943112,-0.5130368304268906,-0.4587271837921516,-1.175388759375857,0.1502558445953593,-0.0582971181250737,0.557122804317715,-8.537637340886903,-80.58156268830206,-0.735448,-0.241206,0.6052,-0.186196,-1.67925,0.377453,0.160161,-24.597168,-176.208496,305.297852,0,0,-0.7662375064800924,-0.3931685427650959,0.4553306418739777,-0.0864867541250235,-1.1607095668096412,0.3433523606436452,-0.1444777888117297,-61.69476947088221,-68.56548349412606,158.1815636922915
11584,2024 10 17,09:01:36.521,0.620042,-0.503609,-0.451988,-0.39703,-1.903867,0.354015,-0.031251,-10.192871,-31.25,-245.544434,0,0,0.5664728877846282,-0.4556169272595957,-0.5099843889055461,-0.455642324602544,-1.211812671407064,0.1604438023655913,-0.05694481221882,0.0196231141018291,-9.673255473842556,-88.82970625388695,-0.720648,-0.227539,0.623188,-0.201321,-1.761284,0.344737,0.150884,-2.075195,-185.852051,298.950195,0,0,-0.7639580311560876,-0.3848870656268411,0.4637235097802788,-0.0922284664187723,-1.190738288469159,0.343421592611463,-0.1297096993711432,-58.7137907473381,-74.42981186941975,165.2199952576769
11585,2024 10 17,09:01:36.529,0.630402,-0.513373,-0.437491,-0.384243,-2.068911,0.447768,0.028321,-9.216309,-41.992188,-288.085938,0,0,0.5696693433953969,-0.4585047308966159,-0.5063597194602688,-0.4520723583724167,-1.2546675878367108,0.1748100122473117,-0.052681521607879,-0.4421734916032623,-11.28920210015043,-98.7925178411926,-0.7042,-0.215453,0.640827,-0.216847,-1.906308,0.342784,0.17481,18.493652,-197.509766,295.410156,0,0,-0.7609701295982831,-0.376415362345499,0.4725786842912648,-0.0984593930978337,-1.226516774045701,0.3433897129808899,-0.114483714402586,-54.8534186099712,-80.58380957594876,171.72950329479306
11586,2024 10 17,09:01:36.537,0.642152,-0.524188,-0.419978,-0.369441,-2.223212,0.440931,-0.057619,-12.573242,-53.405762,-333.984375,0,0,0.573293476225627,-0.4617888943517851,-0.5020406334872554,-0.4479407904537959,-1.3030948084448752,0.1881160616349461,-0.052928395527485,-1.0487269170230993,-13.395030095142909,-110.55211069913295,-0.686182,-0.204603,0.657976,-0.23315,-2.085025,0.316904,0.247566,39.245605,-205.383301,297.119141,0,0,-0.7572307231183689,-0.3678247442282241,0.4818485500767016,-0.105193923442942,-1.269442185343416,0.3420654273318453,-0.0963812286824567,-50.14846742947264,-86.82378414715131,177.9989851800534
11587,2024 10 17,09:01:36.546,0.655169,-0.535938,-0.399399,-0.352144,-2.601642,0.527848,-0.121097,-14.831543,-66.28418,-381.408691,0,0,0.5773872524143456,-0.4654963496341958,-0.4969085518128925,-0.443150950931106,-1.3680221680226314,0.2051026585531988,-0.0563368257511108,-1.7378677211719444,-16.039487590385765,-124.09493971417632,-0.666965,-0.194588,0.674158,-0.250608,-2.237861,0.208991,0.291513,59.631348,-205.01709,302.246094,0,0,-0.7527174369624504,-0.3591629070168128,0.4914640225728665,-0.1124646272707949,-1.317863126076245,0.335411705965253,-0.0769865172483339,-44.659476657999,-92.73344943979374,184.21134062105077
11588,2024 10 17,09:01:36.554,0.668904,-0.548599,-0.374656,-0.333526,-2.542558,0.40968,-0.155766,-30.944824,-90.637207,-423.278809,0,0,0.5819630897936283,-0.469651482152486,-0.4907959242222479,-0.4376697033845507,-1.4267489596215,0.2153315256255389,-0.0613082844635552,-3.198215535113348,-19.76937356086648,-139.0541331784675,-0.646978,-0.185241,0.68897,-0.269122,-2.352611,0.003418,0.309091,78.00293,-199.707031,304.56543,0,0,-0.7474304651143279,-0.3504668116659722,0.5013393214442232,-0.1202974959072552,-1.3696005197724328,0.3188120206669904,-0.0576826413859172,-38.52635632509905,-98.08212851780404,190.2290450899982
11589,2024 10 17,09:01:36.562,0.682149,-0.561974,-0.346608,-0.314198,-2.700766,0.155278,-0.213385,-46.325684,-101.806641,-446.655273,0,0,0.5869723853039469,-0.4742676080448617,-0.4835865280111355,-0.4314961182153232,-1.4904498116404248,0.2123288493442619,-0.0689121202403775,-5.354588958357681,-23.87123693282315,-154.43419016954414,-0.646978,-0.185241,0.68897,-0.269122,-2.352611,0.003418,0.309091,78.00293,-199.707031,304.56543,0,0,-0.7424078418586114,-0.3422055210826736,0.5107208553720121,-0.1277387211118924,-1.4187510437838111,0.3030423196336408,-0.0393439593166213,-32.6998920088441,-103.16337364191384,195.9458643354983
11590,2024 10 17,09:01:36.571,0.682149,-0.561974,-0.346608,-0.314198,-2.700766,0.155278,-0.213385,-46.325684,-101.806641,-446.655273,0,0,0.5917312160387496,-0.4786529276426186,-0.4767376016105787,-0.425631212304557,-1.5509656210584035,0.2094763068770488,-0.0761357642283586,-7.403143710439797,-27.768007136181996,-169.04524431106694,-0.626612,-0.1767,0.702283,-0.287982,-2.408277,-0.326182,0.249519,90.026855,-193.969727,298.76709,0,0,-0.7366180497656808,-0.3339302450285399,0.5202989626034115,-0.1357508850562978,-1.4682273415946203,0.2715811036519587,-0.0249008113507902,-26.563554658401895,-107.70369130981815,201.08692561872337
11591,2024 10 17,09:01:36.579,0.694675,-0.575351,-0.316078,-0.294096,-2.446364,-0.447279,-0.073733,-56.57959,-115.05127,-462.768555,0,0,0.596878405236812,-0.4834878312604876,-0.4687046215300497,-0.4190544516893292,-1.5957355400054831,0.1766385415331963,-0.0760156260169407,-9.861966024917807,-32.13217027937289,-183.7314098455136,-0.606124,-0.16889,0.71435,-0.30626,-2.51326,-0.785668,0.126957,92.346191,-189.758301,288.208008,0,0,-0.7300933472773967,-0.3256782327771129,0.5300015144732408,-0.1442763408034829,-1.5204789745148894,0.2187186484693608,-0.0173079207832507,-20.6180673754818,-111.80642179432724,205.4429797377872
11592,2024 10 17,09:01:36.587,0.706207,-0.587446,-0.285859,-0.272879,-2.445875,-0.410169,-0.023438,-38.330078,-97.717285,-454.162598,0,0,0.6023448349749715,-0.4886857396974632,-0.4595623404535471,-0.4117456791048627,-1.6382425130052092,0.1472981644565365,-0.0733867447160936,-11.285371623671915,-35.411426015404246,-197.2529692532379,-0.585946,-0.161399,0.725366,-0.323205,-2.626057,-1.376019,0.081545,84.472656,-182.006836,276.611328,0,0,-0.7228859799135269,-0.3174642711382572,0.5397697387495788,-0.1532227737633087,-1.5757578757891448,0.1389817660458927,-0.0123652747440882,-15.363531206707709,-115.31644250461086,209.00139715089784
11593,2024 10 17,09:01:36.596,0.716822,-0.597526,-0.256403,-0.251767,-2.503983,-0.184576,-0.140141,-33.26416,-105.529785,-441.40625,0,0,0.6080686932262228,-0.4941277527125901,-0.4494043734308697,-0.4037467451496196,-1.6815295373549486,0.1307044562337097,-0.0767244574802889,-12.38431104248832,-38.91734396463403,-209.460633290576,-0.566869,-0.153375,0.735346,-0.338234,-2.655354,-1.935606,0.033692,64.697266,-165.344238,265.930176,0,0,-0.7150851309178505,-0.3092598075813443,0.5495485518120997,-0.1624733350751433,-1.6297376819996876,0.035252377743598,-0.0100624110068838,-11.360491346372322,-117.81783227938033,211.84783609335292
11594,2024 10 17,09:01:36.604,0.727251,-0.605425,-0.225959,-0.231321,-2.101138,0.38966,0.475112,-16.723633,-121.21582,-437.62207,0,0,0.6140278085649117,-0.4996926150769605,-0.4382321047593262,-0.3951254578921386,-1.702509960487201,0.1436522334220242,-0.0491326346062745,-12.601277140363903,-43.03226776640233,-220.8687051260472,-0.549567,-0.144813,0.744396,-0.350542,-2.395093,-2.430738,0.159673,37.841797,-148.376465,243.530273,0,0,-0.7068092243719579,-0.3010374672022771,0.5592909242214947,-0.1718767683213861,-1.668005447899703,-0.0880471411435818,-0.0015756404565396,-8.900376929053706,-119.34576391541133,213.4319579386853
11595,2024 10 17,09:01:36.612,0.736575,-0.611998,-0.196951,-0.210061,-1.808161,0.793481,0.396496,-10.253906,-98.937988,-429.382324,0,0,0.620155168136666,-0.5053078843231125,-0.4261680495213599,-0.3858722349975316,-1.7077925124628408,0.176143671750923,-0.0268512028759607,-12.483908583345707,-45.82755377808221,-231.29438606974483,-0.549567,-0.144813,0.744396,-0.350542,-2.395093,-2.430738,0.159673,37.841797,-148.376465,243.530273,0,0,-0.69894711315336,-0.2932262438421633,0.56854617801042,-0.1808100299053168,-1.704359825504718,-0.2051816840864027,0.0064867915662873,-6.563268232601022,-120.79729896964076,214.936873691751
11596,2024 10 17,09:01:36.621,0.736575,-0.611998,-0.196951,-0.210061,-1.808161,0.793481,0.396496,-10.253906,-98.937988,-429.382324,0,0,0.6259761597298327,-0.5106423901069568,-0.4147071970452918,-0.377081673247655,-1.7128109368396989,0.2070105381633768,-0.0056838427321627,-12.372408454178425,-48.4830754891781,-241.1987829662576,-0.533721,-0.137195,0.753268,-0.359035,-1.959044,-2.715903,0.545915,9.765625,-152.282715,202.819824,0,0,-0.690685807495692,-0.2854246816500551,0.5777822691098989,-0.1897212784100509,-1.7170940342294818,-0.3307177498820826,0.0334582019879729,-5.74682357097097,-122.3715697711587,214.33102120716345
11597,2024 10 17,09:01:36.629,0.744958,-0.617761,-0.168914,-0.186751,-1.216834,1.185583,0.750511,0.183105,-72.937012,-440.368652,0,0,0.631925251743341,-0.515998320601609,-0.4024175371930272,-0.3675651395852722,-1.6880120899977138,0.255939161255208,0.0321258994044453,-11.744632781469502,-49.70577231471919,-251.1572764179447,-0.518174,-0.132472,0.762787,-0.36346,-1.766167,-2.752525,1.220252,-7.629395,-178.344727,151.000977,0,0,-0.6820602171209074,-0.2777770475675523,0.587032505654404,-0.1984082144895484,-1.7195476825180076,-0.4518081123879784,0.0927978918885743,-5.840952142422421,-125.17022763260076,211.16451899680527
11598,2024 10 17,09:01:36.637,0.752402,-0.622735,-0.14351,-0.159676,-1.063509,0.940947,0.873562,12.084961,-18.005371,-446.166992,0,0,0.637949089156174,-0.5213351545715286,-0.3894721603333759,-0.3571706826060086,-1.656786935497828,0.2901895531924476,0.0741977044342231,-10.553153092396023,-48.12075224898323,-260.9077621970475,-0.503357,-0.131293,0.772017,-0.365219,-2.067934,-2.927824,1.786187,-6.652832,-184.448242,102.111816,0,0,-0.673125056264862,-0.2704528451891747,0.5962817303716839,-0.2067487537650709,-1.7369669983921072,-0.5756089067685796,0.1774673472941456,-5.881546135301299,-128.1341283509707,205.71188384696495
11599,2024 10 17,09:01:36.646,0.75997,-0.625949,-0.119606,-0.12778,-1.172399,0.876003,0.721702,52.55127,20.385742,-486.633301,0,0,0.6440501346983653,-0.526565846842952,-0.3759788523167071,-0.3457011484757081,-1.6325675387229364,0.3194802255328252,0.1065729192125119,-7.397931937776223,-44.69542753653407,-272.1940391371951,-0.491894,-0.132404,0.778873,-0.365877,-2.420484,-3.41612,1.927793,1.708984,-142.883301,62.5,0,0,-0.6640635034516188,-0.263550402929716,0.6054112938530997,-0.2147051660768174,-1.7711428484725018,-0.7176344614301505,0.2649836299294383,-5.5020196285362335,-128.87158698342216,198.5512896546167
11600,2024 10 17,09:01:36.654,0.768546,-0.626118,-0.094762,-0.091286,-0.842799,-0.198248,0.380383,82.03125,33.26416,-512.207031,0,1,0.650274927963447,-0.5315434545008044,-0.3619180097008717,-0.3329803910519227,-1.5930791117867893,0.2935938142561839,0.1202634232518863,-2.926472840887412,-40.797448159707365,-284.1946887303353,-0.485762,-0.134505,0.783923,-0.362503,-9.401654,-5.169103,0.664083,-61.096191,-109.436035,-9.399414,0,0,-0.6551484282790379,-0.2570981327832302,0.6143368791604447,-0.2220950577729765,-2.1526684060488765,-0.9402078883586428,0.2849385984329664,-8.281728197109421,-127.89980938425104,188.15375447188583
11601,2024 10 17,09:01:36.662,0.7767,-0.622336,-0.074857,-0.061898,0.586932,0.385754,0.834986,109.863281,17.76123,-362.487793,0,0,0.6565961815652746,-0.5360830817757642,-0.3475649592158281,-0.3194262714993265,-1.4840785561974497,0.2982018235433747,0.155999552089292,2.71301485115696,-37.869514251722,-288.10934394381854,-0.485762,-0.134505,0.783923,-0.362503,-9.401654,-5.169103,0.664083,-61.096191,-109.436035,-9.399414,0,0,-0.646679106865086,-0.2509684761440686,0.6228161852024224,-0.2291154548843277,-2.515117685746433,-1.1516526439407109,0.3038958185113181,-10.92245133725395,-126.97662066503848,178.27609604829155
11602,2024 10 17,09:01:36.671,0.7767,-0.622336,-0.074857,-0.061898,0.586932,0.385754,0.834986,109.863281,17.76123,-362.487793,0,0,0.6626013724870108,-0.540395727686976,-0.3339295612550367,-0.3065498579243602,-1.3805280283875772,0.302579432366206,0.1899488744848274,8.070528158599112,-35.08797703913589,-291.8282663966276,-0.490458,-0.148564,0.785378,-0.347218,-3.664662,-4.373669,2.917081,-57.617188,48.461914,-210.144043,0,0,-0.6388680515218317,-0.2458482523368652,0.6309442759423013,-0.2350205821401113,-2.572594901459111,-1.3127534617436751,0.4345550775857522,-13.257188170391252,-118.20469393178657,158.85508909587696
11603,2024 10 17,09:01:36.679,0.782203,-0.617601,-0.0675,-0.046602,1.165075,1.539109,0.439467,83.679199,47.668457,-122.192383,0,0,0.6685814538626602,-0.5442559913026271,-0.3206080831922849,-0.2935524650281422,-1.2532478769681985,0.3644059107478956,0.202424780760586,11.850961700669156,-30.9501553371791,-283.3464722267962,-0.518523,-0.157688,0.773792,-0.327895,-1.305216,-2.741783,2.144108,-121.032715,267.822266,-316.162109,1,0,-0.63285079894574,-0.2414402397200219,0.6380866621451862,-0.2396643030331057,-2.509225956386155,-1.3842049386564914,0.5200327237064646,-18.64596451187169,-98.90334593519722,135.1042291910831
11604,2024 10 17,09:01:36.687,0.785092,-0.61311,-0.075522,-0.044983,0.15479,1.704154,-0.209479,55.786133,83.374023,100.524902,0,0,0.6744069811695272,-0.5476986917374957,-0.3083537790326706,-0.281123991776735,-1.1828459831197884,0.4313933152105008,0.1818295917225567,14.047720265635698,-25.233946420320144,-264.1529035154564,-0.550368,-0.163855,0.758658,-0.30771,0.287606,1.115268,-1.079623,-166.137695,286.376953,-315.368652,0,0,-0.628726658998453,-0.2375609777340208,0.6441152290379268,-0.2430665878814504,-2.369384358566847,-1.2592312917236668,0.4400499375211413,-26.020551036278107,-79.63933098843737,112.58058513152892
11605,2024 10 17,09:01:36.696,0.784264,-0.610719,-0.093194,-0.057152,-0.636738,1.414106,0.158208,-2.929688,71.411133,274.047852,0,0,0.6798998321110508,-0.5508497071506209,-0.2975957900810371,-0.2699253921878983,-1.1555405839637989,0.4805289494499758,0.1806485121364289,13.198849852353913,-20.401692449304136,-237.2428657396836,-0.561987,-0.178377,0.754377,-0.288562,-2.065004,1.459517,0.11182,-65.307617,-26.550293,-299.072266,0,0,-0.6253896760485304,-0.2346017788473197,0.6496283175860305,-0.2453413584873779,-2.354165340638505,-1.1232938771374834,0.4236384406450842,-27.9849043344642,-76.9848790890155,91.99794257495248
11606,2024 10 17,09:01:36.704,0.779166,-0.610848,-0.115739,-0.079812,-1.182653,0.916044,0.305673,-57.617188,37.109375,381.347656,0,0,0.6848631405054982,-0.5538496217930897,-0.2885029505769852,-0.2604197225785034,-1.1568962047656088,0.502304701977477,0.1868997365296074,9.658047959736216,-17.526139076838927,-206.3133396526994,-0.571375,-0.194485,0.747594,-0.277145,-2.459059,-0.123051,0.944853,25.085449,107.116699,-242.858887,0,0,-0.6226889422461038,-0.2325959399049537,0.6545266017067289,-0.246931540563009,-2.35941002360658,-1.073281733280609,0.44969916861283,-25.331386667740983,-67.7798001845647,75.25510109620484
11607,2024 10 17,09:01:36.712,0.772677,-0.609948,-0.137571,-0.109578,-1.385296,0.406751,0.672384,-52.67334,-23.4375,426.818848,0,0,0.6892538334802233,-0.5566545407034352,-0.2809563530481359,-0.2528776364495781,-1.1683161945273284,0.4975270168786031,0.211173949703127,6.541478561749404,-17.82170712299698,-174.65673027006443,-0.587798,-0.206931,0.732113,-0.275106,-1.086459,-0.192389,-0.152837,86.364746,179.016113,-192.565918,0,0,-0.6209443951337986,-0.2313126929097061,0.6584059216213926,-0.2483402635348585,-2.2957624724262504,-1.0292370966165785,0.4195723601821884,-19.746580034353936,-55.44000452533647,61.8640501413946
11608,2024 10 17,09:01:36.721,0.772677,-0.609948,-0.137571,-0.109578,-1.385296,0.406751,0.672384,-52.67334,-23.4375,426.818848,0,0,0.6934249918062121,-0.5593192136682634,-0.2737870853957291,-0.2457126546270992,-1.179165184800962,0.4929882160346729,0.2342344522179707,3.580737633661933,-18.10249676684713,-144.58295135656118,-0.587798,-0.206931,0.732113,-0.275106,-1.086459,-0.192389,-0.152837,86.364746,179.016113,-192.565918,0,0,-0.6192870753771086,-0.2300936082642208,0.662091275540323,-0.2496785503581156,-2.2352972988049378,-0.9873946917857496,0.390951892173079,-14.44101373263624,-43.71719864906965,49.14255173432487
11609,2024 10 17,09:01:36.729,0.765201,-0.607809,-0.1568,-0.143001,-0.951689,0.070803,0.478042,-59.814453,-62.805176,435.913086,0,0,0.6970137922159014,-0.5617437029848502,-0.2679377311259426,-0.2405770718957443,-1.1677913755609135,0.4718789552329392,0.2464248296070722,0.4109781019788361,-20.337630728504774,-115.55814948873312,-0.597508,-0.21714,0.721916,-0.273261,-1.598193,-0.342784,0.310068,47.119141,112.731934,-136.962891,0,0,-0.6181981216082532,-0.2294459278510097,0.6650825117633068,-0.2508576728402098,-2.20344208386469,-0.955164157196462,0.386907697564425,-11.363005996004429,-35.89474201661616,39.83727959760862
11610,2024 10 17,09:01:36.737,0.75804,-0.603715,-0.175505,-0.173498,-0.497085,0.060549,0.459975,-29.907227,-36.499023,403.015137,0,0,0.7000651026051063,-0.5638422678356076,-0.2633160945696455,-0.237223118300957,-1.134256056782868,0.4513124574712923,0.2571023381267185,-1.1049321531201055,-21.145700342079536,-89.62948516429645,-0.608764,-0.222041,0.71069,-0.273904,-1.164586,0.073244,-0.563982,55.786133,159.790039,-85.998535,0,0,-0.6177264155278405,-0.2290756814584592,0.6673628861751415,-0.2520099891981993,-2.151499279671456,-0.9037437493366388,0.3393632126862038,-8.005549046204205,-26.110502965785354,33.54548886772819
11611,2024 10 17,09:01:36.746,0.751464,-0.598599,-0.193778,-0.198575,-0.079104,-0.067873,0.661153,-6.713867,-2.746582,353.45459,0,0,0.702635047474851,-0.5655801044438272,-0.2598391898411632,-0.2352907123859092,-1.0814984539437245,0.4253531845977276,0.2773048712203826,-1.3853788954641004,-20.22574442497556,-67.47528140608162,-0.616533,-0.227479,0.700613,-0.277996,-1.216834,0.052248,-0.278817,91.064453,120.056152,-59.570313,0,0,-0.6176667447514483,-0.2289958473855363,0.6690253918663844,-0.2533092897382893,-2.104766015687883,-0.8559441618698069,0.3084542020518935,-3.052048943893994,-18.802170217496084,28.88969877434177
11612,2024 10 17,09:01:36.754,0.745215,-0.593276,-0.213784,-0.216736,-0.143071,-0.078616,0.436537,17.578125,63.842773,309.448242,0,0,0.7047640451011083,-0.5669648992216358,-0.257536430349105,-0.2343629767666137,-1.0345770812465382,0.4001547253678412,0.2852664776593634,-0.4372037006908953,-16.022318553726777,-48.62910523577753,-0.623629,-0.232518,0.689867,-0.284791,-1.124058,-0.126469,0.003906,108.703613,144.348145,-37.29248,0,0,-0.6179648575138759,-0.2291719550162594,0.6700674722730652,-0.2548833752513749,-2.055730614903489,-0.8194704037763165,0.2932267919492988,2.535734153300706,-10.64465445662128,25.58058983562469
11613,2024 10 17,09:01:36.762,0.739254,-0.587512,-0.235671,-0.229766,-0.438002,0.116703,0.513199,37.353516,106.567383,283.02002,0,0,0.7064885428460529,-0.567992254260554,-0.2564431588316498,-0.234133127928283,-1.0047483271842113,0.3859821390994492,0.2966631037763952,1.4523322843436497,-9.892833476040437,-32.04664897398865,-0.631302,-0.235935,0.678515,-0.29225,-0.970733,-0.100589,-0.252937,95.153809,146.42334,-25.512695,0,0,-0.618631714638182,-0.2295101072654465,0.6704898486594119,-0.2567517064888061,-2.0014807341583145,-0.7835263335875007,0.2659186023518339,7.16663789563567,-2.791254733790214,23.025925593843453
11614,2024 10 17,09:01:36.771,0.733066,-0.581177,-0.258711,-0.240656,-0.688986,0.332041,0.34962,46.386719,121.032715,278.442383,0,0,0.7078174157037502,-0.5686514915475263,-0.2565565508900673,-0.2344592715318689,-0.9889602108250006,0.3832850821444766,0.2993109485875755,3.6990516201264674,-3.346556052238415,-16.522197375289217,-0.631302,-0.235935,0.678515,-0.29225,-0.970733,-0.100589,-0.252937,95.153809,146.42334,-25.512695,0,0,-0.6192652289062729,-0.2298313519021741,0.6708911062264412,-0.2585266211643658,-1.9499433474503989,-0.7493794669081256,0.2399758222342422,11.565996450853888,4.669475002899297,20.598994564151283
11615,2024 10 17,09:01:36.779,0.733066,-0.581177,-0.258711,-0.240656,-0.688986,0.332041,0.34962,46.386719,121.032715,278.442383,0,0,0.7090798449185627,-0.5692777669701499,-0.2566642733455639,-0.2347691079552754,-0.9739615002837506,0.3807228780372528,0.3018264011581967,5.8334349891201445,2.8724075003735057,-1.7739683565247546,-0.637144,-0.238682,0.669314,-0.298491,-1.039582,0.013672,0.003906,82.397461,113.40332,-17.333984,0,0,-0.6201591674609592,-0.2302738843070654,0.6708122509151192,-0.2605248401061475,-1.9044252800778787,-0.7112268935627193,0.22817233112253,15.107569678311194,10.106167252754332,18.70234563594372
11616,2024 10 17,09:01:36.787,0.726264,-0.574035,-0.281696,-0.252331,-0.884793,0.4756,0.255867,42.480469,110.534668,290.83252,0,0,0.7099390526726346,-0.5695156286216423,-0.2579158596782857,-0.2356472025575117,-0.969503075269563,0.3854667341353902,0.2995284311002869,7.665786689664137,8.25552052535483,12.856356061301485,-0.641958,-0.241028,0.660757,-0.30528,-0.947295,-0.056642,0.077151,85.205078,109.619141,-5.371094,0,0,-0.6212491090879112,-0.2308115900917121,0.6703094883693632,-0.2627625981008401,-1.856568766073985,-0.6784976488845833,0.2206212645664035,18.612445094395632,15.081815940116616,17.498673654146533
11617,2024 10 17,09:01:36.796,0.718427,-0.566195,-0.303902,-0.266324,-0.995636,0.464858,0.156255,29.296875,87.463379,310.36377,0,0,0.7103634500390028,-0.5693495971905602,-0.2602151666943714,-0.2371810424296361,-0.9708097215060848,0.3894362974286207,0.2923647595452725,8.74734110518093,12.21591344908709,27.73172675823641,-0.646069,-0.24261,0.653441,-0.311047,-0.797876,-0.078127,0.047365,62.561035,87.158203,-3.845215,0,0,-0.6224901036335156,-0.2314015105871265,0.669466063950895,-0.2651768181957981,-1.8036341277702852,-0.648479116440354,0.2119584513380833,20.80987458967585,18.685635293110785,16.431479221439208
11618,2024 10 17,09:01:36.804,0.709408,-0.557783,-0.325183,-0.28262,-0.990753,0.368664,0.157231,15.686035,70.861816,328.186035,0,0,0.7103156775370526,-0.5687712673310322,-0.2634635583596528,-0.2394529903081543,-0.9718068854307804,0.3883976825571896,0.2856080715680089,9.09427579992188,15.148208576632737,42.754442170324594,-0.64865,-0.243779,0.648834,-0.314387,-0.905301,0.010254,0.0918,38.696289,50.109863,-5.371094,0,0,-0.6237980984518399,-0.2320203850577701,0.6684344607533502,-0.2676373272860082,-1.758717471381771,-0.6155424606183363,0.2059505287711792,21.70419531019206,20.256846678455243,15.341350560367248
11619,2024 10 17,09:01:36.812,0.699006,-0.54909,-0.34637,-0.299865,-0.965361,0.273934,0.206061,7.324219,72.875977,339.538574,0,0,0.7097501936602,-0.5677872039644807,-0.2676088804416702,-0.2424735907927466,-0.9714845911592416,0.3826744984293301,0.2816307179896084,9.005772959925785,18.0345969978011,57.59364876180837,-0.650345,-0.244719,0.645619,-0.316764,-0.938505,0.003906,0.091311,28.808594,37.597656,-3.90625,0,0,-0.6251254435292479,-0.2326553158048816,0.6672936877156826,-0.2700936609217078,-1.7177068478126822,-0.5845700375874194,0.2002185523326202,22.05941524468245,21.12388714453248,14.378970532348886
11620,2024 10 17,09:01:36.821,0.687154,-0.540371,-0.367945,-0.316914,-0.979034,0.213385,0.236335,0.366211,83.80127,344.665527,0,0,0.70862038397719,-0.5664163937662566,-0.2726256864195866,-0.2461956112531092,-0.9718620616012794,0.3742100235078636,0.279365932090128,8.573794861929496,21.322930647911043,71.94724267371795,-0.650345,-0.244719,0.645619,-0.316764,-0.938505,0.003906,0.091311,28.808594,37.597656,-3.90625,0,0,-0.6263864213527854,-0.2332585000146375,0.6662099533298984,-0.2724271778756224,-1.678746755422048,-0.5551462357080484,0.1947731747159892,22.39687418244833,21.947575587305856,13.46470950573144
11621,2024 10 17,09:01:36.829,0.687154,-0.540371,-0.367945,-0.316914,-0.979034,0.213385,0.236335,0.366211,83.80127,344.665527,0,0,0.7075470647783305,-0.5651141240779437,-0.2773916520986073,-0.2497315306904537,-0.9722206585212154,0.3661687723324704,0.2772143854856215,8.163415668833021,24.44684761551549,85.58315689003204,-0.651653,-0.245344,0.643358,-0.318191,-0.915067,0.011231,0.033204,15.991211,23.742676,-5.187988,0,0,-0.6276497502851461,-0.2338627750139057,0.6650673556634035,-0.2747153689818413,-1.640562767650945,-0.526827373922646,0.1866947159801897,22.076591023325918,22.037330607940564,12.532074630444868
11622,2024 10 17,09:01:36.837,0.673956,-0.531774,-0.39001,-0.333005,-1.09476,0.221198,0.245125,-2.01416,101.68457,343.383789,0,0,0.705867511539414,-0.5634471178740466,-0.2830225694936769,-0.2538952041559311,-0.9783476255951544,0.3589202337158469,0.2756099162113405,7.65453688539137,28.30873373473972,98.47318849553044,-0.652309,-0.245898,0.642378,-0.318399,-0.996124,0.06006,0.061525,5.432129,7.385254,-7.995605,0,0,-0.6288827127708888,-0.2344645362632104,0.6639328878802332,-0.2768995505327492,-1.6083408292683978,-0.4974830052265137,0.1804362301811802,21.24436792215962,21.304726777543536,11.505690648922624
11623,2024 10 17,09:01:36.846,0.659496,-0.523492,-0.412222,-0.347987,-1.262734,0.230964,0.231452,-6.835938,113.952637,337.95166,0,0,0.7035489359624432,-0.5614493619803442,-0.289482541018993,-0.2585997939481345,-0.9925669443153968,0.3525224220300545,0.2734020204007734,6.930013141121801,32.59092889800273,110.4471120707539,-0.652828,-0.246423,0.64182,-0.318054,-1.013703,0.058596,0.012696,0.427246,4.821777,-10.681152,0,0,-0.6300799771323444,-0.2350624594500498,0.6628272434862215,-0.2789572730061117,-1.578608937804978,-0.4696790549651879,0.1720492186721212,20.203511826051635,20.48057928866636,10.396348516476491
11624,2024 10 17,09:01:36.854,0.644011,-0.515532,-0.434009,-0.362093,-1.454146,0.261238,0.158696,-14.160156,121.21582,331.176758,0,0,0.700572039164321,-0.5591534938813271,-0.2967088639680433,-0.2637744542507277,-1.015645897099627,0.3479582009285518,0.2676667193807348,5.875504684065711,37.02217345310259,121.4835943672162,-0.653385,-0.246905,0.641501,-0.317178,-1.032258,0.061525,0.001953,-4.272461,1.342773,-13.73291,0,0,-0.6312452282757272,-0.2356545864775473,0.6617609313119104,-0.2808683093558061,-1.551291390914729,-0.4431188522169285,0.1635444077385151,18.97971318474905,19.52368897423304,9.189885590652665
11625,2024 10 17,09:01:36.862,0.627686,-0.507751,-0.45487,-0.375889,-1.61333,0.268563,0.172857,-23.4375,118.896484,326.782227,0,0,0.6969277372061049,-0.5565833691872607,-0.3046169207696412,-0.2693801815381914,-1.0455301022446457,0.3439884408821242,0.262926233411698,4.409854449862425,41.11588898044746,131.7485259988554,-0.654011,-0.247379,0.641295,-0.315934,-1.067904,0.076662,-0.015137,-7.080078,1.464844,-16.235352,0,0,-0.6323835168619408,-0.2362408071536699,0.6607376347463149,-0.2826215938880158,-1.5271220213689924,-0.4171298096060821,0.1546103373515894,17.6767236255116,18.620746725521386,7.918623711120032
11626,2024 10 17,09:01:36.871,0.6106,-0.4998,-0.474553,-0.390086,-1.718802,0.23487,0.218757,-34.362793,109.375,328.979492,0,0,0.6926113503457996,-0.5537442007278977,-0.3131137247311591,-0.2754154724612818,-1.0791936971324132,0.338532518838018,0.2607177717411131,2.471222077369303,44.52884453142509,141.61007429891262,-0.654011,-0.247379,0.641295,-0.315934,-1.067904,0.076662,-0.015137,-7.080078,1.464844,-16.235352,0,0,-0.6334648910188438,-0.2367977167959864,0.659765503008999,-0.284287214193615,-1.5041611203005427,-0.392440219125778,0.1461229704840099,16.43888354423602,17.762951589245315,6.710924925564031
11627,2024 10 17,09:01:36.879,0.6106,-0.4998,-0.474553,-0.390086,-1.718802,0.23487,0.218757,-34.362793,109.375,328.979492,0,0,0.6885107828285095,-0.5510469906915026,-0.3211856884946011,-0.2811489988382177,-1.1111741122757923,0.3333493928961171,0.2586197331540574,0.6295213235008372,47.77115230485383,150.97854518396696,-0.654819,-0.247864,0.64093,-0.314617,-1.052278,0.074221,0.015625,-6.835938,4.150391,-17.700195,0,0,-0.6345325964679016,-0.2373510309561871,0.658823727858549,-0.2858037034839343,-1.4815669642855156,-0.3691071581694891,0.1395980719598094,15.27514246702422,17.08232355978305,5.490368929285829
11628,2024 10 17,09:01:36.887,0.592864,-0.49121,-0.493017,-0.405166,-1.726127,0.147954,0.315439,-42.419434,96.435547,336.181641,0,0,0.683728443687084,-0.5480551411569274,-0.329777254069871,-0.2873498488963069,-1.141921756662003,0.3240796232513112,0.2614606964963545,-1.5229264426742048,50.20437203961113,160.2386999747686,-0.655754,-0.248376,0.640397,-0.313349,-1.051302,0.072268,0.006836,-5.615234,5.981445,-18.310547,0,0,-0.6355936666445064,-0.2379022794083777,0.6579023914656215,-0.2871809683097376,-1.4600537160712397,-0.3470384002610146,0.1329599683618189,14.230623643673008,16.527279631793895,4.300323132821537
