frame,date,time,quaternion_x,quaternion_y,quaternion_z,quaternion_w,accel_x,accel_y,accel_z,gyro_x,gyro_y,gyro_z,HS,TO
3170,2024 10 07,05:24:36.407,0.411371,-0.619606,-0.410765,-0.527384,-0.960479,-0.067385,-0.054201,-2.502441,5.79834,-7.507324,0,0
3171,2024 10 07,05:24:36.415,0.411469,-0.62029,-0.410261,-0.526896,-0.955596,-0.064943,-0.048341,-4.02832,5.79834,-10.375977,0,0
3172,2024 10 07,05:24:36.423,0.411579,-0.621161,-0.409555,-0.526334,-0.977081,-0.064455,-0.037111,-4.943848,6.713867,-13.183594,0,0
3173,2024 10 07,05:24:36.432,0.411579,-0.621161,-0.409555,-0.526334,-0.977081,-0.064455,-0.037111,-4.943848,6.713867,-13.183594,0,0
3174,2024 10 07,05:24:36.440,0.411839,-0.6222,-0.408624,-0.525626,-0.976104,-0.085452,-0.026856,-5.67627,6.103516,-17.51709,0,0
3175,2024 10 07,05:24:36.448,0.412341,-0.623398,-0.407492,-0.524691,-0.983428,-0.087893,-0.045412,-4.699707,7.324219,-22.216797,0,0
3176,2024 10 07,05:24:36.457,0.413163,-0.624674,-0.406121,-0.523588,-0.990265,-0.101566,-0.014161,-3.234863,5.615234,-27.160645,0,0
3177,2024 10 07,05:24:36.465,0.414272,-0.626216,-0.404596,-0.522048,-1.029817,-0.104984,-0.024903,-0.854492,9.887695,-33.874512,0,0
3178,2024 10 07,05:24:36.473,0.415853,-0.627953,-0.402804,-0.520087,-1.109897,-0.090823,0.001465,1.953125,8.850098,-41.748047,0,0
3179,2024 10 07,05:24:36.482,0.415853,-0.627953,-0.402804,-0.520087,-1.109897,-0.090823,0.001465,1.953125,8.850098,-41.748047,0,0
3180,2024 10 07,05:24:36.490,0.41803,-0.629812,-0.400484,-0.517881,-1.198767,-0.086917,-0.013672,3.662109,6.225586,-51.452637,0,0
3181,2024 10 07,05:24:36.498,0.420975,-0.631884,-0.397595,-0.51519,-1.278359,-0.061037,0.02002,7.446289,5.310059,-64.453125,0,0
3182,2024 10 07,05:24:36.507,0.424677,-0.634106,-0.394011,-0.512168,-1.281777,-0.097659,-0.00293,8.483887,-0.915527,-76.171875,0,0
3183,2024 10 07,05:24:36.515,0.429101,-0.636403,-0.38958,-0.509009,-1.287637,-0.093265,0.018067,9.155273,-4.699707,-87.402344,0,0
3184,2024 10 07,05:24:36.523,0.43413,-0.6389,-0.38441,-0.505536,-1.302286,-0.139653,0.052736,10.070801,-8.056641,-98.571777,0,0
3185,2024 10 07,05:24:36.532,0.43413,-0.6389,-0.38441,-0.505536,-1.302286,-0.139653,0.052736,10.070801,-8.056641,-98.571777,0,0
3186,2024 10 07,05:24:36.540,0.439806,-0.641619,-0.378667,-0.501504,-1.288125,-0.169927,0.140629,12.939453,-7.019043,-110.168457,0,0
3187,2024 10 07,05:24:36.548,0.446097,-0.644569,-0.372494,-0.496767,-1.253456,-0.26661,0.258309,19.165039,-6.225586,-121.154785,0,0
3188,2024 10 07,05:24:36.557,0.453227,-0.647546,-0.366468,-0.490887,-1.261757,-0.312021,0.354015,31.738281,-0.244141,-130.249023,0,0
3189,2024 10 07,05:24:36.565,0.461285,-0.650429,-0.36071,-0.483783,-1.300821,-0.298837,0.411145,46.142578,5.310059,-138.61084,0,0
3190,2024 10 07,05:24:36.573,0.470116,-0.652898,-0.355242,-0.47594,-1.272012,-0.322764,0.414075,59.204102,5.310059,-142.76123,0,0
3191,2024 10 07,05:24:36.582,0.470116,-0.652898,-0.355242,-0.47594,-1.272012,-0.322764,0.414075,59.204102,5.310059,-142.76123,0,0
3192,2024 10 07,05:24:36.590,0.479633,-0.654774,-0.350206,-0.467525,-1.270547,-0.241218,0.44142,72.20459,6.286621,-141.662598,0,0
3193,2024 10 07,05:24:36.598,0.489411,-0.655718,-0.345781,-0.459289,-1.257851,-0.268075,0.435072,79.101563,0.854492,-133.056641,0,0
3194,2024 10 07,05:24:36.607,0.499677,-0.655196,-0.342685,-0.451229,-1.22074,0.14893,0.413587,102.600098,-4.02832,-116.760254,0,0
3195,2024 10 07,05:24:36.615,0.510045,-0.652537,-0.340817,-0.444853,-1.158727,0.356945,0.451186,111.38916,-23.071289,-90.087891,0,0
3196,2024 10 07,05:24:36.623,0.520126,-0.647921,-0.340191,-0.440383,-0.950713,0.535173,0.374035,118.408203,-39.001465,-61.340332,0,0
3197,2024 10 07,05:24:36.632,0.520126,-0.647921,-0.340191,-0.440383,-0.950713,0.535173,0.374035,118.408203,-39.001465,-61.340332,0,0
3198,2024 10 07,05:24:36.640,0.529383,-0.642014,-0.340665,-0.43763,-0.732444,0.724143,0.553728,117.736816,-43.762207,-33.752441,0,0
3199,2024 10 07,05:24:36.648,0.53686,-0.636106,-0.342609,-0.435626,-0.665059,0.739769,0.46437,107.116699,-32.226563,-13.73291,0,0
3200,2024 10 07,05:24:36.657,0.543036,-0.630794,-0.344981,-0.433819,-0.525407,0.802271,0.526383,94.360352,-22.094727,-7.8125,0,0
3201,2024 10 07,05:24:36.665,0.547729,-0.626657,-0.34767,-0.431763,-0.434095,0.852077,0.524918,77.941895,-6.164551,-4.577637,0,0
3202,2024 10 07,05:24:36.673,0.550704,-0.623863,-0.350767,-0.429514,-0.386731,0.918485,0.519547,59.631348,12.817383,1.037598,0,0
3203,2024 10 07,05:24:36.682,0.550704,-0.623863,-0.350767,-0.429514,-0.386731,0.918485,0.519547,59.631348,12.817383,1.037598,0,0
3204,2024 10 07,05:24:36.690,0.551624,-0.622575,-0.35459,-0.427057,-0.459975,0.973662,0.48732,39.245605,34.179688,9.338379,0,0
3205,2024 10 07,05:24:36.698,0.550487,-0.622658,-0.359037,-0.42468,-0.572283,1.004425,0.425306,18.493652,51.940918,18.310547,0,0
3206,2024 10 07,05:24:36.707,0.547493,-0.623894,-0.363903,-0.422589,-0.665548,0.983428,0.395032,-0.488281,65.673828,26.977539,0,0
3207,2024 10 07,05:24:36.715,0.542924,-0.625975,-0.369243,-0.420772,-0.720237,0.952666,0.342296,-14.709473,76.171875,36.560059,0,0
3208,2024 10 07,05:24:36.723,0.537027,-0.628506,-0.375174,-0.419317,-0.774926,0.911161,0.287118,-24.475098,85.632324,48.034668,0,0
3209,2024 10 07,05:24:36.732,0.537027,-0.628506,-0.375174,-0.419317,-0.774926,0.911161,0.287118,-24.475098,85.632324,48.034668,0,0
3210,2024 10 07,05:24:36.740,0.529987,-0.631182,-0.381896,-0.418184,-0.869655,0.867214,0.217292,-30.456543,93.444824,61.096191,0,0
3211,2024 10 07,05:24:36.748,0.522106,-0.633554,-0.389432,-0.417561,-0.965361,0.841823,0.164556,-31.982422,95.703125,75.98877,0,0
3212,2024 10 07,05:24:36.757,0.513698,-0.635191,-0.397706,-0.417705,-1.038118,0.78518,0.110843,-30.578613,93.078613,91.97998,0,0
3213,2024 10 07,05:24:36.765,0.504957,-0.635834,-0.406771,-0.418653,-1.092319,0.735862,0.097171,-26.245117,88.378906,109.069824,0,0
3214,2024 10 07,05:24:36.773,0.496047,-0.635316,-0.416617,-0.420407,-1.111362,0.707541,0.076174,-20.629883,82.336426,125.610352,0,0
3215,2024 10 07,05:24:36.782,0.486983,-0.633717,-0.427192,-0.422796,-1.119175,0.686544,0.094241,-15.563965,78.063965,140.258789,0,0
3216,2024 10 07,05:24:36.790,0.486983,-0.633717,-0.427192,-0.422796,-1.119175,0.686544,0.094241,-15.563965,78.063965,140.258789,0,0
3217,2024 10 07,05:24:36.798,0.47759,-0.631291,-0.438396,-0.425664,-1.16361,0.697287,0.117679,-13.366699,75.98877,152.709961,0,0
3218,2024 10 07,05:24:36.807,0.46781,-0.628169,-0.44994,-0.429081,-1.148961,0.688009,0.176275,-14.099121,72.021484,163.024902,0,0
3219,2024 10 07,05:24:36.815,0.457512,-0.624595,-0.461693,-0.432901,-1.118686,0.65041,0.247078,-16.784668,71.594238,171.447754,0,0
3220,2024 10 07,05:24:36.823,0.446447,-0.620899,-0.473716,-0.436764,-1.115268,0.583026,0.287606,-20.690918,77.270508,177.978516,0,0
3221,2024 10 07,05:24:36.832,0.434561,-0.617308,-0.485976,-0.440359,-1.147984,0.510269,0.32374,-24.536133,86.05957,181.70166,0,0
3222,2024 10 07,05:24:36.840,0.434561,-0.617308,-0.485976,-0.440359,-1.147984,0.510269,0.32374,-24.536133,86.05957,181.70166,0,0
3223,2024 10 07,05:24:36.848,0.421915,-0.613921,-0.498383,-0.443511,-1.221717,0.423841,0.327158,-27.587891,95.153809,183.349609,0,0
3224,2024 10 07,05:24:36.857,0.408554,-0.610793,-0.51083,-0.446171,-1.338908,0.348155,0.271981,-31.25,104.003906,183.654785,0,0
3225,2024 10 07,05:24:36.865,0.394603,-0.607847,-0.523008,-0.448636,-1.499069,0.242683,0.173345,-37.17041,107.60498,183.349609,0,0
3226,2024 10 07,05:24:36.873,0.380357,-0.604845,-0.534505,-0.451437,-1.619678,0.100101,0.101077,-45.043945,102.539063,182.861328,0,0
3227,2024 10 07,05:24:36.882,0.366071,-0.601591,-0.545121,-0.454888,-1.643117,-0.092776,0.049806,-53.100586,92.834473,182.312012,0,0
3228,2024 10 07,05:24:36.890,0.366071,-0.601591,-0.545121,-0.454888,-1.643117,-0.092776,0.049806,-53.100586,92.834473,182.312012,0,0
3229,2024 10 07,05:24:36.898,0.351901,-0.598113,-0.554769,-0.458974,-1.643117,-0.347667,0.020508,-60.241699,82.946777,179.931641,0,0
3230,2024 10 07,05:24:36.907,0.338318,-0.594425,-0.563402,-0.463443,-1.554247,-0.60744,0.037111,-62.37793,71.289063,173.034668,0,0
3231,2024 10 07,05:24:36.915,0.325767,-0.590735,-0.570998,-0.467835,-1.457076,-0.858425,0.032716,-59.509277,61.157227,160.27832,0,0
3232,2024 10 07,05:24:36.923,0.314595,-0.587229,-0.577641,-0.471724,-1.346233,-1.039582,0.018067,-52.185059,53.955078,143.920898,0,0
3233,2024 10 07,05:24:36.932,0.304798,-0.584089,-0.583471,-0.474868,-1.26371,-1.174352,-0.041505,-43.945313,49.377441,126.708984,0,0
3234,2024 10 07,05:24:36.940,0.304798,-0.584089,-0.583471,-0.474868,-1.26371,-1.174352,-0.041505,-43.945313,49.377441,126.708984,0,0
3235,2024 10 07,05:24:36.948,0.296364,-0.581407,-0.588464,-0.477331,-1.226112,-1.296915,-0.133793,-37.231445,44.067383,108.520508,0,0
3236,2024 10 07,05:24:36.957,0.289459,-0.579251,-0.592343,-0.479386,-1.172399,-1.412153,-0.233406,-32.775879,35.15625,87.768555,0,0
3237,2024 10 07,05:24:36.965,0.284128,-0.577749,-0.594948,-0.48116,-1.110385,-1.54741,-0.307138,-30.395508,26.550293,65.795898,0,0
3238,2024 10 07,05:24:36.973,0.280272,-0.576957,-0.596251,-0.482755,-1.104038,-1.683157,-0.370617,-29.418945,16.906738,44.372559,0,0
3239,2024 10 07,05:24:36.982,0.278108,-0.576714,-0.596228,-0.484323,-0.989288,-1.820368,-0.34962,-26.550293,3.967285,23.193359,0,0
3240,2024 10 07,05:24:36.990,0.278108,-0.576714,-0.596228,-0.484323,-0.989288,-1.820368,-0.34962,-26.550293,3.967285,23.193359,0,0
3241,2024 10 07,05:24:36.998,0.277615,-0.577003,-0.595146,-0.48559,-0.903348,-1.941465,-0.321787,-20.263672,-5.310059,2.868652,0,0
3242,2024 10 07,05:24:37.007,0.278792,-0.577889,-0.593254,-0.486178,-0.838404,-2.038636,-0.295419,-10.314941,-10.986328,-17.578125,0,0
3243,2024 10 07,05:24:37.015,0.281586,-0.579278,-0.59083,-0.485866,-0.725608,-2.026917,-0.258797,2.075195,-14.343262,-35.15625,0,0
3244,2024 10 07,05:24:37.023,0.28558,-0.581047,-0.588198,-0.484615,-0.638203,-1.857479,-0.258797,13.671875,-15.50293,-48.095703,0,0
3245,2024 10 07,05:24:37.032,0.29049,-0.582966,-0.58535,-0.482837,-0.457533,-1.558153,-0.248543,20.568848,-18.005371,-57.617188,0,0
3246,2024 10 07,05:24:37.040,0.29049,-0.582966,-0.58535,-0.482837,-0.457533,-1.558153,-0.248543,20.568848,-18.005371,-57.617188,0,0
3247,2024 10 07,05:24:37.048,0.295705,-0.585078,-0.582232,-0.480883,-0.801782,-0.87405,-0.15186,21.118164,-18.798828,-64.27002,0,0
3248,2024 10 07,05:24:37.057,0.310137,-0.595992,-0.582031,-0.458093,-0.695822,2.023011,-4.815088,179.626465,14.282227,-277.587891,0,0
3249,2024 10 07,05:24:37.065,0.342107,-0.594634,-0.559679,-0.4649,1.411176,1.168004,3.734001,65.856934,-281.005859,-312.805176,1,0
3250,2024 10 07,05:24:37.073,0.349953,-0.613499,-0.544855,-0.451979,-3.531846,-0.733421,-2.211982,-36.560059,99.609375,-301.452637,0,0
3251,2024 10 07,05:24:37.082,0.366256,-0.618891,-0.523304,-0.457146,-1.972716,-0.860866,-0.189947,-72.814941,-246.459961,-221.313477,0,0
3252,2024 10 07,05:24:37.090,0.366256,-0.618891,-0.523304,-0.457146,-1.972716,-0.860866,-0.189947,-72.814941,-246.459961,-221.313477,0,0
3253,2024 10 07,05:24:37.098,0.380021,-0.619066,-0.506767,-0.46425,-1.070833,-0.704611,0.375988,-10.803223,-160.339355,-135.620117,0,0
3254,2024 10 07,05:24:37.107,0.386619,-0.619322,-0.498933,-0.466938,-1.168981,-0.062502,0.0459,-15.563965,-84.350586,-63.537598,0,0
3255,2024 10 07,05:24:37.115,0.390983,-0.618857,-0.492043,-0.471214,-0.85989,-0.135746,-0.031739,-29.602051,-84.472656,-50.720215,0,0
3256,2024 10 07,05:24:37.123,0.396574,-0.618113,-0.485856,-0.473929,-0.835963,-0.179693,-0.089358,1.098633,-81.176758,-58.105469,0,0
3257,2024 10 07,05:24:37.132,0.402592,-0.616847,-0.480883,-0.475574,-1.009308,-0.152348,0.244148,13.427734,-69.580078,-49.316406,0,0
3258,2024 10 07,05:24:37.140,0.402592,-0.616847,-0.480883,-0.475574,-1.009308,-0.152348,0.244148,13.427734,-69.580078,-49.316406,0,0
3259,2024 10 07,05:24:37.148,0.407073,-0.615351,-0.476866,-0.477738,-1.124058,-0.032228,0.26075,-0.366211,-67.687988,-28.930664,0,0
3260,2024 10 07,05:24:37.157,0.410392,-0.613413,-0.472391,-0.48182,-0.867214,-0.04004,-0.027833,-16.540527,-80.444336,-18.920898,0,0
3261,2024 10 07,05:24:37.165,0.413195,-0.611887,-0.468222,-0.48542,-0.734397,-0.08887,-0.219733,-14.221191,-60.48584,-19.897461,0,0
3262,2024 10 07,05:24:37.173,0.415183,-0.611119,-0.465275,-0.48752,-0.900906,-0.08594,0.061525,-9.765625,-36.376953,-15.869141,0,0
3263,2024 10 07,05:24:37.182,0.416351,-0.610631,-0.463064,-0.489239,-0.936552,-0.070803,-0.030274,-11.291504,-31.25,-9.82666,0,0
3264,2024 10 07,05:24:37.190,0.417559,-0.609966,-0.460987,-0.490997,-0.880398,-0.090335,-0.018555,-8.178711,-29.724121,-9.399414,0,0
3265,2024 10 07,05:24:37.198,0.417559,-0.609966,-0.460987,-0.490997,-0.880398,-0.090335,-0.018555,-8.178711,-29.724121,-9.399414,0,0
3266,2024 10 07,05:24:37.207,0.418805,-0.609476,-0.459495,-0.491942,-0.930204,-0.067873,0.008301,-0.976563,-20.263672,-10.375977,0,0
3267,2024 10 07,05:24:37.215,0.420057,-0.608976,-0.458277,-0.492628,-0.945341,-0.072756,0.021973,0.671387,-19.53125,-9.277344,0,0
3268,2024 10 07,05:24:37.223,0.421403,-0.608344,-0.457197,-0.493263,-0.917508,-0.076662,-0.007813,4.089355,-18.859863,-8.361816,0,0
3269,2024 10 07,05:24:37.232,0.422803,-0.607681,-0.456394,-0.493625,-0.940947,-0.055666,0.005371,6.958008,-16.418457,-8.178711,0,0
3270,2024 10 07,05:24:37.240,0.424241,-0.607043,-0.455622,-0.49389,-0.944365,-0.02295,0.031251,6.835938,-15.50293,-9.277344,0,0
3271,2024 10 07,05:24:37.248,0.424241,-0.607043,-0.455622,-0.49389,-0.944365,-0.02295,0.031251,6.835938,-15.50293,-9.277344,0,0
3272,2024 10 07,05:24:37.257,0.425581,-0.606574,-0.454697,-0.494165,-0.949736,-0.030763,0.018067,4.211426,-15.869141,-10.742188,0,0
3273,2024 10 07,05:24:37.265,0.426841,-0.606205,-0.453615,-0.494525,-0.911161,-0.04883,-0.02002,2.075195,-15.197754,-11.047363,0,0
3274,2024 10 07,05:24:37.273,0.427966,-0.605976,-0.452591,-0.494773,-0.948271,-0.031251,0.039064,1.77002,-12.268066,-11.413574,0,0
3275,2024 10 07,05:24:37.282,0.429144,-0.605805,-0.451388,-0.495061,-0.975127,-0.043947,0.058107,0.0,-16.113281,-13.305664,0,0
3276,2024 10 07,05:24:37.290,0.430496,-0.605551,-0.449817,-0.495626,-0.927274,-0.038087,-0.050295,-1.953125,-20.263672,-15.197754,0,0
3277,2024 10 07,05:24:37.298,0.430496,-0.605551,-0.449817,-0.495626,-0.927274,-0.038087,-0.050295,-1.953125,-20.263672,-15.197754,0,0
3278,2024 10 07,05:24:37.307,0.43185,-0.605349,-0.448074,-0.496274,-0.920927,-0.059084,0.024415,-2.258301,-19.592285,-15.869141,0,0
3279,2024 10 07,05:24:37.315,0.43315,-0.605196,-0.44634,-0.49689,-0.904324,-0.086428,-0.050783,-3.417969,-20.385742,-15.319824,0,0
3280,2024 10 07,05:24:37.323,0.434552,-0.604886,-0.444678,-0.497532,-0.918973,-0.059084,0.003418,-1.342773,-20.507813,-14.648438,0,0
3281,2024 10 07,05:24:37.332,0.435904,-0.604606,-0.442952,-0.49823,-0.929716,-0.077639,-0.00586,-2.380371,-21.66748,-14.770508,0,0
3282,2024 10 07,05:24:37.340,0.437387,-0.604177,-0.441123,-0.499073,-0.933622,-0.095218,-0.00586,-2.990723,-25.268555,-14.648438,0,0
3283,2024 10 07,05:24:37.348,0.437387,-0.604177,-0.441123,-0.499073,-0.933622,-0.095218,-0.00586,-2.990723,-25.268555,-14.648438,0,0
3284,2024 10 07,05:24:37.357,0.438993,-0.603582,-0.439203,-0.500075,-0.907254,-0.097171,-0.038087,-1.831055,-28.015137,-14.404297,0,0
3285,2024 10 07,05:24:37.365,0.44076,-0.602943,-0.437313,-0.500947,-0.987335,-0.055177,0.027833,0.366211,-27.22168,-16.418457,0,0
3286,2024 10 07,05:24:37.373,0.442755,-0.602351,-0.435093,-0.501831,-0.976592,-0.078127,0.035646,-0.427246,-31.738281,-20.446777,0,0
3287,2024 10 07,05:24:37.382,0.444941,-0.601812,-0.432528,-0.502761,-0.954131,-0.059572,-0.014649,-2.746582,-33.203125,-24.108887,0,0
3288,2024 10 07,05:24:37.390,0.447148,-0.601421,-0.429582,-0.503797,-0.928251,-0.097659,0.015137,-4.577637,-34.729004,-26.855469,0,0
3289,2024 10 07,05:24:37.398,0.447148,-0.601421,-0.429582,-0.503797,-0.928251,-0.097659,0.015137,-4.577637,-34.729004,-26.855469,0,0
3290,2024 10 07,05:24:37.407,0.449447,-0.601185,-0.426686,-0.504493,-0.955107,-0.062502,-0.069826,-2.685547,-30.517578,-29.23584,0,0
3291,2024 10 07,05:24:37.415,0.451833,-0.601168,-0.423869,-0.504756,-0.991241,-0.171392,-0.090335,0.671387,-26.184082,-33.02002,0,0
3292,2024 10 07,05:24:37.423,0.455088,-0.601147,-0.421335,-0.503978,-1.042512,-0.127934,-0.006836,17.089844,-21.118164,-42.602539,0,0
3293,2024 10 07,05:24:37.432,0.459397,-0.601342,-0.419216,-0.501598,-1.107456,-0.196783,-0.029298,31.25,-12.084961,-55.908203,0,0
3294,2024 10 07,05:24:37.440,0.465197,-0.601436,-0.417364,-0.497668,-1.214881,-0.093265,-0.126469,50.476074,-10.375977,-70.678711,0,0
3295,2024 10 07,05:24:37.448,0.465197,-0.601436,-0.417364,-0.497668,-1.214881,-0.093265,-0.126469,50.476074,-10.375977,-70.678711,0,0
3296,2024 10 07,05:24:37.457,0.472344,-0.601213,-0.414919,-0.49323,-1.265175,-0.074709,-0.016602,58.654785,-17.883301,-83.80127,0,0
3297,2024 10 07,05:24:37.465,0.480411,-0.600988,-0.411579,-0.488489,-1.399945,-0.06592,-0.028809,60.668945,-27.832031,-97.290039,0,0
3298,2024 10 07,05:24:37.473,0.48939,-0.600911,-0.40682,-0.483633,-1.570849,-0.004883,0.001465,56.030273,-37.414551,-115.234375,0,0
3299,2024 10 07,05:24:37.482,0.499197,-0.601215,-0.400275,-0.478668,-1.614307,0.064943,0.021973,52.124023,-50.170898,-136.169434,0,0
3300,2024 10 07,05:24:37.490,0.509302,-0.602463,-0.391747,-0.47348,-1.674368,0.063967,-0.067385,36.560059,-53.527832,-156.799316,0,0
3301,2024 10 07,05:24:37.498,0.509302,-0.602463,-0.391747,-0.47348,-1.674368,0.063967,-0.067385,36.560059,-53.527832,-156.799316,0,0
3302,2024 10 07,05:24:37.507,0.519457,-0.604793,-0.380682,-0.468478,-1.718314,0.111332,-0.060549,9.277344,-61.767578,-179.382324,0,0
3303,2024 10 07,05:24:37.515,0.529262,-0.608938,-0.367631,-0.462519,-2.007874,0.24659,-0.11182,-2.13623,-58.959961,-208.496094,0,0
3304,2024 10 07,05:24:37.523,0.53937,-0.614561,-0.351196,-0.456131,-2.002991,0.202643,-0.038575,-29.174805,-67.382813,-245.056152,0,0
3305,2024 10 07,05:24:37.532,0.550249,-0.621926,-0.332021,-0.447433,-2.460524,0.374523,-0.005371,-35.461426,-61.035156,-293.701172,0,0
3306,2024 10 07,05:24:37.540,0.563528,-0.629678,-0.309248,-0.436242,-2.929777,0.250984,0.162114,-23.254395,-85.021973,-353.271484,0,0
3307,2024 10 07,05:24:37.548,0.563528,-0.629678,-0.309248,-0.436242,-2.929777,0.250984,0.162114,-23.254395,-85.021973,-353.271484,0,0
3308,2024 10 07,05:24:37.557,0.580559,-0.635977,-0.280893,-0.423773,-3.322855,0.383801,0.575701,-13.183594,-133.850098,-417.358398,0,0
3309,2024 10 07,05:24:37.565,0.600699,-0.640743,-0.246489,-0.409697,-4.254524,-0.046876,0.598651,-1.831055,-185.72998,-488.40332,0,0
3310,2024 10 07,05:24:37.573,0.624732,-0.642452,-0.204773,-0.393743,-4.902005,-0.684591,0.746117,21.972656,-244.995117,-566.894531,0,0
3311,2024 10 07,05:24:37.582,0.650711,-0.641141,-0.158707,-0.3746,-4.693502,-0.780297,0.66213,45.593262,-271.54541,-612.060547,0,0
3312,2024 10 07,05:24:37.590,0.67544,-0.636565,-0.111371,-0.355193,-4.196417,0.125492,0.709494,57.006836,-278.747559,-604.431152,0,0
3313,2024 10 07,05:24:37.598,0.69804,-0.630447,-0.065712,-0.333104,-4.072878,0.530778,1.148961,55.725098,-239.685059,-608.825684,0,0
3314,2024 10 07,05:24:37.607,0.69804,-0.630447,-0.065712,-0.333104,-4.072878,0.530778,1.148961,55.725098,-239.685059,-608.825684,0,0
3315,2024 10 07,05:24:37.615,0.719662,-0.621778,-0.021442,-0.30825,-3.279397,1.09476,1.898495,82.03125,-232.23877,-616.943359,0,0
3316,2024 10 07,05:24:37.623,0.740061,-0.612197,0.01825,-0.277832,-2.532792,1.782281,2.127018,112.182617,-123.962402,-622.131348,0,1
3317,2024 10 07,05:24:37.632,0.758462,-0.603876,0.046767,-0.240586,-2.204169,1.871151,1.851131,89.782715,34.545898,-576.965332,0,0
3318,2024 10 07,05:24:37.640,0.773738,-0.594967,0.064387,-0.20784,2.186102,1.664602,1.750542,138.183594,13.000488,-394.348145,0,0
3319,2024 10 07,05:24:37.648,0.782523,-0.582722,0.064263,-0.209673,0.827174,5.701834,1.607471,160.949707,41.748047,111.755371,0,0
3320,2024 10 07,05:24:37.657,0.782523,-0.582722,0.064263,-0.209673,0.827174,5.701834,1.607471,160.949707,41.748047,111.755371,0,0
3321,2024 10 07,05:24:37.665,0.776379,-0.589376,0.034338,-0.220661,-2.846278,2.425855,-0.182135,-13.61084,178.039551,353.820801,0,0
3322,2024 10 07,05:24:37.673,0.765581,-0.595189,0.01265,-0.243877,-1.591846,1.702689,1.66802,-84.472656,33.935547,356.994629,0,0
3323,2024 10 07,05:24:37.682,0.754448,-0.603622,-0.009015,-0.257621,-1.215369,1.050325,0.786645,-95.397949,128.479004,270.019531,0,0
3324,2024 10 07,05:24:37.690,0.744313,-0.612238,-0.028323,-0.265255,-0.368664,0.993683,1.463424,-80.078125,149.291992,211.547852,0,0
3325,2024 10 07,05:24:37.698,0.733379,-0.62227,-0.052135,-0.268733,-0.41847,1.390179,0.637715,-85.632324,226.257324,232.910156,0,0
3326,2024 10 07,05:24:37.707,0.733379,-0.62227,-0.052135,-0.268733,-0.41847,1.390179,0.637715,-85.632324,226.257324,232.910156,0,0
3327,2024 10 07,05:24:37.715,0.720067,-0.632219,-0.081254,-0.274229,-0.920927,1.496628,0.794458,-93.87207,245.422363,300.78125,0,0
3328,2024 10 07,05:24:37.723,0.703719,-0.640996,-0.115061,-0.284016,-1.35844,1.448286,0.394543,-92.163086,247.436523,379.089355,0,0
3329,2024 10 07,05:24:37.732,0.684833,-0.647393,-0.150154,-0.298899,-1.451216,1.201697,0.45558,-94.482422,208.679199,431.45752,0,0
3330,2024 10 07,05:24:37.740,0.664269,-0.651696,-0.186366,-0.315129,-1.638234,0.886746,0.279305,-86.181641,212.95166,453.24707,0,0
3331,2024 10 07,05:24:37.748,0.642919,-0.65346,-0.222928,-0.331584,-1.586962,0.70217,0.294931,-71.350098,204.772949,464.660645,0,0
3332,2024 10 07,05:24:37.757,0.642919,-0.65346,-0.222928,-0.331584,-1.586962,0.70217,0.294931,-71.350098,204.772949,464.660645,0,0
3333,2024 10 07,05:24:37.765,0.620977,-0.652858,-0.259741,-0.347417,-1.652882,0.5215,0.172857,-55.541992,203.918457,470.336914,0,0
3334,2024 10 07,05:24:37.773,0.599094,-0.649577,-0.296261,-0.362443,-1.698782,0.381359,0.184576,-33.447266,199.035645,468.933105,0,0
3335,2024 10 07,05:24:37.782,0.577268,-0.64404,-0.333027,-0.37559,-1.734916,0.351085,0.140141,-10.009766,207.397461,467.041016,0,0
3336,2024 10 07,05:24:37.790,0.554825,-0.63659,-0.370456,-0.386891,-1.929258,0.401379,0.058596,5.371094,221.801758,471.801758,0,0
3337,2024 10 07,05:24:37.798,0.531052,-0.627324,-0.408483,-0.396976,-2.20661,0.375988,-0.038087,13.366699,231.018066,483.398438,0,0
3338,2024 10 07,05:24:37.807,0.531052,-0.627324,-0.408483,-0.396976,-2.20661,0.375988,-0.038087,13.366699,231.018066,483.398438,0,0
3339,2024 10 07,05:24:37.815,0.505854,-0.616197,-0.446413,-0.406359,-2.494705,0.320322,0.011719,16.113281,234.069824,493.835449,0,0
3340,2024 10 07,05:24:37.823,0.478919,-0.603458,-0.484193,-0.414768,-2.697348,0.103519,-0.021973,16.113281,244.018555,504.943848,0,0
3341,2024 10 07,05:24:37.832,0.449522,-0.589503,-0.521905,-0.421937,-3.074313,-0.244636,-0.193854,10.986328,261.901855,518.066406,0,0
3342,2024 10 07,05:24:37.840,0.418179,-0.574651,-0.558169,-0.428194,-3.488388,-0.882839,-0.265633,-1.525879,266.540527,516.906738,0,0
3343,2024 10 07,05:24:37.848,0.385917,-0.559698,-0.591783,-0.433127,-3.859493,-1.812067,-0.542009,-11.352539,268.676758,500.12207,0,0
3344,2024 10 07,05:24:37.857,0.385917,-0.559698,-0.591783,-0.433127,-3.859493,-1.812067,-0.542009,-11.352539,268.676758,500.12207,0,0
3345,2024 10 07,05:24:37.865,0.354094,-0.545148,-0.621746,-0.436879,-4.199835,-2.892178,-0.694845,-22.460938,260.253906,470.092773,0,0
3346,2024 10 07,05:24:37.873,0.324101,-0.531651,-0.647072,-0.440004,-4.336558,-4.062136,-0.901883,-38.146973,233.764648,424.01123,0,0
3347,2024 10 07,05:24:37.882,0.298148,-0.520653,-0.666027,-0.443212,-3.535264,-4.853176,-1.623096,-61.157227,192.138672,342.773438,0,0
3348,2024 10 07,05:24:37.890,0.276215,-0.51542,-0.677169,-0.446643,-2.314524,-5.656911,-2.346263,-101.623535,171.447754,227.233887,0,0
3349,2024 10 07,05:24:37.898,0.256732,-0.518467,-0.680088,-0.45029,-2.118717,-7.292215,-3.309183,-164.794922,175.537109,107.543945,0,0
3350,2024 10 07,05:24:37.907,0.256732,-0.518467,-0.680088,-0.45029,-2.118717,-7.292215,-3.309183,-164.794922,175.537109,107.543945,0,0
3351,2024 10 07,05:24:37.915,0.240331,-0.528759,-0.6765,-0.452772,-3.097751,-7.460677,-2.824793,-182.250977,166.870117,1.098633,0,0
3352,2024 10 07,05:24:37.923,0.233959,-0.541009,-0.666151,-0.456963,-9.328898,-3.763787,0.718772,-154.541016,52.490234,-99.914551,0,0
3353,2024 10 07,05:24:37.932,0.246919,-0.568325,-0.650269,-0.43953,-1.400922,-2.116764,-9.434858,-127.13623,-210.571289,-485.168457,1,0
3354,2024 10 07,05:24:37.940,0.300953,-0.568306,-0.610418,-0.462433,2.30427,4.755516,4.498672,-60.119629,-497.98584,-444.335938,0,0
3355,2024 10 07,05:24:37.948,0.304725,-0.594642,-0.587547,-0.456434,-3.367779,0.305674,-1.001007,-48.156738,114.868164,-389.770508,0,0
3356,2024 10 07,05:24:37.957,0.324494,-0.607643,-0.556911,-0.46403,-1.721732,-2.437574,-2.514237,-211.181641,-310.119629,-346.496582,0,0
3357,2024 10 07,05:24:37.965,0.324494,-0.607643,-0.556911,-0.46403,-1.721732,-2.437574,-2.514237,-211.181641,-310.119629,-346.496582,0,0
3358,2024 10 07,05:24:37.973,0.344465,-0.613553,-0.529307,-0.474057,-1.392132,-1.374065,-0.599139,-84.228516,-183.776855,-264.282227,0,0
3359,2024 10 07,05:24:37.982,0.359191,-0.61763,-0.515501,-0.473047,-1.774468,-0.356945,0.08594,41.870117,-126.647949,-183.166504,0,0
3360,2024 10 07,05:24:37.990,0.372482,-0.616372,-0.503466,-0.477352,-1.267617,-0.082522,1.147008,-5.065918,-163.146973,-116.210938,0,0
3361,2024 10 07,05:24:37.998,0.378867,-0.615878,-0.492612,-0.484239,-1.10062,-0.494644,-0.155278,-66.28418,-132.568359,-66.28418,0,0
3362,2024 10 07,05:24:38.007,0.383902,-0.613575,-0.483477,-0.492337,-0.647481,-0.39259,-0.30079,-41.259766,-131.958008,-35.583496,0,0
3363,2024 10 07,05:24:38.015,0.383902,-0.613575,-0.483477,-0.492337,-0.647481,-0.39259,-0.30079,-41.259766,-131.958008,-35.583496,0,0
3364,2024 10 07,05:24:38.023,0.388098,-0.611344,-0.478559,-0.496609,-0.803247,-0.027345,0.027345,-5.554199,-69.519043,-22.888184,0,0
3365,2024 10 07,05:24:38.032,0.390296,-0.610176,-0.475366,-0.499382,-1.00296,-0.000977,0.107425,-17.51709,-50.90332,-14.526367,0,0
3366,2024 10 07,05:24:38.040,0.391943,-0.609036,-0.472096,-0.502575,-0.830592,-0.122562,-0.205084,-17.944336,-50.964355,-11.169434,0,0
3367,2024 10 07,05:24:38.048,0.393882,-0.607877,-0.469891,-0.504524,-0.796411,-0.062502,-0.016602,-0.793457,-33.02002,-10.742188,0,0
3368,2024 10 07,05:24:38.057,0.395155,-0.60745,-0.4689,-0.504965,-0.971709,-0.037111,0.018555,2.01416,-12.634277,-9.277344,0,0
3369,2024 10 07,05:24:38.065,0.395155,-0.60745,-0.4689,-0.504965,-0.971709,-0.037111,0.018555,2.01416,-12.634277,-9.277344,0,0
3370,2024 10 07,05:24:38.073,0.396556,-0.607031,-0.468169,-0.505049,-0.89993,-0.030274,-0.02002,9.277344,-12.878418,-11.169434,0,0
3371,2024 10 07,05:24:38.082,0.398395,-0.606742,-0.467984,-0.50412,-0.894559,-0.04297,0.035157,21.972656,-1.220703,-15.869141,0,0
3372,2024 10 07,05:24:38.090,0.40073,-0.60662,-0.468428,-0.501999,-0.969268,-0.040529,0.050783,32.958984,4.150391,-20.080566,0,0
3373,2024 10 07,05:24:38.098,0.40375,-0.606129,-0.468953,-0.499677,-0.941923,-0.050783,0.093753,40.405273,-0.488281,-21.972656,0,0
3374,2024 10 07,05:24:38.107,0.407227,-0.605439,-0.46963,-0.497049,-1.010773,0.027833,0.142094,46.386719,-1.586914,-24.414063,0,0
3375,2024 10 07,05:24:38.115,0.407227,-0.605439,-0.46963,-0.497049,-1.010773,0.027833,0.142094,46.386719,-1.586914,-24.414063,0,0
3376,2024 10 07,05:24:38.123,0.411221,-0.604552,-0.469718,-0.494752,-1.081576,0.129887,0.218757,43.518066,-13.85498,-30.151367,0,0
3377,2024 10 07,05:24:38.132,0.41551,-0.603568,-0.468183,-0.493823,-1.02298,0.202643,0.129398,26.123047,-34.057617,-37.414551,0,0
3378,2024 10 07,05:24:38.140,0.419241,-0.603037,-0.46503,-0.494298,-1.050325,0.008789,0.287118,6.713867,-41.870117,-39.123535,0,0
3379,2024 10 07,05:24:38.148,0.422996,-0.602395,-0.461182,-0.495485,-1.027863,-0.004883,0.113285,-2.929688,-55.725098,-38.085938,0,0
3380,2024 10 07,05:24:38.157,0.426565,-0.60123,-0.456395,-0.498266,-1.061556,-0.138676,0.301279,-12.756348,-70.495605,-32.348633,0,0
3381,2024 10 07,05:24:38.165,0.426565,-0.60123,-0.456395,-0.498266,-1.061556,-0.138676,0.301279,-12.756348,-70.495605,-32.348633,0,0
3382,2024 10 07,05:24:38.173,0.43052,-0.599321,-0.451462,-0.501646,-0.841823,-0.153813,-0.172369,-9.70459,-84.899902,-27.587891,0,0
3383,2024 10 07,05:24:38.182,0.434767,-0.596611,-0.446817,-0.505359,-0.714377,-0.072268,-0.127934,0.12207,-78.979492,-23.254395,0,0
3384,2024 10 07,05:24:38.190,0.437932,-0.594714,-0.443383,-0.507881,-0.87405,-0.163091,-0.057619,-2.441406,-56.45752,-18.676758,0,0
3385,2024 10 07,05:24:38.198,0.441445,-0.592494,-0.440354,-0.510063,-0.87991,-0.063478,-0.071291,8.483887,-61.462402,-18.188477,0,0
3386,2024 10 07,05:24:38.207,0.444999,-0.590129,-0.437399,-0.512255,-0.845729,-0.11475,-0.091311,9.399414,-59.936523,-17.700195,0,0
3387,2024 10 07,05:24:38.215,0.444999,-0.590129,-0.437399,-0.512255,-0.845729,-0.11475,-0.091311,9.399414,-59.936523,-17.700195,0,0
3388,2024 10 07,05:24:38.223,0.448516,-0.58794,-0.43487,-0.513856,-0.87112,-0.077151,-0.182134,10.620117,-50.90332,-18.554688,0,0
3389,2024 10 07,05:24:38.232,0.451925,-0.586137,-0.432442,-0.514978,-0.949736,-0.096194,-0.121097,12.207031,-45.654297,-22.521973,0,0
3390,2024 10 07,05:24:38.240,0.455718,-0.584415,-0.429977,-0.515655,-1.046419,-0.067385,0.102054,17.211914,-44.921875,-28.930664,0,0
3391,2024 10 07,05:24:38.248,0.459849,-0.583275,-0.42765,-0.515213,-1.075228,-0.195807,-0.00293,24.169922,-34.484863,-39.18457,0,0
3392,2024 10 07,05:24:38.257,0.465227,-0.58258,-0.425713,-0.51277,-1.449751,-0.058107,-0.087405,46.813965,-19.775391,-60.302734,0,0
3393,2024 10 07,05:24:38.265,0.465227,-0.58258,-0.425713,-0.51277,-1.449751,-0.058107,-0.087405,46.813965,-19.775391,-60.302734,0,0
3394,2024 10 07,05:24:38.273,0.472919,-0.581792,-0.42311,-0.508767,-1.501999,-0.056642,0.02002,65.490723,-31.860352,-86.791992,0,0
3395,2024 10 07,05:24:38.282,0.482575,-0.58129,-0.419898,-0.502901,-1.648,0.060549,-0.235359,77.758789,-27.34375,-115.844727,0,0
3396,2024 10 07,05:24:38.290,0.493966,-0.581089,-0.41487,-0.496202,-1.638722,0.205084,-0.225593,77.880859,-41.809082,-144.165039,0,0
3397,2024 10 07,05:24:38.298,0.506088,-0.581912,-0.407435,-0.489133,-1.61626,0.312021,-0.335459,64.51416,-46.142578,-171.813965,0,0
3398,2024 10 07,05:24:38.307,0.51806,-0.584532,-0.397736,-0.481396,-1.803278,0.317881,-0.265145,39.733887,-43.212891,-199.035645,0,0
3399,2024 10 07,05:24:38.315,0.51806,-0.584532,-0.397736,-0.481396,-1.803278,0.317881,-0.265145,39.733887,-43.212891,-199.035645,0,0
3400,2024 10 07,05:24:38.323,0.52971,-0.58914,-0.385208,-0.473219,-1.880428,0.196295,-0.008301,11.047363,-47.607422,-228.759766,0,0
3401,2024 10 07,05:24:38.332,0.540922,-0.595631,-0.369754,-0.46466,-2.034242,0.309091,0.17774,-17.150879,-50.720215,-256.225586,0,0
3402,2024 10 07,05:24:38.340,0.551669,-0.604019,-0.351233,-0.455475,-2.501053,0.361339,0.043458,-41.564941,-58.410645,-291.381836,0,0
3403,2024 10 07,05:24:38.348,0.563909,-0.612782,-0.327938,-0.446051,-2.910733,0.460952,0.302744,-58.837891,-96.923828,-339.84375,0,0
3404,2024 10 07,05:24:38.357,0.578764,-0.621757,-0.299415,-0.434512,-3.76281,0.466323,0.270028,-46.264648,-117.431641,-414.18457,0,0
3405,2024 10 07,05:24:38.365,0.598936,-0.629406,-0.265116,-0.418136,-4.949858,0.306162,0.442396,-14.770508,-155.517578,-520.751953,0,0
3406,2024 10 07,05:24:38.373,0.598936,-0.629406,-0.265116,-0.418136,-4.949858,0.306162,0.442396,-14.770508,-155.517578,-520.751953,0,0
3407,2024 10 07,05:24:38.382,0.623762,-0.635619,-0.222623,-0.396672,-5.951842,-0.075686,0.41554,2.990723,-196.960449,-637.817383,0,0
3408,2024 10 07,05:24:38.390,0.649544,-0.639803,-0.172717,-0.372709,-5.680349,-0.118168,-0.028321,-7.93457,-246.09375,-688.476563,0,1
3409,2024 10 07,05:24:38.398,0.674301,-0.639326,-0.120222,-0.349467,-4.4391,0.751488,0.681661,7.93457,-282.531738,-683.59375,0,0
3410,2024 10 07,05:24:38.407,0.696549,-0.63658,-0.069769,-0.323599,-4.483047,1.150914,1.069369,23.4375,-237.426758,-676.208496,0,0
3411,2024 10 07,05:24:38.415,0.716803,-0.631413,-0.02137,-0.295048,-3.403913,1.855525,1.634815,37.353516,-212.402344,-675.598145,0,0
3412,2024 10 07,05:24:38.423,0.716803,-0.631413,-0.02137,-0.295048,-3.403913,1.855525,1.634815,37.353516,-212.402344,-675.598145,0,0
3413,2024 10 07,05:24:38.432,0.734473,-0.62636,0.02096,-0.26035,-2.232978,2.811609,1.583544,35.095215,-91.97998,-665.283203,0,0
3414,2024 10 07,05:24:38.440,0.747743,-0.623876,0.051716,-0.221323,-1.430708,2.170476,2.564043,31.616211,48.217773,-583.374023,0,0
3415,2024 10 07,05:24:38.448,0.75808,-0.615177,0.070933,-0.20455,1.997619,5.414716,1.079134,127.746582,-121.09375,-184.265137,0,0
3416,2024 10 07,05:24:38.457,0.755511,-0.616288,0.062353,-0.213317,-1.543504,3.277444,-0.006348,-76.965332,80.13916,232.055664,0,0
3417,2024 10 07,05:24:38.465,0.743666,-0.623869,0.041398,-0.236718,-2.28132,2.82577,0.767602,-103.942871,-21.911621,399.047852,0,0
3418,2024 10 07,05:24:38.473,0.743666,-0.623869,0.041398,-0.236718,-2.28132,2.82577,0.767602,-103.942871,-21.911621,399.047852,0,0
3419,2024 10 07,05:24:38.482,0.727922,-0.631713,0.024538,-0.265453,-1.013703,2.12653,1.877987,-107.116699,-34.057617,389.282227,0,0
3420,2024 10 07,05:24:38.490,0.712878,-0.640106,0.005418,-0.286425,-0.498062,1.228553,1.409223,-102.111816,38.208008,341.85791,0,0
3421,2024 10 07,05:24:38.498,0.700016,-0.64724,-0.017001,-0.301279,-0.064943,1.070345,1.281777,-64.63623,114.624023,325.683594,0,0
3422,2024 10 07,05:24:38.507,0.687858,-0.653553,-0.045594,-0.312474,-0.189459,1.643605,1.035188,-30.334473,188.598633,349.853516,0,0
3423,2024 10 07,05:24:38.515,0.674286,-0.659021,-0.081547,-0.323078,-0.900418,1.698782,0.724143,-14.099121,235.839844,407.226563,0,0
3424,2024 10 07,05:24:38.523,0.674286,-0.659021,-0.081547,-0.323078,-0.900418,1.698782,0.724143,-14.099121,235.839844,407.226563,0,0
3425,2024 10 07,05:24:38.532,0.658621,-0.662112,-0.121193,-0.336361,-1.257363,1.508347,0.485855,-3.295898,226.013184,460.998535,0,0
3426,2024 10 07,05:24:38.540,0.64059,-0.662539,-0.16369,-0.351982,-1.352092,1.349651,0.299326,3.845215,228.45459,511.59668,0,0
3427,2024 10 07,05:24:38.548,0.619778,-0.660443,-0.208333,-0.369171,-1.488815,1.17777,0.318369,5.371094,224.182129,552.612305,0,0
3428,2024 10 07,05:24:38.557,0.596005,-0.656564,-0.253869,-0.386332,-1.806207,0.867702,0.075198,-1.098633,236.38916,568.42041,0,0
3429,2024 10 07,05:24:38.565,0.570361,-0.651607,-0.297812,-0.401751,-2.319895,0.49855,-0.031251,-11.59668,236.755371,547.729492,0,0
3430,2024 10 07,05:24:38.573,0.570361,-0.651607,-0.297812,-0.401751,-2.319895,0.49855,-0.031251,-11.59668,236.755371,547.729492,0,0
3431,2024 10 07,05:24:38.582,0.544611,-0.645894,-0.338209,-0.41453,-2.62801,0.34962,-0.189459,-14.099121,226.928711,503.601074,0,0
3432,2024 10 07,05:24:38.590,0.519722,-0.638942,-0.37448,-0.425919,-2.593341,0.188482,-0.111332,-11.901855,201.171875,470.64209,0,0
3433,2024 10 07,05:24:38.598,0.495341,-0.630208,-0.408563,-0.436521,-2.485427,-0.030274,-0.090823,-2.258301,186.889648,464.904785,0,0
3434,2024 10 07,05:24:38.607,0.470744,-0.619255,-0.443105,-0.445624,-2.459059,-0.293466,0.078127,21.179199,198.303223,476.928711,0,0
3435,2024 10 07,05:24:38.615,0.444729,-0.60653,-0.479928,-0.451671,-2.740806,-0.431654,-0.058596,47.180176,233.947754,497.497559,0,0
3436,2024 10 07,05:24:38.623,0.444729,-0.60653,-0.479928,-0.451671,-2.740806,-0.431654,-0.058596,47.180176,233.947754,497.497559,0,0
3437,2024 10 07,05:24:38.632,0.417234,-0.591761,-0.517448,-0.456051,-3.369732,-0.65041,-0.380871,54.748535,237.365723,511.413574,0,0
3438,2024 10 07,05:24:38.640,0.389996,-0.574825,-0.552312,-0.460903,-3.716422,-1.221717,-0.646016,44.555664,205.810547,503.90625,0,0
3439,2024 10 07,05:24:38.648,0.36439,-0.556499,-0.582824,-0.466739,-3.549913,-1.986389,-0.506363,31.005859,162.780762,481.750488,0,0
3440,2024 10 07,05:24:38.657,0.339782,-0.538669,-0.609474,-0.472151,-3.342875,-2.912687,-0.417005,17.456055,154.846191,448.791504,0,0
3441,2024 10 07,05:24:38.665,0.315647,-0.523342,-0.632646,-0.475646,-3.171972,-3.72277,-0.414075,2.441406,166.015625,400.878906,0,0
3442,2024 10 07,05:24:38.673,0.315647,-0.523342,-0.632646,-0.475646,-3.171972,-3.72277,-0.414075,2.441406,166.015625,400.878906,0,0
3443,2024 10 07,05:24:38.682,0.291953,-0.512601,-0.651492,-0.477034,-2.931242,-4.390271,-1.064486,-25.57373,186.462402,328.674316,0,0
3444,2024 10 07,05:24:38.690,0.269632,-0.508163,-0.663677,-0.478124,-2.71688,-5.15836,-1.808649,-78.552246,188.110352,231.384277,0,0
3445,2024 10 07,05:24:38.698,0.251044,-0.510338,-0.667559,-0.480518,-2.211982,-6.187689,-2.144597,-134.58252,157.836914,116.210938,0,0
3446,2024 10 07,05:24:38.707,0.236978,-0.524542,-0.664951,-0.475959,-4.463027,-7.510483,-4.519669,-89.660645,272.338867,-96.008301,0,0
3447,2024 10 07,05:24:38.715,0.242544,-0.546449,-0.64929,-0.470094,-4.542131,-7.915281,-3.423933,-61.828613,74.890137,-330.13916,0,0
3448,2024 10 07,05:24:38.723,0.242544,-0.546449,-0.64929,-0.470094,-4.542131,-7.915281,-3.423933,-61.828613,74.890137,-330.13916,0,0
3449,2024 10 07,05:24:38.732,0.272267,-0.56977,-0.620584,-0.464875,-1.818903,-5.754082,-2.921476,13.000488,-205.993652,-525.268555,1,0
3450,2024 10 07,05:24:38.740,0.311561,-0.582995,-0.591561,-0.461629,-1.970763,3.823359,1.202673,42.84668,-225.524902,-460.632324,0,0
3451,2024 10 07,05:24:38.748,0.327576,-0.600058,-0.561134,-0.46664,-2.848232,0.038575,0.196783,-95.88623,-172.973633,-399.902344,0,0
3452,2024 10 07,05:24:38.757,0.347668,-0.610321,-0.530946,-0.474058,-2.155828,-1.810602,-2.644612,-125.549316,-258.422852,-326.171875,0,0
3453,2024 10 07,05:24:38.765,0.367802,-0.611433,-0.506651,-0.483918,-1.24369,-1.35844,0.198248,-43.640137,-250.488281,-208.007813,0,0
3454,2024 10 07,05:24:38.773,0.381713,-0.611186,-0.494528,-0.485993,-1.406293,-0.013672,0.345714,31.494141,-122.375488,-125.244141,0,0
3455,2024 10 07,05:24:38.782,0.381713,-0.611186,-0.494528,-0.485993,-1.406293,-0.013672,0.345714,31.494141,-122.375488,-125.244141,0,0
3456,2024 10 07,05:24:38.790,0.389163,-0.610123,-0.484064,-0.491919,-1.239296,-0.288095,0.338389,-62.62207,-148.071289,-72.814941,0,0
3457,2024 10 07,05:24:38.798,0.395063,-0.607964,-0.472654,-0.500902,-0.680685,-0.357433,-0.262215,-56.762695,-154.47998,-55.664063,0,0
3458,2024 10 07,05:24:38.807,0.400314,-0.60557,-0.465384,-0.50641,-0.713401,-0.156743,-0.009766,-11.84082,-96.252441,-38.696289,0,0
3459,2024 10 07,05:24:38.815,0.403554,-0.604387,-0.461157,-0.509111,-1.066927,-0.067873,0.075198,-13.48877,-55.236816,-25.512695,0,0
3460,2024 10 07,05:24:38.823,0.40594,-0.602829,-0.456769,-0.513003,-0.92581,-0.101077,-0.08594,-24.597168,-73.730469,-16.174316,0,0
3461,2024 10 07,05:24:38.832,0.40594,-0.602829,-0.456769,-0.513003,-0.92581,-0.101077,-0.08594,-24.597168,-73.730469,-16.174316,0,0
3462,2024 10 07,05:24:38.840,0.408758,-0.60097,-0.452751,-0.516496,-0.74807,-0.064455,-0.131352,-9.033203,-60.913086,-18.676758,0,0
3463,2024 10 07,05:24:38.848,0.411011,-0.599921,-0.450117,-0.518226,-0.992218,-0.006836,0.112796,-4.394531,-36.92627,-17.089844,0,0
3464,2024 10 07,05:24:38.857,0.412871,-0.599017,-0.447485,-0.52007,-0.979522,-0.068361,-0.032716,-8.789063,-42.419434,-15.991211,0,0
3465,2024 10 07,05:24:38.865,0.415511,-0.597713,-0.444918,-0.521668,-0.83108,-0.075198,-0.070315,5.004883,-41.015625,-19.775391,0,0
3466,2024 10 07,05:24:38.873,0.41838,-0.596796,-0.44342,-0.5217,-0.916532,-0.052736,-0.011231,16.662598,-22.766113,-22.827148,0,0
3467,2024 10 07,05:24:38.882,0.41838,-0.596796,-0.44342,-0.5217,-0.916532,-0.052736,-0.011231,16.662598,-22.766113,-22.827148,0,0
3468,2024 10 07,05:24:38.890,0.421418,-0.595963,-0.442311,-0.521149,-0.969756,0.007813,-0.001465,21.972656,-21.972656,-24.780273,0,0
3469,2024 10 07,05:24:38.898,0.424582,-0.595157,-0.440972,-0.520636,-0.98001,0.041993,0.018555,19.165039,-23.681641,-27.526855,0,0
3470,2024 10 07,05:24:38.907,0.42753,-0.594644,-0.439011,-0.520468,-0.953642,-0.039064,-0.003906,7.629395,-27.832031,-29.418945,0,0
3471,2024 10 07,05:24:38.915,0.430298,-0.594049,-0.436683,-0.520825,-0.875515,0.006348,-0.070315,5.249023,-30.883789,-27.038574,0,0
3472,2024 10 07,05:24:38.923,0.432424,-0.593689,-0.434247,-0.52151,-0.900906,-0.052248,0.007324,-3.662109,-28.137207,-23.864746,0,0
3473,2024 10 07,05:24:38.932,0.432424,-0.593689,-0.434247,-0.52151,-0.900906,-0.052248,0.007324,-3.662109,-28.137207,-23.864746,0,0
3474,2024 10 07,05:24:38.940,0.43426,-0.593461,-0.431741,-0.522325,-0.93704,0.019532,-0.074221,-3.967285,-26.428223,-23.681641,0,0
3475,2024 10 07,05:24:38.948,0.435809,-0.593457,-0.428824,-0.52344,-0.898465,-0.077151,-0.035646,-14.892578,-29.602051,-23.986816,0,0
3476,2024 10 07,05:24:38.957,0.437256,-0.593575,-0.425753,-0.524605,-0.946806,-0.065432,-0.026856,-15.197754,-29.35791,-24.230957,0,0
3477,2024 10 07,05:24:38.965,0.438875,-0.593587,-0.422644,-0.525751,-0.974639,-0.103519,0.021973,-11.291504,-30.456543,-25.756836,0,0
3478,2024 10 07,05:24:38.973,0.441078,-0.593314,-0.419542,-0.5267,-1.022492,-0.147954,0.011719,-5.126953,-36.560059,-28.930664,0,0
3479,2024 10 07,05:24:38.982,0.441078,-0.593314,-0.419542,-0.5267,-1.022492,-0.147954,0.011719,-5.126953,-36.560059,-28.930664,0,0
3480,2024 10 07,05:24:38.990,0.444304,-0.592611,-0.416247,-0.527394,-1.022004,-0.145024,0.095218,5.065918,-41.442871,-36.193848,0,0
3481,2024 10 07,05:24:38.998,0.448446,-0.591556,-0.413046,-0.527589,-1.084994,-0.119633,-0.087405,15.686035,-45.898438,-42.297363,0,0
3482,2024 10 07,05:24:39.007,0.453738,-0.589906,-0.409666,-0.527547,-1.048372,-0.132817,-0.102542,25.695801,-52.429199,-48.950195,0,0
3483,2024 10 07,05:24:39.015,0.45981,-0.588206,-0.406286,-0.526802,-1.04593,-0.051759,-0.142582,35.339355,-48.522949,-57.800293,0,0
3484,2024 10 07,05:24:39.023,0.466467,-0.58682,-0.40293,-0.525071,-1.133824,-0.082522,-0.104007,43.457031,-43.029785,-68.42041,0,0
3485,2024 10 07,05:24:39.032,0.466467,-0.58682,-0.40293,-0.525071,-1.133824,-0.082522,-0.104007,43.457031,-43.029785,-68.42041,0,0
3486,2024 10 07,05:24:39.040,0.474006,-0.585771,-0.399627,-0.522005,-1.208533,-0.038087,-0.225593,52.978516,-35.766602,-83.679199,0,0
3487,2024 10 07,05:24:39.048,0.482768,-0.584891,-0.395965,-0.517735,-1.251015,0.010254,-0.153813,63.293457,-35.217285,-101.928711,0,0
3488,2024 10 07,05:24:39.057,0.4925,-0.584568,-0.391709,-0.51214,-1.37846,0.11475,-0.270516,67.993164,-29.968262,-122.375488,0,0
3489,2024 10 07,05:24:39.065,0.50286,-0.585201,-0.386098,-0.505569,-1.5562,0.15186,-0.278817,59.020996,-29.23584,-146.911621,0,0
3490,2024 10 07,05:24:39.073,0.513642,-0.587278,-0.378498,-0.498012,-1.740776,0.194342,-0.169439,45.288086,-26.000977,-176.574707,0,0
3491,2024 10 07,05:24:39.082,0.513642,-0.587278,-0.378498,-0.498012,-1.740776,0.194342,-0.169439,45.288086,-26.000977,-176.574707,0,0
3492,2024 10 07,05:24:39.090,0.524465,-0.591136,-0.368653,-0.48948,-2.005921,0.143071,-0.066408,26.489258,-26.855469,-205.566406,0,0
3493,2024 10 07,05:24:39.098,0.535546,-0.595971,-0.355358,-0.481383,-2.117252,0.188971,0.086428,-3.845215,-50.476074,-231.201172,0,0
3494,2024 10 07,05:24:39.107,0.546331,-0.602487,-0.338328,-0.473355,-2.41023,0.231941,0.094729,-34.057617,-60.48584,-266.296387,0,0
3495,2024 10 07,05:24:39.115,0.558063,-0.610229,-0.316967,-0.464455,-2.73983,0.472182,0.211432,-54.504395,-83.984375,-317.321777,0,0
3496,2024 10 07,05:24:39.123,0.571949,-0.618869,-0.291062,-0.452944,-3.652944,0.60744,0.063478,-47.180176,-94.909668,-389.160156,0,0
3497,2024 10 07,05:24:39.132,0.571949,-0.618869,-0.291062,-0.452944,-3.652944,0.60744,0.063478,-47.180176,-94.909668,-389.160156,0,0
3498,2024 10 07,05:24:39.140,0.591282,-0.626005,-0.258726,-0.437681,-4.847316,0.762719,0.411145,-17.883301,-147.216797,-496.643066,0,0
3499,2024 10 07,05:24:39.148,0.615754,-0.632523,-0.218053,-0.416189,-6.350291,0.284677,0.152348,-5.004883,-175.109863,-633.422852,0,0
3500,2024 10 07,05:24:39.157,0.643267,-0.637094,-0.167282,-0.3903,-6.288766,-0.259774,0.270516,-17.822266,-240.539551,-735.229492,0,0
3501,2024 10 07,05:24:39.165,0.670125,-0.637688,-0.110844,-0.363317,-5.191565,0.294931,0.522965,6.713867,-280.578613,-760.864258,0,1
3502,2024 10 07,05:24:39.173,0.694409,-0.63504,-0.056582,-0.333643,-4.728172,0.627461,1.110874,16.418457,-223.022461,-739.196777,0,0
3503,2024 10 07,05:24:39.182,0.716183,-0.630329,-0.007763,-0.29951,-4.214972,1.461959,1.355998,44.433594,-171.020508,-727.600098,0,0
3504,2024 10 07,05:24:39.190,0.716183,-0.630329,-0.007763,-0.29951,-4.214972,1.461959,1.355998,44.433594,-171.020508,-727.600098,0,0
3505,2024 10 07,05:24:39.198,0.734491,-0.625866,0.033145,-0.260223,-2.610431,2.27839,1.256874,29.846191,-35.03418,-694.152832,0,0
3506,2024 10 07,05:24:39.207,0.750093,-0.620404,0.06133,-0.220677,-0.686544,2.380444,3.797479,82.092285,44.677734,-553.771973,0,0
3507,2024 10 07,05:24:39.215,0.762396,-0.607804,0.074932,-0.209074,1.062044,5.287271,0.980011,185.791016,-86.364746,-96.740723,0,0
3508,2024 10 07,05:24:39.223,0.762043,-0.606384,0.059518,-0.219193,-2.538652,3.326762,0.018555,6.164551,98.388672,263.73291,0,0
3509,2024 10 07,05:24:39.232,0.754631,-0.608542,0.040501,-0.242009,-1.920469,2.955168,1.30668,-33.508301,-36.193848,340.270996,0,0
3510,2024 10 07,05:24:39.240,0.754631,-0.608542,0.040501,-0.242009,-1.920469,2.955168,1.30668,-33.508301,-36.193848,340.270996,0,0
3511,2024 10 07,05:24:39.248,0.745301,-0.611811,0.026161,-0.263683,-0.472182,2.198309,1.684133,-37.963867,-0.610352,287.29248,0,0
3512,2024 10 07,05:24:39.257,0.736801,-0.617107,0.008703,-0.276093,0.276864,1.648,1.651418,-36.743164,93.322754,242.858887,0,0
3513,2024 10 07,05:24:39.265,0.728251,-0.624078,-0.015941,-0.282706,0.267586,2.264718,1.073275,-39.245605,208.068848,265.869141,0,0
3514,2024 10 07,05:24:39.273,0.716711,-0.633685,-0.05057,-0.286725,-0.800317,2.532304,0.913114,-55.969238,314.758301,330.383301,0,0
3515,2024 10 07,05:24:39.282,0.700572,-0.643808,-0.089884,-0.294332,-1.472213,2.263741,0.590838,-78.063965,294.311523,400.756836,0,0
3516,2024 10 07,05:24:39.290,0.700572,-0.643808,-0.089884,-0.294332,-1.472213,2.263741,0.590838,-78.063965,294.311523,400.756836,0,0
3517,2024 10 07,05:24:39.298,0.680597,-0.652153,-0.130502,-0.307331,-1.519578,1.981017,0.478042,-95.031738,280.029297,467.529297,0,0
3518,2024 10 07,05:24:39.307,0.656038,-0.659051,-0.173172,-0.324463,-2.018616,1.564013,0.377941,-116.638184,251.342773,530.395508,0,0
3519,2024 10 07,05:24:39.315,0.628691,-0.66224,-0.215241,-0.346203,-2.270577,0.983428,0.251473,-114.685059,206.054688,572.44873,0,0
3520,2024 10 07,05:24:39.323,0.600676,-0.660781,-0.255582,-0.37045,-2.334544,0.529801,0.159185,-97.473145,156.188965,585.449219,0,0
3521,2024 10 07,05:24:39.332,0.573375,-0.655366,-0.293818,-0.394216,-2.372143,0.162603,0.139653,-68.359375,135.742188,570.3125,0,0
3522,2024 10 07,05:24:39.340,0.573375,-0.655366,-0.293818,-0.394216,-2.372143,0.162603,0.139653,-68.359375,135.742188,570.3125,0,0
3523,2024 10 07,05:24:39.348,0.547875,-0.646993,-0.330297,-0.414893,-2.188055,-0.126957,0.182134,-30.700684,133.728027,539.428711,0,0
3524,2024 10 07,05:24:39.357,0.52345,-0.636547,-0.36684,-0.431551,-2.239815,-0.047853,0.305673,4.150391,153.808594,526.306152,0,0
3525,2024 10 07,05:24:39.365,0.498757,-0.624272,-0.404619,-0.444757,-2.472732,0.033692,0.30079,31.799316,180.969238,524.902344,0,0
3526,2024 10 07,05:24:39.373,0.472711,-0.610249,-0.444211,-0.454772,-2.756432,-0.014161,0.447768,54.443359,210.754395,537.780762,0,0
3527,2024 10 07,05:24:39.382,0.444178,-0.595025,-0.485258,-0.461709,-3.272561,-0.54445,0.26075,64.51416,247.131348,552.55127,0,0
3528,2024 10 07,05:24:39.390,0.444178,-0.595025,-0.485258,-0.461709,-3.272561,-0.54445,0.26075,64.51416,247.131348,552.55127,0,0
3529,2024 10 07,05:24:39.398,0.414259,-0.578036,-0.525829,-0.466656,-3.800897,-1.11771,0.368664,69.519043,252.868652,557.495117,0,0
3530,2024 10 07,05:24:39.407,0.383556,-0.560507,-0.564285,-0.46936,-4.261361,-1.891659,0.11182,67.871094,259.521484,540.771484,0,0
3531,2024 10 07,05:24:39.415,0.354176,-0.542791,-0.598591,-0.470771,-4.073367,-2.926847,0.12891,58.105469,238.647461,501.831055,0,0
3532,2024 10 07,05:24:39.423,0.325381,-0.528019,-0.628036,-0.469993,-3.984985,-3.90344,-0.379406,31.188965,250.976563,440.368652,0,0
3533,2024 10 07,05:24:39.432,0.297923,-0.518278,-0.650514,-0.468467,-3.294534,-4.497208,-1.244667,-18.615723,249.694824,348.937988,0,0
3534,2024 10 07,05:24:39.440,0.297923,-0.518278,-0.650514,-0.468467,-3.294534,-4.497208,-1.244667,-18.615723,249.694824,348.937988,0,0
3535,2024 10 07,05:24:39.448,0.270335,-0.516549,-0.66471,-0.46718,-2.57918,-4.884915,-2.659749,-101.989746,274.108887,239.196777,0,0
3536,2024 10 07,05:24:39.457,0.243959,-0.523536,-0.668586,-0.468387,-1.967834,-6.022645,-3.127048,-195.495605,251.464844,106.140137,0,0
3537,2024 10 07,05:24:39.465,0.219079,-0.53913,-0.66278,-0.471239,-3.378521,-8.036378,-2.700278,-258.666992,273.254395,-2.380371,0,0
3538,2024 10 07,05:24:39.473,0.204737,-0.555426,-0.651257,-0.474815,-3.444441,-8.609149,-2.199286,-224.121094,106.872559,-84.106445,0,0
3539,2024 10 07,05:24:39.482,0.207218,-0.569522,-0.640323,-0.471902,-16.000488,-4.425916,1.611866,29.724121,130.493164,-188.659668,0,0
3540,2024 10 07,05:24:39.490,0.207218,-0.569522,-0.640323,-0.471902,-16.000488,-4.425916,1.611866,29.724121,130.493164,-188.659668,0,0
3541,2024 10 07,05:24:39.498,0.239785,-0.593127,-0.61405,-0.462218,-0.669942,-1.671926,-4.283822,-46.508789,-501.281738,-587.036133,1,0
3542,2024 10 07,05:24:39.507,0.30163,-0.594257,-0.574109,-0.475685,1.416547,6.443068,1.860408,48.828125,-429.199219,-548.400879,0,0
3543,2024 10 07,05:24:39.515,0.316289,-0.616303,-0.545496,-0.471769,-3.808221,0.622089,0.822291,39.733887,-33.203125,-450.195313,0,0
3544,2024 10 07,05:24:39.523,0.340042,-0.624068,-0.511248,-0.483255,-2.015687,-2.588458,-3.555284,-182.312012,-395.690918,-339.782715,0,0
3545,2024 10 07,05:24:39.532,0.367765,-0.620169,-0.485566,-0.494333,-1.46733,-1.552293,1.37846,9.70459,-268.493652,-230.834961,0,0
3546,2024 10 07,05:24:39.540,0.367765,-0.620169,-0.485566,-0.494333,-1.46733,-1.552293,1.37846,9.70459,-268.493652,-230.834961,0,0
3547,2024 10 07,05:24:39.548,0.381157,-0.618273,-0.473871,-0.4979,-1.867733,0.051759,0.351085,17.089844,-172.302246,-92.102051,0,0
3548,2024 10 07,05:24:39.557,0.388029,-0.612949,-0.45969,-0.512262,-0.747093,-0.173345,0.149419,-116.088867,-234.741211,-37.719727,0,0
3549,2024 10 07,05:24:39.565,0.391526,-0.609539,-0.446306,-0.525339,-0.548357,-0.429701,-0.590838,-100.158691,-174.865723,-37.17041,0,0
3550,2024 10 07,05:24:39.573,0.39606,-0.605602,-0.436573,-0.534591,-0.714866,-0.167486,0.07178,-47.119141,-143.249512,-29.907227,0,0
3551,2024 10 07,05:24:39.582,0.398164,-0.603027,-0.429805,-0.54138,-0.842799,-0.143071,-0.296884,-50.78125,-93.811035,-11.413574,0,0
3552,2024 10 07,05:24:39.590,0.400096,-0.600353,-0.424762,-0.546879,-0.376476,-0.247566,-0.541032,-20.141602,-79.589844,-7.93457,0,0
3553,2024 10 07,05:24:39.598,0.400096,-0.600353,-0.424762,-0.546879,-0.376476,-0.247566,-0.541032,-20.141602,-79.589844,-7.93457,0,0
3554,2024 10 07,05:24:39.607,0.401823,-0.599233,-0.423432,-0.547872,-0.911649,0.024415,0.170904,1.831055,-7.141113,-7.507324,0,0
3555,2024 10 07,05:24:39.615,0.402258,-0.599492,-0.423077,-0.547543,-1.062044,-0.068361,-0.253426,6.347656,-7.385254,-9.70459,0,0
3556,2024 10 07,05:24:39.623,0.404811,-0.598311,-0.421919,-0.547847,-0.843776,0.028321,0.12891,12.207031,-24.841309,-18.554688,0,0
3557,2024 10 07,05:24:39.632,0.406882,-0.598525,-0.421346,-0.546518,-0.991241,0.077151,-0.201666,18.798828,2.197266,-26.367188,0,0
3558,2024 10 07,05:24:39.640,0.409188,-0.598908,-0.419988,-0.545422,-0.947783,-0.000488,0.032228,4.760742,-8.850098,-32.470703,0,0
3559,2024 10 07,05:24:39.648,0.409188,-0.598908,-0.419988,-0.545422,-0.947783,-0.000488,0.032228,4.760742,-8.850098,-32.470703,0,0
3560,2024 10 07,05:24:39.657,0.41111,-0.599921,-0.418308,-0.544153,-1.010773,-0.029298,0.041505,4.150391,0.12207,-34.240723,0,0
3561,2024 10 07,05:24:39.665,0.413009,-0.600707,-0.416396,-0.543312,-1.037629,-0.051271,0.148442,0.12207,-10.864258,-31.616211,0,0
3562,2024 10 07,05:24:39.673,0.415043,-0.601074,-0.414266,-0.542986,-1.017121,-0.016114,-0.004395,-0.488281,-17.150879,-30.578613,0,0
3563,2024 10 07,05:24:39.682,0.41705,-0.601026,-0.41149,-0.543611,-0.893094,0.021485,-0.072756,-8.239746,-28.808594,-28.015137,0,0
3564,2024 10 07,05:24:39.690,0.418179,-0.601459,-0.408296,-0.544672,-0.852077,-0.008789,-0.135258,-23.254395,-22.094727,-25.939941,0,0
3565,2024 10 07,05:24:39.698,0.418179,-0.601459,-0.408296,-0.544672,-0.852077,-0.008789,-0.135258,-23.254395,-22.094727,-25.939941,0,0
3566,2024 10 07,05:24:39.707,0.418563,-0.602669,-0.405072,-0.545447,-0.938505,-0.061525,-0.112308,-27.038574,-11.230469,-27.770996,0,0
3567,2024 10 07,05:24:39.715,0.41937,-0.604194,-0.402071,-0.54536,-1.032258,-0.032228,-0.078127,-17.089844,-5.493164,-35.888672,0,0
3568,2024 10 07,05:24:39.723,0.420962,-0.605864,-0.39907,-0.544484,-1.13773,-0.140629,-0.119144,-7.69043,-3.967285,-45.349121,0,0
3569,2024 10 07,05:24:39.732,0.424155,-0.606983,-0.396103,-0.542924,-1.055696,-0.102542,-0.063478,8.056641,-13.183594,-54.870605,0,0
3570,2024 10 07,05:24:39.740,0.428119,-0.607746,-0.393061,-0.541167,-1.034211,-0.089358,-0.018067,14.099121,-13.977051,-58.47168,0,0
3571,2024 10 07,05:24:39.748,0.428119,-0.607746,-0.393061,-0.541167,-1.034211,-0.089358,-0.018067,14.099121,-13.977051,-58.47168,0,0
3572,2024 10 07,05:24:39.757,0.432542,-0.608445,-0.389966,-0.5391,-1.113804,-0.104984,-0.01709,18.981934,-18.066406,-63.598633,0,0
3573,2024 10 07,05:24:39.765,0.437855,-0.60865,-0.38651,-0.537065,-1.117222,-0.130375,0.051759,25.634766,-26.672363,-69.641113,0,0
3574,2024 10 07,05:24:39.773,0.443981,-0.608545,-0.38283,-0.534785,-1.103061,-0.128422,-0.019044,32.043457,-32.104492,-76.293945,0,0
3575,2024 10 07,05:24:39.782,0.451014,-0.608062,-0.378809,-0.532307,-1.11185,-0.147465,0.007324,39.489746,-37.719727,-83.679199,0,0
3576,2024 10 07,05:24:39.790,0.459106,-0.60715,-0.374405,-0.529539,-1.05472,-0.151372,-0.020508,48.217773,-46.081543,-92.895508,0,0
3577,2024 10 07,05:24:39.798,0.459106,-0.60715,-0.374405,-0.529539,-1.05472,-0.151372,-0.020508,48.217773,-46.081543,-92.895508,0,0
3578,2024 10 07,05:24:39.807,0.468248,-0.606008,-0.369787,-0.526076,-1.059603,-0.086917,-0.069338,59.448242,-45.288086,-103.820801,0,0
3579,2024 10 07,05:24:39.815,0.478253,-0.604784,-0.364987,-0.521819,-1.072298,-0.100101,-0.141606,68.17627,-46.142578,-114.990234,0,0
3580,2024 10 07,05:24:39.823,0.489296,-0.603536,-0.359863,-0.516559,-1.146519,-0.096683,-0.061525,76.904297,-43.395996,-129.699707,0,0
3581,2024 10 07,05:24:39.832,0.501043,-0.602467,-0.354193,-0.510428,-1.2725,-0.02588,-0.086428,76.843262,-44.98291,-143.310547,0,0
3582,2024 10 07,05:24:39.840,0.51314,-0.601897,-0.347227,-0.503826,-1.301798,0.132328,-0.224616,70.922852,-47.607422,-159.973145,0,0
3583,2024 10 07,05:24:39.848,0.51314,-0.601897,-0.347227,-0.503826,-1.301798,0.132328,-0.224616,70.922852,-47.607422,-159.973145,0,0
3584,2024 10 07,05:24:39.857,0.52432,-0.602624,-0.33811,-0.497608,-1.378948,0.095218,-0.173833,35.339355,-49.682617,-172.424316,0,0
3585,2024 10 07,05:24:39.865,0.534081,-0.60536,-0.327243,-0.491131,-1.663625,0.20069,-0.305673,4.02832,-40.95459,-188.110352,0,0
3586,2024 10 07,05:24:39.873,0.543063,-0.609871,-0.313177,-0.48483,-1.689016,0.256844,-0.322275,-31.37207,-53.222656,-214.599609,0,0
3587,2024 10 07,05:24:39.882,0.55173,-0.615767,-0.295462,-0.478673,-1.77691,0.288583,-0.267098,-57.556152,-63.720703,-243.713379,0,0
3588,2024 10 07,05:24:39.890,0.561032,-0.623116,-0.275084,-0.470423,-2.280831,0.289071,-0.247078,-65.551758,-60.180664,-290.283203,0,0
3589,2024 10 07,05:24:39.898,0.561032,-0.623116,-0.275084,-0.470423,-2.280831,0.289071,-0.247078,-65.551758,-60.180664,-290.283203,0,0
3590,2024 10 07,05:24:39.907,0.573303,-0.630754,-0.251617,-0.458433,-2.989349,0.380383,0.014649,-45.349121,-68.115234,-360.778809,0,0
3591,2024 10 07,05:24:39.915,0.589659,-0.637853,-0.22314,-0.442328,-4.077761,0.274911,0.02588,-26.611328,-87.890625,-452.697754,0,0
3592,2024 10 07,05:24:39.923,0.609781,-0.644049,-0.187547,-0.422129,-5.036286,0.132328,0.104984,-27.282715,-125.671387,-555.297852,0,0
3593,2024 10 07,05:24:39.932,0.631196,-0.649232,-0.142753,-0.399638,-4.7687,-0.59328,-0.013184,-51.452637,-189.453125,-636.413574,0,0
3594,2024 10 07,05:24:39.940,0.652162,-0.652189,-0.093078,-0.37506,-4.660787,-1.083041,0.031739,-48.400879,-200.134277,-670.227051,0,1
3595,2024 10 07,05:24:39.948,0.652162,-0.652189,-0.093078,-0.37506,-4.660787,-1.083041,0.031739,-48.400879,-200.134277,-670.227051,0,0
3596,2024 10 07,05:24:39.957,0.672945,-0.650691,-0.044532,-0.348946,-4.552873,-0.27784,0.660665,-5.126953,-195.19043,-657.531738,0,0
3597,2024 10 07,05:24:39.965,0.69185,-0.646871,0.001071,-0.320779,-4.35609,0.063478,0.950224,10.925293,-166.503906,-652.160645,0,0
3598,2024 10 07,05:24:39.973,0.709658,-0.640976,0.043024,-0.289281,-3.401471,1.024934,1.71392,34.912109,-104.125977,-645.080566,0,0
3599,2024 10 07,05:24:39.982,0.726746,-0.634649,0.076377,-0.251451,-2.204169,1.041047,2.044984,57.983398,26.550293,-624.511719,0,0
3600,2024 10 07,05:24:39.990,0.745587,-0.626699,0.09586,-0.205326,-2.463454,0.648946,2.63094,168.640137,205.078125,-592.895508,0,0
3601,2024 10 07,05:24:39.998,0.765896,-0.610924,0.101654,-0.172745,1.099155,2.983001,1.476119,254.272461,121.459961,-270.385742,0,0
3602,2024 10 07,05:24:40.007,0.765896,-0.610924,0.101654,-0.172745,1.099155,2.983001,1.476119,254.272461,121.459961,-270.385742,0,0
3603,2024 10 07,05:24:40.015,0.777114,-0.598959,0.086874,-0.172611,-1.105502,5.022126,0.375988,128.662109,158.630371,172.912598,0,0
3604,2024 10 07,05:24:40.023,0.774599,-0.59961,0.058424,-0.192487,-2.919034,3.332621,0.550798,45.654297,56.091309,410.705566,0,0
3605,2024 10 07,05:24:40.032,0.76412,-0.602763,0.037059,-0.226768,-1.543016,2.151433,1.221717,-36.254883,-52.55127,462.524414,0,0
3606,2024 10 07,05:24:40.040,0.75303,-0.606452,0.014046,-0.254883,-0.530778,1.185095,1.666066,-37.658691,25.817871,412.597656,0,0
3607,2024 10 07,05:24:40.048,0.743475,-0.610476,-0.012653,-0.27277,0.401868,1.221229,1.852596,-3.112793,153.442383,351.501465,0,0
3608,2024 10 07,05:24:40.057,0.743475,-0.610476,-0.012653,-0.27277,0.401868,1.221229,1.852596,-3.112793,153.442383,351.501465,0,0
3609,2024 10 07,05:24:40.065,0.7346,-0.616332,-0.048625,-0.279523,0.297372,1.555223,1.189001,8.972168,312.011719,335.388184,0,0
3610,2024 10 07,05:24:40.073,0.723373,-0.623776,-0.094012,-0.280708,-0.853542,1.858943,0.999054,4.150391,427.307129,370.117188,0,0
3611,2024 10 07,05:24:40.082,0.707888,-0.631006,-0.143936,-0.282857,-1.944884,2.145573,0.588885,-14.526367,431.57959,420.166016,0,0
3612,2024 10 07,05:24:40.090,0.68808,-0.636137,-0.192885,-0.290983,-2.621174,2.109928,-0.216315,-52.307129,359.924316,471.130371,0,0
3613,2024 10 07,05:24:40.098,0.665354,-0.638316,-0.235169,-0.307492,-2.607502,1.575243,0.050783,-89.660645,244.812012,496.337891,0,0
3614,2024 10 07,05:24:40.107,0.665354,-0.638316,-0.235169,-0.307492,-2.607502,1.575243,0.050783,-89.660645,244.812012,496.337891,0,0
3615,2024 10 07,05:24:40.115,0.641307,-0.638083,-0.272213,-0.327834,-2.344798,1.017609,-0.112308,-100.708008,182.067871,494.628906,0,0
3616,2024 10 07,05:24:40.123,0.617326,-0.635627,-0.305124,-0.348979,-1.836482,0.642109,0.036622,-98.693848,149.963379,478.45459,0,0
3617,2024 10 07,05:24:40.132,0.59266,-0.632441,-0.337437,-0.367299,-1.935606,0.505387,0.039064,-89.233398,174.926758,463.745117,0,0
3618,2024 10 07,05:24:40.140,0.567289,-0.628035,-0.369525,-0.383675,-2.218818,0.477554,0.089358,-79.467773,180.114746,460.327148,0,0
3619,2024 10 07,05:24:40.148,0.540858,-0.621947,-0.401639,-0.399175,-2.529374,0.476089,0.030274,-73.852539,181.945801,469.421387,0,0
3620,2024 10 07,05:24:40.157,0.540858,-0.621947,-0.401639,-0.399175,-2.529374,0.476089,0.030274,-73.852539,181.945801,469.421387,0,0
3621,2024 10 07,05:24:40.165,0.513202,-0.613829,-0.433353,-0.41478,-2.737876,0.41554,0.117679,-72.814941,176.635742,483.337402,0,0
3622,2024 10 07,05:24:40.173,0.484189,-0.603997,-0.465034,-0.429525,-2.73983,0.041993,0.159185,-66.955566,183.898926,492.614746,0,0
3623,2024 10 07,05:24:40.182,0.454033,-0.593163,-0.496916,-0.441685,-2.986907,-0.327647,0.359386,-52.856445,210.083008,492.736816,0,0
3624,2024 10 07,05:24:40.190,0.423029,-0.581215,-0.529387,-0.450539,-3.365825,-0.838893,0.385266,-28.808594,229.980469,493.347168,0,0
3625,2024 10 07,05:24:40.198,0.391758,-0.567855,-0.562173,-0.456101,-3.877071,-1.636769,0.332041,-2.319336,249.938965,493.774414,0,0
3626,2024 10 07,05:24:40.207,0.391758,-0.567855,-0.562173,-0.456101,-3.877071,-1.636769,0.332041,-2.319336,249.938965,493.774414,0,0
3627,2024 10 07,05:24:40.215,0.361508,-0.552441,-0.594472,-0.459047,-4.24134,-2.624104,0.140141,26.245117,240.05127,491.760254,0,0
3628,2024 10 07,05:24:40.223,0.334668,-0.534517,-0.62463,-0.460571,-4.074831,-3.697378,0.089358,52.490234,200.439453,471.313477,0,0
3629,2024 10 07,05:24:40.232,0.311826,-0.517019,-0.65119,-0.459791,-3.541124,-4.608051,-0.473159,68.17627,179.56543,411.071777,0,0
3630,2024 10 07,05:24:40.240,0.291837,-0.504577,-0.672209,-0.456473,-2.718833,-4.715964,-1.620167,45.288086,198.059082,311.584473,0,0
3631,2024 10 07,05:24:40.248,0.272117,-0.500603,-0.6862,-0.452193,-2.121647,-4.885891,-2.917081,-20.385742,220.703125,199.34082,0,0
3632,2024 10 07,05:24:40.257,0.272117,-0.500603,-0.6862,-0.452193,-2.121647,-4.885891,-2.917081,-20.385742,220.703125,199.34082,0,0
3633,2024 10 07,05:24:40.265,0.252601,-0.504863,-0.691353,-0.450929,-2.410718,-6.428419,-3.751579,-124.389648,220.031738,96.435547,0,0
3634,2024 10 07,05:24:40.273,0.23522,-0.51546,-0.688649,-0.452476,-3.693472,-7.566149,-3.460067,-177.67334,178.649902,7.080078,0,0
3635,2024 10 07,05:24:40.282,0.23055,-0.526934,-0.679722,-0.455154,-12.496964,-5.303384,3.059664,-94.604492,75.98877,-105.34668,0,0
3636,2024 10 07,05:24:40.290,0.251721,-0.557981,-0.658272,-0.438145,-1.807184,-3.445906,-9.015411,-46.875,-281.25,-603.33252,1,0
3637,2024 10 07,05:24:40.298,0.317961,-0.563398,-0.612729,-0.453922,0.61623,3.638783,7.322489,103.210449,-572.387695,-590.576172,0,0
3638,2024 10 07,05:24:40.307,0.317961,-0.563398,-0.612729,-0.453922,0.61623,3.638783,7.322489,103.210449,-572.387695,-590.576172,0,0
3639,2024 10 07,05:24:40.315,0.329616,-0.591288,-0.580986,-0.45187,-3.930784,-1.148472,-1.4185,-138.549805,2.502441,-457.580566,0,0
3640,2024 10 07,05:24:40.323,0.355924,-0.602553,-0.545768,-0.460854,-2.502029,-3.174901,-4.681784,-199.157715,-396.057129,-364.440918,0,0
3641,2024 10 07,05:24:40.332,0.389335,-0.59719,-0.517391,-0.473381,-1.349651,-1.342326,2.631916,76.23291,-355.773926,-245.727539,0,0
3642,2024 10 07,05:24:40.340,0.40391,-0.595349,-0.506194,-0.475587,-1.936583,-0.01709,-0.487808,13.85498,-156.799316,-90.148926,0,0
3643,2024 10 07,05:24:40.348,0.411859,-0.589665,-0.491195,-0.49132,-0.442885,-0.160649,0.425306,-123.901367,-261.291504,-29.296875,0,0
3644,2024 10 07,05:24:40.357,0.411859,-0.589665,-0.491195,-0.49132,-0.442885,-0.160649,0.425306,-123.901367,-261.291504,-29.296875,0,0
3645,2024 10 07,05:24:40.365,0.415392,-0.587095,-0.478096,-0.504175,-0.390149,-0.477065,-0.949248,-92.895508,-163.208008,-30.639648,0,0
3646,2024 10 07,05:24:40.373,0.419837,-0.583881,-0.46937,-0.512359,-0.817896,-0.095218,0.197272,-43.945313,-123.535156,-20.874023,0,0
3647,2024 10 07,05:24:40.382,0.421547,-0.581571,-0.463337,-0.51903,-1.020539,-0.013184,-0.030763,-52.429199,-93.688965,-5.126953,0,0
3648,2024 10 07,05:24:40.390,0.423571,-0.579192,-0.457701,-0.525008,-0.468276,-0.169927,-0.477065,-29.052734,-84.594727,-9.521484,0,0
3649,2024 10 07,05:24:40.398,0.425451,-0.577912,-0.455266,-0.527013,-0.850612,-0.034181,0.033692,-3.723145,-26.062012,-8.850098,0,0
3650,2024 10 07,05:24:40.407,0.426276,-0.577667,-0.454113,-0.527609,-1.033723,-0.015625,-0.031739,-2.807617,-16.479492,-8.911133,0,0
3651,2024 10 07,05:24:40.415,0.426276,-0.577667,-0.454113,-0.527609,-1.033723,-0.015625,-0.031739,-2.807617,-16.479492,-8.911133,0,0
3652,2024 10 07,05:24:40.423,0.428198,-0.576919,-0.452753,-0.52804,-0.856471,-0.012696,-0.043458,9.58252,-22.705078,-16.662598,0,0
3653,2024 10 07,05:24:40.432,0.430453,-0.57653,-0.452098,-0.527191,-0.867702,-0.010254,-0.090335,20.080566,-7.263184,-20.935059,0,0
3654,2024 10 07,05:24:40.440,0.432761,-0.576441,-0.451989,-0.52549,-0.901883,0.078616,-0.080569,23.620605,0.854492,-23.4375,0,0
3655,2024 10 07,05:24:40.448,0.434774,-0.57695,-0.451683,-0.523529,-0.974639,0.082522,-0.003906,17.456055,6.103516,-28.503418,0,0
3656,2024 10 07,05:24:40.457,0.436426,-0.577917,-0.450804,-0.521844,-1.028352,-0.006348,0.135746,8.178711,2.990723,-29.541016,0,0
3657,2024 10 07,05:24:40.465,0.436426,-0.577917,-0.450804,-0.521844,-1.028352,-0.006348,0.135746,8.178711,2.990723,-29.541016,0,0
3658,2024 10 07,05:24:40.473,0.438193,-0.578642,-0.449515,-0.520669,-1.066439,0.021973,0.114261,4.699707,-6.713867,-28.625488,0,0
3659,2024 10 07,05:24:40.482,0.439984,-0.578947,-0.447223,-0.520793,-0.981475,0.013672,0.009278,-6.896973,-23.864746,-26.489258,0,0
3660,2024 10 07,05:24:40.490,0.441749,-0.579211,-0.444362,-0.521454,-0.878445,0.007813,-0.174322,-13.244629,-25.939941,-28.198242,0,0
3661,2024 10 07,05:24:40.498,0.442982,-0.579891,-0.441302,-0.522251,-0.880886,0.06006,-0.009766,-19.348145,-18.920898,-27.34375,0,0
3662,2024 10 07,05:24:40.507,0.443266,-0.581321,-0.43804,-0.523165,-0.991241,-0.068361,-0.02588,-31.738281,-15.930176,-26.184082,0,0
3663,2024 10 07,05:24:40.515,0.443266,-0.581321,-0.43804,-0.523165,-0.991241,-0.068361,-0.02588,-31.738281,-15.930176,-26.184082,0,0
3664,2024 10 07,05:24:40.523,0.443972,-0.582473,-0.434476,-0.524256,-0.966826,-0.051271,-0.016114,-27.099609,-22.888184,-28.503418,0,0
3665,2024 10 07,05:24:40.532,0.445071,-0.583521,-0.430943,-0.525074,-0.948759,-0.078127,-0.04883,-22.521973,-21.789551,-32.409668,0,0
3666,2024 10 07,05:24:40.540,0.446698,-0.584347,-0.427566,-0.525534,-1.039582,-0.095218,-0.007813,-12.329102,-22.827148,-34.912109,0,0
3667,2024 10 07,05:24:40.548,0.449382,-0.584518,-0.42428,-0.525719,-0.967803,-0.098148,-0.06885,-1.647949,-33.203125,-38.635254,0,0
3668,2024 10 07,05:24:40.557,0.452777,-0.584277,-0.421092,-0.525637,-0.967803,-0.080081,-0.082034,7.263184,-31.37207,-41.931152,0,0
3669,2024 10 07,05:24:40.565,0.452777,-0.584277,-0.421092,-0.525637,-0.967803,-0.080081,-0.082034,7.263184,-31.37207,-41.931152,0,0
3670,2024 10 07,05:24:40.573,0.456596,-0.584056,-0.418049,-0.525009,-0.96585,-0.067385,-0.06592,13.061523,-31.12793,-46.875,0,0
3671,2024 10 07,05:24:40.582,0.460736,-0.584026,-0.415082,-0.523777,-0.981964,-0.128422,-0.120121,16.418457,-26.062012,-52.856445,0,0
3672,2024 10 07,05:24:40.590,0.465646,-0.583766,-0.412145,-0.522042,-1.078158,-0.08887,-0.121586,25.817871,-29.23584,-58.776855,0,0
3673,2024 10 07,05:24:40.598,0.471401,-0.583487,-0.409122,-0.519561,-1.098666,-0.076662,-0.022462,36.437988,-25.57373,-69.580078,0,0
3674,2024 10 07,05:24:40.607,0.477896,-0.583543,-0.40621,-0.515836,-1.297403,-0.108402,-0.055177,46.142578,-21.179199,-82.336426,0,0
3675,2024 10 07,05:24:40.615,0.477896,-0.583543,-0.40621,-0.515836,-1.297403,-0.108402,-0.055177,46.142578,-21.179199,-82.336426,0,0
3676,2024 10 07,05:24:40.623,0.486186,-0.583195,-0.402688,-0.511222,-1.321818,-0.049318,-0.04004,61.828613,-30.761719,-101.745605,0,0
3677,2024 10 07,05:24:40.632,0.495982,-0.582757,-0.398416,-0.50563,-1.431196,0.019044,-0.096683,69.946289,-34.912109,-121.459961,0,0
3678,2024 10 07,05:24:40.640,0.50688,-0.582707,-0.393016,-0.499063,-1.502976,0.162114,-0.209967,70.068359,-37.536621,-143.615723,0,0
3679,2024 10 07,05:24:40.648,0.517905,-0.583875,-0.385627,-0.492094,-1.5562,0.187994,-0.172369,51.330566,-38.085938,-166.381836,0,0
3680,2024 10 07,05:24:40.657,0.52843,-0.586814,-0.376215,-0.484637,-1.758354,0.173833,-0.026856,26.184082,-35.400391,-187.744141,0,0
3681,2024 10 07,05:24:40.665,0.52843,-0.586814,-0.376215,-0.484637,-1.758354,0.173833,-0.026856,26.184082,-35.400391,-187.744141,0,0
3682,2024 10 07,05:24:40.673,0.538761,-0.591274,-0.364261,-0.476913,-2.061586,0.187506,-0.053224,5.371094,-43.151855,-215.087891,0,0
3683,2024 10 07,05:24:40.682,0.549912,-0.59669,-0.348576,-0.469098,-2.165105,0.304697,0.13477,-19.53125,-65.856934,-252.197266,0,0
3684,2024 10 07,05:24:40.690,0.561731,-0.603672,-0.328968,-0.460237,-2.653401,0.339854,0.117679,-35.27832,-79.650879,-300.292969,0,0
3685,2024 10 07,05:24:40.698,0.576229,-0.610723,-0.30445,-0.449764,-3.13242,0.367687,0.168462,-31.12793,-106.262207,-365.722656,0,0
3686,2024 10 07,05:24:40.707,0.595321,-0.617355,-0.275543,-0.434214,-4.005981,0.602557,0.356945,2.441406,-122.497559,-462.341309,0,0
3687,2024 10 07,05:24:40.715,0.595321,-0.617355,-0.275543,-0.434214,-4.005981,0.602557,0.356945,2.441406,-122.497559,-462.341309,0,0
3688,2024 10 07,05:24:40.723,0.61849,-0.62407,-0.240251,-0.412657,-5.155431,0.375011,-0.10596,13.73291,-135.498047,-578.125,0,0
3689,2024 10 07,05:24:40.732,0.644371,-0.630297,-0.196192,-0.38603,-5.353191,0.039064,0.124516,-2.258301,-182.373047,-684.814453,0,0
3690,2024 10 07,05:24:40.740,0.668495,-0.634895,-0.145837,-0.358823,-4.954741,-0.349132,-0.132328,-13.549805,-215.820313,-703.796387,0,1
3691,2024 10 07,05:24:40.748,0.691351,-0.634958,-0.095323,-0.331323,-4.324351,0.298349,0.569842,3.356934,-229.309082,-684.631348,0,0
3692,2024 10 07,05:24:40.757,0.711426,-0.632738,-0.048104,-0.301995,-4.18714,0.927763,0.816919,24.291992,-186.706543,-667.053223,0,0
3693,2024 10 07,05:24:40.765,0.729741,-0.628007,-0.00478,-0.270302,-3.319926,1.748589,1.516648,24.291992,-186.706543,-667.053223,0,0
3694,2024 10 07,05:24:40.773,0.729741,-0.628007,-0.00478,-0.270302,-3.319926,1.748589,1.516648,43.945313,-143.920898,-649.841309,0,0
3695,2024 10 07,05:24:40.782,0.745619,-0.623435,0.032241,-0.233111,-2.058657,1.61333,1.813044,37.475586,-33.691406,-642.63916,0,0
3696,2024 10 07,05:24:40.790,0.762176,-0.616249,0.05766,-0.189736,-1.113315,1.451705,2.62801,166.625977,115.356445,-603.271484,0,0
3697,2024 10 07,05:24:40.798,0.7788,-0.600708,0.069848,-0.166557,1.785211,4.5309,1.565966,251.89209,-9.521484,-206.298828,0,0
3698,2024 10 07,05:24:40.807,0.78468,-0.593776,0.053913,-0.169708,-1.782281,3.200781,-0.904324,56.396484,174.01123,212.097168,0,0
3699,2024 10 07,05:24:40.815,0.781936,-0.59229,0.029622,-0.192071,-2.606525,2.786706,0.552751,11.047363,-11.71875,392.39502,0,0
3700,2024 10 07,05:24:40.823,0.781936,-0.59229,0.029622,-0.192071,-2.606525,2.786706,0.552751,11.047363,-11.71875,392.39502,0,0
3701,2024 10 07,05:24:40.832,0.77269,-0.594012,0.012816,-0.223463,-1.346721,2.00885,1.498093,-18.127441,-53.283691,394.592285,0,0
3702,2024 10 07,05:24:40.840,0.762592,-0.59685,-0.003421,-0.249421,-0.351085,0.943388,1.567919,-45.593262,-29.724121,344.116211,0,0
3703,2024 10 07,05:24:40.848,0.753998,-0.599668,-0.021727,-0.267232,0.515152,0.879421,1.448286,-23.376465,78.430176,293.701172,0,0
3704,2024 10 07,05:24:40.857,0.745784,-0.604012,-0.048038,-0.276889,0.30665,1.338908,1.230995,-7.751465,203.063965,291.07666,0,0
3705,2024 10 07,05:24:40.865,0.735543,-0.61004,-0.082925,-0.282757,-0.68508,1.585498,0.964873,-11.779785,300.231934,328.491211,0,0
3706,2024 10 07,05:24:40.873,0.735543,-0.61004,-0.082925,-0.282757,-0.68508,1.585498,0.964873,-11.779785,300.231934,328.491211,0,0
3707,2024 10 07,05:24:40.882,0.722317,-0.615888,-0.121887,-0.289971,-1.466842,1.531297,0.68508,-24.719238,299.926758,373.168945,0,0
3708,2024 10 07,05:24:40.890,0.706394,-0.619987,-0.160286,-0.301549,-1.786187,1.414594,0.429701,-38.024902,258.483887,412.04834,0,0
3709,2024 10 07,05:24:40.898,0.688196,-0.622095,-0.196846,-0.31723,-1.700247,1.124546,0.393078,-53.283691,211.975098,440.063477,0,0
3710,2024 10 07,05:24:40.907,0.667968,-0.622809,-0.232508,-0.334466,-1.645558,0.806665,0.308603,-59.204102,203.125,455.322266,0,0
3711,2024 10 07,05:24:40.915,0.646513,-0.621723,-0.267425,-0.352086,-1.533738,0.571795,0.431654,-55.419922,190.734863,461.669922,0,0
3712,2024 10 07,05:24:40.923,0.646513,-0.621723,-0.267425,-0.352086,-1.533738,0.571795,0.431654,-55.419922,190.734863,461.669922,0,0
3713,2024 10 07,05:24:40.932,0.623859,-0.619359,-0.302963,-0.367978,-1.675344,0.394055,0.333995,-45.166016,214.172363,462.585449,0,0
3714,2024 10 07,05:24:40.940,0.60026,-0.615519,-0.339133,-0.381855,-1.903378,0.249519,0.341807,-31.37207,226.5625,462.585449,0,0
3715,2024 10 07,05:24:40.948,0.575703,-0.609866,-0.37586,-0.394155,-2.18952,0.291513,0.210944,-18.188477,237.426758,468.62793,0,0
3716,2024 10 07,05:24:40.957,0.550045,-0.602383,-0.412488,-0.405511,-2.489822,0.417493,0.061037,-11.657715,239.074707,475.219727,0,0
3717,2024 10 07,05:24:40.965,0.523078,-0.593133,-0.448633,-0.416307,-2.730552,0.337413,0.026368,-11.352539,238.525391,481.994629,0,0
3718,2024 10 07,05:24:40.973,0.523078,-0.593133,-0.448633,-0.416307,-2.730552,0.337413,0.026368,-11.352539,238.525391,481.994629,0,0
3719,2024 10 07,05:24:40.982,0.494448,-0.582253,-0.484526,-0.426306,-2.853603,0.093753,-0.000977,-9.58252,246.154785,494.140625,0,0
3720,2024 10 07,05:24:40.990,0.463842,-0.569929,-0.520207,-0.43522,-3.192969,-0.308115,-0.011231,-8.728027,259.155273,509.094238,0,0
3721,2024 10 07,05:24:40.998,0.43124,-0.555908,-0.555781,-0.442839,-3.56798,-0.900906,-0.169439,-5.92041,270.385742,523.742676,0,0
3722,2024 10 07,05:24:41.007,0.39857,-0.540123,-0.589752,-0.449001,-3.940062,-1.791559,-0.248054,3.662109,258.544922,517.150879,0,0
3723,2024 10 07,05:24:41.015,0.367237,-0.523629,-0.620837,-0.453333,-4.229133,-2.899014,-0.540056,10.864258,246.582031,490.600586,0,0
3724,2024 10 07,05:24:41.023,0.367237,-0.523629,-0.620837,-0.453333,-4.229133,-2.899014,-0.540056,10.864258,246.582031,490.600586,0,0
3725,2024 10 07,05:24:41.032,0.339196,-0.507102,-0.64737,-0.456843,-4.153447,-3.988891,-0.761254,7.507324,202.941895,445.251465,0,0
3726,2024 10 07,05:24:41.040,0.315407,-0.492575,-0.667901,-0.460214,-3.351665,-4.6686,-1.457564,-14.221191,164.245605,369.445801,0,0
3727,2024 10 07,05:24:41.048,0.294203,-0.484238,-0.680942,-0.463978,-2.483963,-5.200842,-2.576251,-74.584961,161.254883,263.122559,0,0
3728,2024 10 07,05:24:41.057,0.274582,-0.484823,-0.685313,-0.468933,-1.847224,-5.858577,-3.371197,-151.855469,156.982422,136.291504,0,0
3729,2024 10 07,05:24:41.065,0.256496,-0.49393,-0.68077,-0.47623,-2.936613,-7.341533,-3.270119,-228.69873,160.827637,31.738281,0,0
3730,2024 10 07,05:24:41.073,0.256496,-0.49393,-0.68077,-0.47623,-2.936613,-7.341533,-3.270119,-228.69873,160.827637,31.738281,0,0
3731,2024 10 07,05:24:41.082,0.246261,-0.50593,-0.669726,-0.484621,-3.242286,-7.890378,-2.576251,-224.975586,44.311523,-57.189941,0,0
3732,2024 10 07,05:24:41.090,0.249437,-0.515725,-0.654021,-0.49403,-1.434126,-6.267281,-1.595752,-165.100098,-63.415527,-138.061523,0,0
3733,2024 10 07,05:24:41.098,0.258109,-0.541485,-0.652208,-0.463462,-5.497238,1.572314,-7.116428,439.453125,521.30127,-427.734375,0,0
3734,2024 10 07,05:24:41.107,0.307551,-0.54607,-0.612259,-0.482034,-0.355968,0.54152,6.506546,-51.025391,-750.915527,-486.694336,0,0
3735,2024 10 07,05:24:41.115,0.335715,-0.56512,-0.582594,-0.478037,-2.048402,-1.201209,-0.552263,-92.163086,37.231445,-497.070313,1,0
3736,2024 10 07,05:24:41.123,0.335715,-0.56512,-0.582594,-0.478037,-2.048402,-1.201209,-0.552263,-92.163086,37.231445,-497.070313,0,0
3737,2024 10 07,05:24:41.132,0.356081,-0.588479,-0.555833,-0.466849,-4.992828,-0.687033,-3.554308,-96.374512,-194.030762,-454.772949,0,0
3738,2024 10 07,05:24:41.140,0.387635,-0.586873,-0.516051,-0.488887,-0.925321,-2.14362,1.92291,-67.993164,-492.553711,-290.710449,0,0
3739,2024 10 07,05:24:41.148,0.403208,-0.587883,-0.500453,-0.491288,-2.373119,-0.679708,-0.965361,-9.033203,-118.713379,-136.047363,0,0
3740,2024 10 07,05:24:41.157,0.414021,-0.581512,-0.484752,-0.505417,-0.495132,-0.146977,0.363781,-87.768555,-304.016113,-50.476074,0,0
3741,2024 10 07,05:24:41.165,0.418913,-0.578762,-0.471774,-0.516697,-0.10596,-0.465835,-0.794458,-76.23291,-120.910645,-41.137695,0,0
3742,2024 10 07,05:24:41.173,0.422647,-0.577678,-0.466456,-0.519689,-0.897,-0.155766,0.027833,-9.338379,-70.861816,-32.287598,0,0
3743,2024 10 07,05:24:41.182,0.422647,-0.577678,-0.466456,-0.519689,-0.897,-0.155766,0.027833,-9.338379,-70.861816,-32.287598,0,0
3744,2024 10 07,05:24:41.190,0.425874,-0.575925,-0.462452,-0.522571,-1.009796,-0.041017,0.13477,-10.803223,-57.861328,-17.456055,0,0
3745,2024 10 07,05:24:41.198,0.42797,-0.574423,-0.458913,-0.525622,-0.842311,-0.042482,-0.28077,-16.113281,-61.096191,-12.390137,0,0
3746,2024 10 07,05:24:41.207,0.430627,-0.572542,-0.455773,-0.52823,-0.721702,-0.021973,-0.073733,-3.417969,-48.461914,-13.427734,0,0
3747,2024 10 07,05:24:41.215,0.431642,-0.572117,-0.454235,-0.529187,-1.060091,0.013672,0.034669,-7.141113,-16.113281,-8.056641,0,0
3748,2024 10 07,05:24:41.223,0.432737,-0.571364,-0.452293,-0.530766,-0.837428,0.003418,-0.129398,-8.300781,-34.729004,-8.056641,0,0
3749,2024 10 07,05:24:41.232,0.432737,-0.571364,-0.452293,-0.530766,-0.837428,0.003418,-0.129398,-8.300781,-34.729004,-8.056641,0,0
3750,2024 10 07,05:24:41.240,0.43375,-0.570966,-0.450826,-0.531615,-0.854518,0.005371,-0.032228,-3.173828,-11.108398,-9.70459,0,0
3751,2024 10 07,05:24:41.248,0.434527,-0.571089,-0.450128,-0.531439,-0.922391,-0.021973,-0.034669,2.990723,-6.835938,-11.71875,0,0
3752,2024 10 07,05:24:41.257,0.43582,-0.571218,-0.449733,-0.530577,-0.990753,0.007813,-0.015625,11.535645,1.831055,-16.540527,0,0
3753,2024 10 07,05:24:41.265,0.437566,-0.571338,-0.449179,-0.529478,-1.032258,0.050783,0.013184,12.756348,-6.713867,-21.972656,0,0
3754,2024 10 07,05:24:41.273,0.439809,-0.571264,-0.448046,-0.528659,-0.954131,0.067385,0.042482,13.000488,-12.390137,-26.306152,0,0
3755,2024 10 07,05:24:41.282,0.439809,-0.571264,-0.448046,-0.528659,-0.954131,0.067385,0.042482,13.000488,-12.390137,-26.306152,0,0
3756,2024 10 07,05:24:41.290,0.441978,-0.571418,-0.446438,-0.528044,-0.92288,0.033692,-0.023927,4.699707,-15.74707,-28.442383,0,0
3757,2024 10 07,05:24:41.298,0.443985,-0.57164,-0.444333,-0.527895,-0.830103,0.046876,-0.167974,-1.464844,-17.150879,-28.198242,0,0
3758,2024 10 07,05:24:41.307,0.445492,-0.572407,-0.442221,-0.527568,-0.928739,0.020508,-0.035157,-6.713867,-8.544922,-29.602051,0,0
3759,2024 10 07,05:24:41.315,0.44674,-0.573402,-0.43981,-0.527447,-0.940458,0.006348,-0.039552,-10.986328,-13.122559,-29.296875,0,0
3760,2024 10 07,05:24:41.323,0.447765,-0.574507,-0.437161,-0.527578,-0.955107,-0.061037,0.021485,-18.127441,-11.657715,-28.503418,0,0
3761,2024 10 07,05:24:41.332,0.447765,-0.574507,-0.437161,-0.527578,-0.955107,-0.061037,0.021485,-18.127441,-11.657715,-28.503418,0,0
3762,2024 10 07,05:24:41.340,0.448723,-0.575447,-0.434419,-0.528005,-0.991241,-0.04004,0.030763,-16.479492,-18.249512,-25.268555,0,0
3763,2024 10 07,05:24:41.348,0.449858,-0.575935,-0.431405,-0.528977,-1.015168,-0.053224,0.031739,-18.493652,-26.245117,-24.719238,0,0
3764,2024 10 07,05:24:41.357,0.451685,-0.575861,-0.42801,-0.530257,-1.072787,-0.069338,0.059572,-11.291504,-38.024902,-27.893066,0,0
3765,2024 10 07,05:24:41.365,0.454619,-0.575116,-0.424251,-0.531578,-0.927763,-0.106937,-0.083499,-4.882813,-50.354004,-33.203125,0,0
3766,2024 10 07,05:24:41.373,0.458298,-0.57408,-0.42073,-0.532335,-0.949248,-0.008789,-0.173833,6.713867,-43.762207,-37.597656,0,0
3767,2024 10 07,05:24:41.382,0.458298,-0.57408,-0.42073,-0.532335,-0.949248,-0.008789,-0.173833,6.713867,-43.762207,-37.597656,0,0
3768,2024 10 07,05:24:41.390,0.462335,-0.573294,-0.417421,-0.532297,-1.016144,-0.140141,-0.161138,14.404297,-40.83252,-44.677734,0,0
3769,2024 10 07,05:24:41.398,0.467226,-0.572468,-0.414518,-0.531182,-0.995636,-0.081545,-0.034669,25.20752,-29.846191,-52.79541,0,0
3770,2024 10 07,05:24:41.407,0.472427,-0.57257,-0.41226,-0.528221,-1.230995,-0.082522,-0.107913,38.085938,-15.014648,-67.260742,0,0
3771,2024 10 07,05:24:41.415,0.479307,-0.572433,-0.409693,-0.524153,-1.247108,-0.039552,-0.056154,52.79541,-22.033691,-84.655762,0,0
3772,2024 10 07,05:24:41.423,0.487701,-0.572378,-0.406724,-0.518755,-1.386273,0.068361,-0.186041,66.650391,-19.40918,-105.59082,0,0
3773,2024 10 07,05:24:41.432,0.487701,-0.572378,-0.406724,-0.518755,-1.386273,0.068361,-0.186041,66.650391,-19.40918,-105.59082,0,0
3774,2024 10 07,05:24:41.440,0.49732,-0.572744,-0.402593,-0.512402,-1.48149,0.175298,-0.132328,63.415527,-25.085449,-129.02832,0,0
3775,2024 10 07,05:24:41.448,0.507236,-0.574466,-0.396849,-0.505185,-1.666066,0.202155,-0.239265,52.91748,-18.920898,-153.991699,0,0
3776,2024 10 07,05:24:41.457,0.517862,-0.577367,-0.389136,-0.49703,-1.855037,0.16895,-0.019532,43.151855,-24.902344,-183.166504,0,0
3777,2024 10 07,05:24:41.465,0.529255,-0.581009,-0.378662,-0.488807,-1.832087,0.187506,0.12598,26.550293,-43.151855,-208.190918,0,0
3778,2024 10 07,05:24:41.473,0.540802,-0.585597,-0.365152,-0.480909,-2.071352,0.304209,-0.033204,1.220703,-58.898926,-233.520508,0,0
3779,2024 10 07,05:24:41.482,0.540802,-0.585597,-0.365152,-0.480909,-2.071352,0.304209,-0.033204,1.220703,-58.898926,-233.520508,0,0
3780,2024 10 07,05:24:41.490,0.552418,-0.591997,-0.347941,-0.472557,-2.35847,0.349132,0.097171,-29.602051,-64.758301,-274.047852,0,0
3781,2024 10 07,05:24:41.498,0.564919,-0.600316,-0.326693,-0.462341,-2.862392,0.46144,0.13184,-47.607422,-74.09668,-330.993652,0,0
3782,2024 10 07,05:24:41.507,0.580757,-0.608849,-0.300175,-0.449354,-3.85754,0.689962,-0.104007,-32.287598,-107.48291,-413.574219,0,0
3783,2024 10 07,05:24:41.515,0.601946,-0.616885,-0.267241,-0.430923,-5.032868,0.688009,0.194342,-11.474609,-121.459961,-536.132813,0,0
3784,2024 10 07,05:24:41.523,0.627271,-0.625352,-0.22646,-0.405192,-6.271187,0.479995,-0.015137,1.647949,-154.602051,-669.372559,0,0
3785,2024 10 07,05:24:41.532,0.627271,-0.625352,-0.22646,-0.405192,-6.271187,0.479995,-0.015137,1.647949,-154.602051,-669.372559,0,0
3786,2024 10 07,05:24:41.540,0.653392,-0.632014,-0.174699,-0.378307,-5.626148,-0.333995,0.102054,-41.015625,-235.229492,-733.154297,0,0
3787,2024 10 07,05:24:41.548,0.678316,-0.635022,-0.121712,-0.349027,-4.915189,0.482925,0.230964,-4.333496,-227.783203,-734.680176,0,1
3788,2024 10 07,05:24:41.557,0.700304,-0.634633,-0.070745,-0.319075,-4.985992,1.063997,0.887234,4.577637,-208.007813,-711.669922,0,0
3789,2024 10 07,05:24:41.565,0.720697,-0.630349,-0.022565,-0.287655,-3.692007,2.127018,1.992737,45.166016,-194.152832,-694.519043,0,0
3790,2024 10 07,05:24:41.573,0.738088,-0.626032,0.019478,-0.250857,-2.51912,2.695883,1.457076,35.705566,-71.350098,-686.584473,0,0
3791,2024 10 07,05:24:41.582,0.753703,-0.621505,0.051882,-0.207294,-1.532762,1.651418,3.084567,81.542969,63.537598,-650.634766,0,0
3792,2024 10 07,05:24:41.590,0.753703,-0.621505,0.051882,-0.207294,-1.532762,1.651418,3.084567,81.542969,63.537598,-650.634766,0,0
3793,2024 10 07,05:24:41.598,0.769088,-0.609821,0.070491,-0.177913,2.764245,4.885403,1.221229,191.955566,-27.160645,-301.391602,0,0
3794,2024 10 07,05:24:41.607,0.774011,-0.604273,0.059414,-0.179527,-1.302774,4.06946,-0.251961,0.366211,169.128418,183.959961,0,0
3795,2024 10 07,05:24:41.615,0.768114,-0.608473,0.030874,-0.196999,-3.343364,3.471297,0.45558,-24.108887,64.575195,390.808105,0,0
3796,2024 10 07,05:24:41.623,0.755567,-0.613742,0.01429,-0.228548,-1.61919,2.415113,1.792535,-72.814941,-75.378418,395.080566,0,0
3797,2024 10 07,05:24:41.632,0.743603,-0.618691,-0.002424,-0.253515,-0.390149,1.376019,1.273476,-76.23291,-19.775391,344.299316,0,0
3798,2024 10 07,05:24:41.640,0.743603,-0.618691,-0.002424,-0.253515,-0.390149,1.376019,1.273476,-76.23291,-19.775391,344.299316,0,0
3799,2024 10 07,05:24:41.648,0.733339,-0.622708,-0.021122,-0.272033,0.670919,1.176794,1.785699,-38.757324,75.012207,312.683105,0,0
3800,2024 10 07,05:24:41.657,0.723797,-0.627754,-0.051654,-0.281735,0.391614,1.528855,1.181677,-3.601074,238.464355,338.928223,0,0
3801,2024 10 07,05:24:41.665,0.712117,-0.63329,-0.0929,-0.288449,-0.713401,1.763237,1.15775,6.408691,338.989258,399.536133,0,0
3802,2024 10 07,05:24:41.673,0.697125,-0.637645,-0.140369,-0.296179,-1.711478,1.689016,0.652364,5.004883,353.820801,456.726074,0,0
3803,2024 10 07,05:24:41.682,0.679434,-0.638699,-0.187711,-0.308542,-2.031312,1.458052,0.420423,2.807617,304.931641,500.488281,0,0
3804,2024 10 07,05:24:41.690,0.679434,-0.638699,-0.187711,-0.308542,-2.031312,1.458052,0.420423,2.807617,304.931641,500.488281,0,0
3805,2024 10 07,05:24:41.698,0.659593,-0.636275,-0.232726,-0.325469,-2.113834,1.105991,0.232429,-6.469727,241.149902,530.822754,0,0
3806,2024 10 07,05:24:41.707,0.6379,-0.630894,-0.275671,-0.345053,-2.125553,0.674337,0.30372,-7.8125,215.637207,548.64502,0,0
3807,2024 10 07,05:24:41.715,0.615244,-0.622788,-0.317223,-0.364662,-2.089908,0.367199,0.162114,0.610352,192.138672,548.828125,0,0
3808,2024 10 07,05:24:41.723,0.59256,-0.612251,-0.356767,-0.383066,-2.113346,0.216803,0.288583,14.465332,187.438965,533.935547,0,0
3809,2024 10 07,05:24:41.732,0.568936,-0.600926,-0.395726,-0.398247,-2.388745,0.262215,0.084964,22.033691,207.15332,516.479492,0,0
3810,2024 10 07,05:24:41.740,0.568936,-0.600926,-0.395726,-0.398247,-2.388745,0.262215,0.084964,22.033691,207.15332,516.479492,0,0
3811,2024 10 07,05:24:41.748,0.544016,-0.588859,-0.43344,-0.411609,-2.620197,0.381359,0.156255,17.028809,216.125488,508.605957,0,0
3812,2024 10 07,05:24:41.757,0.516131,-0.576645,-0.470905,-0.423483,-3.011811,0.475112,0.016114,0.793457,240.478516,516.052246,0,0
3813,2024 10 07,05:24:41.765,0.484355,-0.564243,-0.507643,-0.435119,-3.466414,0.082522,-0.058596,-28.869629,259.94873,532.836914,0,0
3814,2024 10 07,05:24:41.773,0.448755,-0.551515,-0.543019,-0.446744,-4.008912,-0.628437,-0.217292,-58.837891,270.690918,547.119141,0,0
3815,2024 10 07,05:24:41.782,0.41113,-0.538348,-0.575426,-0.458299,-4.402478,-1.691458,-0.255379,-83.129883,265.258789,541.015625,0,0
3816,2024 10 07,05:24:41.790,0.41113,-0.538348,-0.575426,-0.458299,-4.402478,-1.691458,-0.255379,-83.129883,265.258789,541.015625,0,0
3817,2024 10 07,05:24:41.798,0.374016,-0.525594,-0.603446,-0.468738,-4.520157,-2.999115,-0.378918,-96.374512,247.558594,503.356934,0,0
3818,2024 10 07,05:24:41.807,0.339507,-0.514115,-0.626303,-0.477666,-4.416151,-4.222297,-0.602069,-103.515625,224.79248,447.692871,0,0
3819,2024 10 07,05:24:41.815,0.309422,-0.504387,-0.643584,-0.48544,-3.813105,-5.218909,-1.096225,-108.947754,183.227539,375.488281,0,0
3820,2024 10 07,05:24:41.823,0.284751,-0.498126,-0.654139,-0.492839,-2.658284,-5.959654,-2.200751,-131.652832,149.780273,276.367188,0,0
3821,2024 10 07,05:24:41.832,0.264957,-0.498445,-0.657201,-0.499436,-1.837458,-6.856166,-3.063082,-160.766602,132.141113,147.277832,0,0
3822,2024 10 07,05:24:41.840,0.264957,-0.498445,-0.657201,-0.499436,-1.837458,-6.856166,-3.063082,-160.766602,132.141113,147.277832,0,0
3823,2024 10 07,05:24:41.848,0.249072,-0.505684,-0.653573,-0.505064,-3.327738,-7.938719,-3.065523,-173.217773,140.075684,49.133301,0,0
3824,2024 10 07,05:24:41.857,0.244605,-0.512467,-0.645458,-0.510813,-3.165136,-8.42555,-2.145085,-136.413574,-17.150879,-31.188965,0,0
3825,2024 10 07,05:24:41.865,0.254789,-0.528529,-0.642235,-0.493228,-6.187201,-5.528001,-7.830806,265.930176,334.594727,-323.242188,0,0
3826,2024 10 07,05:24:41.873,0.306782,-0.533463,-0.6104,-0.49871,0.254402,-1.904355,4.354625,114.257813,-656.738281,-486.572266,1,0
3827,2024 10 07,05:24:41.882,0.344277,-0.544316,-0.585513,-0.492309,-0.275887,4.348277,-2.409741,10.864258,-57.983398,-459.106445,0,0
3828,2024 10 07,05:24:41.890,0.344277,-0.544316,-0.585513,-0.492309,-0.275887,4.348277,-2.409741,10.864258,-57.983398,-459.106445,0,0
3829,2024 10 07,05:24:41.898,0.359825,-0.567775,-0.560972,-0.483184,-3.406354,0.791528,1.692434,-17.63916,-54.748535,-453.063965,0,0
3830,2024 10 07,05:24:41.907,0.375405,-0.583593,-0.527516,-0.490119,-2.557695,-2.282296,-2.846278,-202.514648,-234.619141,-339.782715,0,0
3831,2024 10 07,05:24:41.915,0.396194,-0.584611,-0.503301,-0.497944,-1.319376,-1.624073,0.463881,-25.878906,-241.516113,-210.083008,0,0
3832,2024 10 07,05:24:41.923,0.409469,-0.583663,-0.49255,-0.499066,-1.356975,-0.175298,0.271004,34.057617,-113.28125,-104.980469,0,0
3833,2024 10 07,05:24:41.932,0.41523,-0.58174,-0.48408,-0.504807,-1.060579,-0.058107,0.080081,-57.495117,-133.972168,-39.978027,0,0
3834,2024 10 07,05:24:41.940,0.41523,-0.58174,-0.48408,-0.504807,-1.060579,-0.058107,0.080081,-57.495117,-133.972168,-39.978027,0,0
3835,2024 10 07,05:24:41.948,0.418449,-0.579883,-0.474844,-0.51299,-0.670919,-0.278329,-0.192877,-65.368652,-116.455078,-29.846191,0,0
3836,2024 10 07,05:24:41.957,0.421903,-0.57818,-0.468004,-0.518342,-0.780297,-0.206061,-0.110843,-26.855469,-89.84375,-25.817871,0,0
3837,2024 10 07,05:24:41.965,0.42445,-0.576188,-0.463714,-0.522321,-0.995636,-0.029298,0.119633,-25.024414,-66.650391,-9.70459,0,0
3838,2024 10 07,05:24:41.973,0.426134,-0.574503,-0.459959,-0.526112,-0.896023,0.024415,-0.184088,-20.690918,-62.744141,-8.056641,0,0
3839,2024 10 07,05:24:41.982,0.428204,-0.572742,-0.456431,-0.529414,-0.818873,-0.027833,-0.077639,-15.258789,-55.908203,-10.742188,0,0
3840,2024 10 07,05:24:41.990,0.429639,-0.571641,-0.45386,-0.531646,-0.975127,0.006348,-0.004395,-13.305664,-37.29248,-7.93457,0,0
3841,2024 10 07,05:24:41.998,0.429639,-0.571641,-0.45386,-0.531646,-0.975127,0.006348,-0.004395,-13.305664,-37.29248,-7.93457,0,0
3842,2024 10 07,05:24:42.007,0.43095,-0.570637,-0.451272,-0.533862,-0.892117,-0.038087,-0.1377,-13.305664,-41.320801,-9.70459,0,0
3843,2024 10 07,05:24:42.015,0.432674,-0.569774,-0.449061,-0.535253,-0.888211,0.013184,0.037111,-4.516602,-28.503418,-14.953613,0,0
3844,2024 10 07,05:24:42.023,0.434396,-0.569517,-0.447497,-0.53544,-0.980499,0.019044,-0.00293,5.065918,-18.432617,-19.65332,0,0
3845,2024 10 07,05:24:42.032,0.436745,-0.569022,-0.445968,-0.535333,-0.969756,0.02588,0.026368,10.253906,-22.399902,-23.376465,0,0
3846,2024 10 07,05:24:42.040,0.439203,-0.568592,-0.444268,-0.535191,-0.927274,0.023927,-0.090823,6.469727,-22.888184,-25.390625,0,0
3847,2024 10 07,05:24:42.048,0.439203,-0.568592,-0.444268,-0.535191,-0.927274,0.023927,-0.090823,6.469727,-22.888184,-25.390625,0,0
3848,2024 10 07,05:24:42.057,0.441502,-0.568289,-0.442216,-0.535321,-0.965361,0.036622,0.050295,1.342773,-24.353027,-25.268555,0,0
3849,2024 10 07,05:24:42.065,0.443432,-0.568133,-0.439764,-0.535912,-0.913114,-0.005371,-0.121097,-7.202148,-28.991699,-23.31543,0,0
3850,2024 10 07,05:24:42.073,0.445144,-0.567956,-0.437184,-0.536789,-0.85989,0.066897,-0.052736,-8.789063,-25.146484,-22.338867,0,0
3851,2024 10 07,05:24:42.082,0.446149,-0.568627,-0.434668,-0.537287,-0.913114,0.02295,-0.177252,-17.028809,-15.258789,-24.047852,0,0
3852,2024 10 07,05:24:42.090,0.447034,-0.569467,-0.431784,-0.537988,-0.884304,-0.017579,-0.041993,-21.240234,-18.066406,-25.268555,0,0
3853,2024 10 07,05:24:42.098,0.447034,-0.569467,-0.431784,-0.537988,-0.884304,-0.017579,-0.041993,-21.240234,-18.066406,-25.268555,0,0
3854,2024 10 07,05:24:42.107,0.44765,-0.570602,-0.428911,-0.53857,-0.961455,-0.038087,-0.090823,-22.399902,-12.817383,-25.45166,0,0
3855,2024 10 07,05:24:42.115,0.448474,-0.571695,-0.426011,-0.539027,-0.988311,-0.0918,0.032228,-19.592285,-15.686035,-27.526855,0,0
3856,2024 10 07,05:24:42.123,0.449918,-0.572665,-0.423354,-0.538888,-1.00589,-0.079104,-0.099612,-10.131836,-14.343262,-33.325195,0,0
3857,2024 10 07,05:24:42.132,0.452324,-0.57312,-0.420596,-0.53855,-1.092319,-0.019532,-0.032716,1.586914,-20.996094,-38.818359,0,0
3858,2024 10 07,05:24:42.140,0.455702,-0.573153,-0.417651,-0.537957,-1.023469,-0.104007,-0.012696,9.70459,-29.724121,-44.921875,0,0
3859,2024 10 07,05:24:42.148,0.455702,-0.573153,-0.417651,-0.537957,-1.023469,-0.104007,-0.012696,9.70459,-29.724121,-44.921875,0,0
3860,2024 10 07,05:24:42.157,0.459932,-0.572861,-0.414733,-0.536926,-0.978545,-0.08301,-0.099124,17.211914,-29.35791,-50.598145,0,0
3861,2024 10 07,05:24:42.165,0.464921,-0.572269,-0.411774,-0.535535,-1.04593,-0.00586,-0.102542,26.611328,-36.437988,-56.030273,0,0
3862,2024 10 07,05:24:42.173,0.470448,-0.571832,-0.408595,-0.533608,-1.040071,-0.082522,-0.142582,30.029297,-28.198242,-66.162109,0,0
3863,2024 10 07,05:24:42.182,0.476729,-0.571679,-0.405796,-0.530324,-1.150426,-0.058596,-0.139164,42.114258,-23.620605,-76.599121,0,0
3864,2024 10 07,05:24:42.190,0.484154,-0.571431,-0.402774,-0.526151,-1.187536,-0.06299,-0.079592,53.344727,-25.146484,-90.454102,0,0
3865,2024 10 07,05:24:42.198,0.484154,-0.571431,-0.402774,-0.526151,-1.187536,-0.06299,-0.079592,53.344727,-25.146484,-90.454102,0,0
3866,2024 10 07,05:24:42.207,0.492769,-0.571295,-0.399403,-0.520844,-1.279824,0.056154,-0.101566,64.453125,-23.31543,-108.093262,0,0
3867,2024 10 07,05:24:42.215,0.502178,-0.5715,-0.395074,-0.514899,-1.365276,0.129887,-0.284677,59.509277,-28.625488,-124.938965,0,0
3868,2024 10 07,05:24:42.223,0.511797,-0.572731,-0.389306,-0.508413,-1.647023,0.247566,-0.275887,46.75293,-24.047852,-144.958496,0,0
3869,2024 10 07,05:24:42.232,0.521235,-0.575826,-0.381326,-0.501327,-1.85992,0.204596,0.027345,22.460938,-23.742676,-172.485352,0,0
3870,2024 10 07,05:24:42.240,0.530707,-0.580705,-0.370903,-0.49352,-2.188055,0.184088,0.035646,5.554199,-27.282715,-201.660156,0,0
3871,2024 10 07,05:24:42.248,0.530707,-0.580705,-0.370903,-0.49352,-2.188055,0.184088,0.035646,5.554199,-27.282715,-201.660156,0,0
3872,2024 10 07,05:24:42.257,0.542006,-0.585617,-0.356567,-0.485945,-2.317942,0.308115,0.256355,-5.79834,-68.115234,-241.455078,0,0
3873,2024 10 07,05:24:42.265,0.55432,-0.591933,-0.338052,-0.477562,-2.540117,0.437025,0.210944,-32.226563,-77.514648,-289.794922,0,0
3874,2024 10 07,05:24:42.273,0.568365,-0.599603,-0.315093,-0.467069,-3.22129,0.579608,0.182623,-36.804199,-95.947266,-354.064941,0,0
3875,2024 10 07,05:24:42.282,0.586843,-0.606832,-0.286648,-0.452993,-4.200812,0.847194,0.295419,-12.878418,-122.802734,-449.951172,0,0
3876,2024 10 07,05:24:42.290,0.610374,-0.614088,-0.251456,-0.43256,-5.782403,0.750999,0.181158,0.12207,-145.874023,-577.880859,0,0
3877,2024 10 07,05:24:42.298,0.610374,-0.614088,-0.251456,-0.43256,-5.782403,0.750999,0.181158,0.12207,-145.874023,-577.880859,0,0
3878,2024 10 07,05:24:42.307,0.63821,-0.620157,-0.206212,-0.406902,-5.968444,0.307627,0.233894,2.685547,-213.562012,-703.430176,0,0
3879,2024 10 07,05:24:42.315,0.665381,-0.624006,-0.152573,-0.38027,-5.306803,-0.334483,-0.039552,-22.888184,-258.117676,-737.121582,0,1
3880,2024 10 07,05:24:42.323,0.691078,-0.623448,-0.099725,-0.351821,-4.730125,0.643574,0.783715,15.075684,-248.291016,-717.407227,0,0
3881,2024 10 07,05:24:42.332,0.713837,-0.619968,-0.050427,-0.321766,-4.773095,1.354534,1.158238,34.851074,-218.444824,-699.34082,0,0
3882,2024 10 07,05:24:42.340,0.734542,-0.613566,-0.00433,-0.28977,-3.368267,2.087466,1.800836,48.400879,-178.649902,-681.945801,0,0
3883,2024 10 07,05:24:42.348,0.734542,-0.613566,-0.00433,-0.28977,-3.368267,2.087466,1.800836,48.400879,-178.649902,-681.945801,0,0
3884,2024 10 07,05:24:42.357,0.752905,-0.607622,0.033361,-0.250633,-1.689505,2.43025,2.548906,60.424805,-31.433105,-666.931152,0,0
3885,2024 10 07,05:24:42.365,0.769412,-0.601039,0.056555,-0.208708,0.597186,2.210517,3.036714,145.446777,99.182129,-547.546387,0,0
3886,2024 10 07,05:24:42.373,0.784053,-0.586028,0.060868,-0.195264,1.271035,5.950865,1.109409,226.989746,31.311035,-40.039063,0,0
3887,2024 10 07,05:24:42.382,0.783796,-0.586297,0.035279,-0.201681,-2.920499,3.61681,-0.123539,39.123535,201.23291,295.227051,0,0
3888,2024 10 07,05:24:42.390,0.775846,-0.588496,0.011762,-0.227149,-2.221747,2.788171,1.13773,-48.64502,-14.465332,401.306152,0,0
3889,2024 10 07,05:24:42.398,0.765299,-0.591418,-0.006682,-0.253963,-0.944365,2.010315,1.388226,-47.363281,-3.051758,366.516113,0,0
3890,2024 10 07,05:24:42.407,0.765299,-0.591418,-0.006682,-0.253963,-0.944365,2.010315,1.388226,-47.363281,-3.051758,366.516113,0,0
3891,2024 10 07,05:24:42.415,0.755129,-0.594764,-0.024807,-0.274629,0.256844,1.18656,1.845271,-31.921387,41.931152,314.39209,0,0
3892,2024 10 07,05:24:42.423,0.746244,-0.598849,-0.050764,-0.286221,0.69924,1.439497,1.26957,-3.356934,201.416016,305.847168,0,0
3893,2024 10 07,05:24:42.432,0.735903,-0.604514,-0.088231,-0.291932,-0.098636,1.997131,1.211951,1.586914,333.92334,348.693848,0,0
3894,2024 10 07,05:24:42.440,0.72129,-0.611346,-0.134155,-0.296646,-1.484909,2.130436,0.717795,-11.047363,397.094727,406.677246,0,0
3895,2024 10 07,05:24:42.448,0.70297,-0.616192,-0.180476,-0.30589,-2.110416,1.840876,0.551775,-28.625488,342.041016,453.24707,0,0
3896,2024 10 07,05:24:42.457,0.70297,-0.616192,-0.180476,-0.30589,-2.110416,1.840876,0.551775,-28.625488,342.041016,453.24707,0,0
3897,2024 10 07,05:24:42.465,0.681778,-0.618235,-0.224037,-0.320579,-2.274972,1.518113,0.052248,-48.88916,279.23584,489.562988,0,0
3898,2024 10 07,05:24:42.473,0.658424,-0.617418,-0.264042,-0.339932,-2.245674,1.045442,0.235847,-67.565918,218.62793,514.587402,0,0
3899,2024 10 07,05:24:42.482,0.633413,-0.614284,-0.301879,-0.360988,-2.305734,0.602069,0.073244,-70.068359,189.941406,523.864746,0,0
3900,2024 10 07,05:24:42.490,0.608171,-0.608305,-0.336825,-0.382939,-2.260811,0.374035,0.304697,-63.781738,154.418945,519.714355,0,0
3901,2024 10 07,05:24:42.498,0.582517,-0.600536,-0.370535,-0.403403,-2.42439,0.192389,0.258309,-51.818848,155.700684,511.352539,0,0
3902,2024 10 07,05:24:42.507,0.582517,-0.600536,-0.370535,-0.403403,-2.42439,0.192389,0.258309,-51.818848,155.700684,511.352539,0,0
3903,2024 10 07,05:24:42.515,0.556507,-0.590805,-0.403471,-0.422445,-2.492264,0.115238,0.369152,-38.818359,153.869629,510.437012,0,0
3904,2024 10 07,05:24:42.523,0.528879,-0.579528,-0.437183,-0.439664,-2.732994,0.099124,0.37257,-28.442383,177.185059,523.55957,0,0
3905,2024 10 07,05:24:42.532,0.498637,-0.566721,-0.472676,-0.454715,-3.060152,-0.192877,0.477554,-17.089844,209.350586,545.532227,0,0
3906,2024 10 07,05:24:42.540,0.465564,-0.552626,-0.5097,-0.466969,-3.591418,-0.945341,0.403333,-4.272461,244.567871,563.598633,0,0
3907,2024 10 07,05:24:42.548,0.430945,-0.53749,-0.546343,-0.476339,-4.086062,-1.746635,0.140141,3.967285,262.695313,558.959961,0,0
3908,2024 10 07,05:24:42.557,0.430945,-0.53749,-0.546343,-0.476339,-4.086062,-1.746635,0.140141,3.967285,262.695313,558.959961,0,0
3909,2024 10 07,05:24:42.565,0.396433,-0.522716,-0.580127,-0.482764,-4.382458,-2.811121,-0.179693,1.647949,266.845703,522.644043,0,0
3910,2024 10 07,05:24:42.573,0.364013,-0.509332,-0.609156,-0.48683,-4.362926,-3.938108,-0.402844,-6.103516,251.220703,465.759277,0,0
3911,2024 10 07,05:24:42.582,0.335029,-0.498453,-0.632217,-0.489491,-3.752556,-4.877102,-0.881863,-23.681641,224.731445,389.587402,0,0
3912,2024 10 07,05:24:42.590,0.30979,-0.492709,-0.648356,-0.490819,-2.521073,-5.269204,-1.854549,-58.898926,216.247559,281.799316,0,0
3913,2024 10 07,05:24:42.598,0.286314,-0.495574,-0.656603,-0.491225,-1.414106,-5.386883,-3.483993,-117.980957,238.586426,154.785156,0,0
3914,2024 10 07,05:24:42.607,0.286314,-0.495574,-0.656603,-0.491225,-1.414106,-5.386883,-3.483993,-117.980957,238.586426,154.785156,0,0
3915,2024 10 07,05:24:42.615,0.264062,-0.50782,-0.656098,-0.491859,-2.331126,-7.220435,-4.365856,-202.819824,262.023926,36.193848,0,0
3916,2024 10 07,05:24:42.623,0.245127,-0.524862,-0.650343,-0.491413,-4.590472,-7.331278,-3.279885,-194.091797,217.346191,-32.775879,0,0
3917,2024 10 07,05:24:42.632,0.243846,-0.533412,-0.63729,-0.499872,-2.474197,-7.254616,-1.531297,-159.851074,-75.439453,-80.26123,0,0
3918,2024 10 07,05:24:42.640,0.253537,-0.543963,-0.63068,-0.492001,-15.103,-4.93228,0.923856,194.091797,180.175781,-211.608887,0,0
3919,2024 10 07,05:24:42.648,0.293278,-0.557696,-0.603675,-0.488404,-0.169927,0.066408,1.262734,-81.237793,-687.805176,-488.40332,1,0
3920,2024 10 07,05:24:42.657,0.293278,-0.557696,-0.603675,-0.488404,-0.169927,0.066408,1.262734,-81.237793,-687.805176,-488.40332,0,0
3921,2024 10 07,05:24:42.665,0.339968,-0.559958,-0.56803,-0.498208,2.108951,4.226203,0.103519,-41.564941,-270.629883,-475.769043,0,0
3922,2024 10 07,05:24:42.673,0.352723,-0.588363,-0.545419,-0.481595,-4.369762,1.211951,-1.628956,58.837891,70.007324,-481.872559,0,0
3923,2024 10 07,05:24:42.682,0.375653,-0.597197,-0.508655,-0.493468,-2.042054,-2.678793,-1.667531,-149.597168,-401.184082,-333.618164,0,0
3924,2024 10 07,05:24:42.690,0.400232,-0.594611,-0.487788,-0.498313,-1.821833,-1.088412,1.746147,46.203613,-197.692871,-198.608398,0,0
3925,2024 10 07,05:24:42.698,0.410995,-0.592,-0.477124,-0.502963,-1.38139,0.083987,-0.666036,-30.639648,-187.37793,-68.969727,0,0
3926,2024 10 07,05:24:42.707,0.410995,-0.592,-0.477124,-0.502963,-1.38139,0.083987,-0.666036,-30.639648,-187.37793,-68.969727,0,0
3927,2024 10 07,05:24:42.715,0.416501,-0.588077,-0.463354,-0.515749,-0.351573,-0.431654,-0.081057,-97.045898,-173.64502,-39.855957,0,0
3928,2024 10 07,05:24:42.723,0.420779,-0.586732,-0.455633,-0.520662,-0.776391,-0.21485,-0.405286,-26.245117,-89.416504,-45.593262,0,0
3929,2024 10 07,05:24:42.732,0.425542,-0.584329,-0.44946,-0.524843,-1.009796,-0.053224,0.580096,-12.329102,-94.360352,-31.37207,0,0
3930,2024 10 07,05:24:42.740,0.427745,-0.582309,-0.444063,-0.529867,-0.987335,-0.137211,-0.226081,-38.085938,-86.669922,-9.521484,0,0
3931,2024 10 07,05:24:42.748,0.430425,-0.579478,-0.438845,-0.535121,-0.614765,-0.084475,-0.336924,-23.193359,-84.716797,-11.59668,0,0
3932,2024 10 07,05:24:42.757,0.430425,-0.579478,-0.438845,-0.535121,-0.614765,-0.084475,-0.336924,-23.193359,-84.716797,-11.59668,0,0
3933,2024 10 07,05:24:42.765,0.432396,-0.577865,-0.435722,-0.537822,-0.902371,-0.013184,0.058107,-11.71875,-40.710449,-9.277344,0,0
3934,2024 10 07,05:24:42.773,0.433051,-0.577238,-0.433339,-0.539889,-0.994171,-0.066897,-0.127934,-18.066406,-34.301758,-6.286621,0,0
3935,2024 10 07,05:24:42.782,0.43472,-0.575908,-0.430831,-0.541972,-0.781274,0.029298,-0.055177,-5.432129,-40.95459,-11.169434,0,0
3936,2024 10 07,05:24:42.790,0.435822,-0.575705,-0.429223,-0.542578,-0.902371,-0.017579,-0.062502,-3.051758,-10.681152,-14.831543,0,0
3937,2024 10 07,05:24:42.798,0.437114,-0.576017,-0.428128,-0.542072,-0.966826,0.023438,-0.046388,2.746582,-6.713867,-21.179199,0,0
3938,2024 10 07,05:24:42.807,0.438636,-0.576488,-0.426668,-0.541493,-1.003449,0.049318,0.016114,0.915527,-7.568359,-25.817871,0,0
3939,2024 10 07,05:24:42.815,0.438636,-0.576488,-0.426668,-0.541493,-1.003449,0.049318,0.016114,0.915527,-7.568359,-25.817871,0,0
3940,2024 10 07,05:24:42.823,0.440217,-0.577016,-0.424733,-0.541169,-0.971709,-0.055177,0.009766,-2.502441,-14.038086,-27.526855,0,0
3941,2024 10 07,05:24:42.832,0.442116,-0.577211,-0.422748,-0.540967,-0.92581,-0.003418,-0.007324,-0.732422,-17.456055,-26.000977,0,0
3942,2024 10 07,05:24:42.840,0.443655,-0.577554,-0.42067,-0.540961,-0.913602,0.034181,-0.061525,-4.455566,-14.343262,-25.878906,0,0
3943,2024 10 07,05:24:42.848,0.444798,-0.578256,-0.418327,-0.541089,-0.904813,-0.004883,-0.12598,-13.122559,-13.366699,-25.512695,0,0
3944,2024 10 07,05:24:42.857,0.445665,-0.579154,-0.415702,-0.541438,-0.901395,-0.02295,-0.051759,-18.676758,-13.61084,-25.146484,0,0
3945,2024 10 07,05:24:42.865,0.445665,-0.579154,-0.415702,-0.541438,-0.901395,-0.02295,-0.051759,-18.676758,-13.61084,-25.146484,0,0
3946,2024 10 07,05:24:42.873,0.446197,-0.58032,-0.412997,-0.541821,-0.932646,-0.034669,-0.084475,-21.66748,-10.864258,-24.963379,0,0
3947,2024 10 07,05:24:42.882,0.446692,-0.581532,-0.410195,-0.542243,-0.98587,-0.063967,-0.02588,-22.460938,-11.352539,-25.939941,0,0
3948,2024 10 07,05:24:42.890,0.447511,-0.582733,-0.407358,-0.542416,-1.080599,-0.073244,-0.021485,-17.76123,-12.939453,-30.151367,0,0
3949,2024 10 07,05:24:42.898,0.449358,-0.583276,-0.404137,-0.542716,-1.085971,-0.100589,0.032228,-10.009766,-26.977539,-34.912109,0,0
3950,2024 10 07,05:24:42.907,0.452291,-0.583549,-0.400987,-0.542322,-1.148961,-0.058596,-0.066897,2.746582,-25.695801,-45.532227,0,0
3951,2024 10 07,05:24:42.915,0.452291,-0.583549,-0.400987,-0.542322,-1.148961,-0.058596,-0.066897,2.746582,-25.695801,-45.532227,0,0
3952,2024 10 07,05:24:42.923,0.45659,-0.583173,-0.397273,-0.541857,-1.146519,-0.135746,0.013184,13.427734,-41.015625,-55.114746,0,0
3953,2024 10 07,05:24:42.932,0.461989,-0.582831,-0.393625,-0.540309,-1.09476,-0.102542,-0.094241,24.353027,-33.447266,-67.077637,0,0
3954,2024 10 07,05:24:42.940,0.46845,-0.582384,-0.390036,-0.537825,-1.1348,-0.06006,-0.103519,36.499023,-33.996582,-78.613281,0,0
3955,2024 10 07,05:24:42.948,0.476012,-0.581875,-0.386274,-0.53444,-1.393597,-0.209967,-0.272958,48.706055,-39.367676,-90.454102,0,0
3956,2024 10 07,05:24:42.957,0.486146,-0.579717,-0.381332,-0.531203,-1.103061,-0.041993,0.12598,67.504883,-57.495117,-109.191895,0,0
3957,2024 10 07,05:24:42.965,0.486146,-0.579717,-0.381332,-0.531203,-1.103061,-0.041993,0.12598,67.504883,-57.495117,-109.191895,0,0
3958,2024 10 07,05:24:42.973,0.49638,-0.57914,-0.376975,-0.525446,-1.219275,0.02002,-0.212409,73.608398,-31.005859,-125.061035,0,0
3959,2024 10 07,05:24:42.982,0.507643,-0.578435,-0.371852,-0.519074,-1.346233,0.218757,-0.349132,72.20459,-43.151855,-141.174316,0,0
3960,2024 10 07,05:24:42.990,0.518676,-0.578926,-0.364966,-0.512464,-1.567431,0.268075,-0.324717,51.147461,-35.522461,-159.667969,0,0
3961,2024 10 07,05:24:42.998,0.529199,-0.58154,-0.356019,-0.504985,-1.879452,0.194342,-0.035157,28.076172,-33.325195,-187.744141,0,0
3962,2024 10 07,05:24:43.007,0.539912,-0.585457,-0.344097,-0.497325,-2.028382,0.117191,0.185553,4.089355,-46.081543,-214.233398,0,0
3963,2024 10 07,05:24:43.015,0.539912,-0.585457,-0.344097,-0.497325,-2.028382,0.117191,0.185553,4.089355,-46.081543,-214.233398,0,0
3964,2024 10 07,05:24:43.023,0.551216,-0.590404,-0.329078,-0.489175,-2.336009,0.252449,0.068361,-12.390137,-61.401367,-249.450684,0,0
3965,2024 10 07,05:24:43.032,0.563757,-0.596147,-0.309597,-0.480558,-2.523026,0.41261,0.272958,-34.545898,-88.500977,-296.569824,0,0
3966,2024 10 07,05:24:43.040,0.577935,-0.602973,-0.285287,-0.470134,-3.163182,0.474136,0.282235,-41.19873,-105.529785,-361.022949,0,0
3967,2024 10 07,05:24:43.048,0.596581,-0.609175,-0.256182,-0.455375,-4.350718,0.787133,0.278329,-10.314941,-130.493164,-457.397461,0,0
3968,2024 10 07,05:24:43.057,0.620085,-0.614999,-0.220135,-0.434523,-5.857112,0.712912,-0.096683,-2.990723,-148.925781,-584.594727,0,0
3969,2024 10 07,05:24:43.065,0.620085,-0.614999,-0.220135,-0.434523,-5.857112,0.712912,-0.096683,-2.990723,-148.925781,-584.594727,0,0
3970,2024 10 07,05:24:43.073,0.647218,-0.619181,-0.173956,-0.409222,-5.673025,0.278817,0.295419,-11.230469,-224.731445,-697.937012,0,0
3971,2024 10 07,05:24:43.082,0.673265,-0.62158,-0.12141,-0.381589,-5.188147,-0.041017,-0.274911,-14.831543,-237.792969,-731.750488,0,1
3972,2024 10 07,05:24:43.090,0.697923,-0.61976,-0.069183,-0.352155,-4.980133,0.624531,1.02298,6.713867,-234.069824,-722.77832,0,0
3973,2024 10 07,05:24:43.098,0.719833,-0.615678,-0.020215,-0.319956,-4.48793,1.390179,0.993683,31.860352,-199.21875,-712.402344,0,0
3974,2024 10 07,05:24:43.107,0.739819,-0.609384,0.023098,-0.284227,-3.041597,2.053774,1.435591,41.442871,-106.262207,-691.467285,0,0
3975,2024 10 07,05:24:43.115,0.739819,-0.609384,0.023098,-0.284227,-3.041597,2.053774,1.435591,41.442871,-106.262207,-691.467285,0,0
3976,2024 10 07,05:24:43.123,0.757302,-0.604077,0.056098,-0.24174,-1.735893,1.850154,2.904386,49.194336,29.907227,-648.803711,0,0
3977,2024 10 07,05:24:43.132,0.774334,-0.595021,0.073786,-0.20227,1.245644,2.778405,2.540605,182.617188,97.412109,-462.036133,0,0
3978,2024 10 07,05:24:43.140,0.785526,-0.582309,0.072035,-0.196659,-0.609394,5.192541,-0.285653,148.864746,57.556152,48.156738,0,0
3979,2024 10 07,05:24:43.148,0.784138,-0.582026,0.049209,-0.209646,-2.91171,3.763299,0.597186,54.138184,98.510742,314.453125,0,0
3980,2024 10 07,05:24:43.157,0.774669,-0.585047,0.031477,-0.237942,-1.782769,2.504471,1.405316,-47.912598,-64.575195,385.253906,0,0
3981,2024 10 07,05:24:43.165,0.774669,-0.585047,0.031477,-0.237942,-1.782769,2.504471,1.405316,-47.912598,-64.575195,385.253906,0,0
3982,2024 10 07,05:24:43.173,0.764181,-0.588151,0.015803,-0.264301,-0.603046,1.580615,1.367718,-48.706055,-22.216797,347.900391,0,0
3983,2024 10 07,05:24:43.182,0.754912,-0.591414,-0.001593,-0.283433,0.48146,1.156774,1.893124,-20.507813,54.870605,298.461914,0,0
3984,2024 10 07,05:24:43.190,0.746984,-0.595897,-0.028689,-0.293425,0.682638,1.55327,1.227088,9.338379,219.848633,301.940918,0,0
3985,2024 10 07,05:24:43.198,0.737151,-0.601977,-0.067661,-0.299423,-0.140141,2.099674,1.256386,11.657715,344.116211,366.333008,0,0
3986,2024 10 07,05:24:43.207,0.72234,-0.60911,-0.116284,-0.306083,-1.567431,2.301828,0.718772,-4.272461,403.076172,449.462891,0,0
3987,2024 10 07,05:24:43.215,0.70282,-0.613887,-0.165972,-0.31881,-2.204657,1.958556,0.658711,-21.789551,344.360352,515.808105,0,0
3988,2024 10 07,05:24:43.223,0.70282,-0.613887,-0.165972,-0.31881,-2.204657,1.958556,0.658711,-21.789551,344.360352,515.808105,0,0
3989,2024 10 07,05:24:43.232,0.679841,-0.615024,-0.213448,-0.337641,-2.478591,1.635792,0.195807,-36.865234,274.780273,562.133789,0,0
3990,2024 10 07,05:24:43.240,0.654637,-0.612552,-0.257117,-0.360723,-2.564531,0.9429,0.132328,-48.339844,216.308594,578.308105,0,0
3991,2024 10 07,05:24:43.248,0.629557,-0.606521,-0.296542,-0.384516,-2.455153,0.35255,0.113285,-34.362793,160.27832,559.448242,0,0
3992,2024 10 07,05:24:43.257,0.606036,-0.597374,-0.332721,-0.4064,-2.000549,0.04297,0.311533,-3.601074,149.719238,529.724121,0,0
3993,2024 10 07,05:24:43.265,0.582734,-0.58669,-0.369519,-0.423877,-1.961974,0.143559,0.364757,27.648926,181.030273,515.991211,0,0
3994,2024 10 07,05:24:43.273,0.582734,-0.58669,-0.369519,-0.423877,-1.961974,0.143559,0.364757,27.648926,181.030273,515.991211,0,0
3995,2024 10 07,05:24:43.282,0.558032,-0.574798,-0.408339,-0.437568,-2.373608,0.293466,0.367199,49.743652,222.106934,520.202637,0,0
3996,2024 10 07,05:24:43.290,0.531134,-0.561541,-0.448736,-0.448559,-2.810633,0.255867,0.341807,61.462402,249.87793,530.944824,0,0
3997,2024 10 07,05:24:43.298,0.501326,-0.547519,-0.489797,-0.457158,-3.392193,-0.178228,0.066897,60.180664,284.484863,542.663574,0,0
3998,2024 10 07,05:24:43.307,0.469181,-0.532614,-0.529894,-0.464115,-3.866817,-0.670919,-0.065432,49.01123,293.762207,543.273926,0,0
3999,2024 10 07,05:24:43.315,0.434549,-0.518825,-0.567336,-0.469166,-4.337535,-1.50444,-0.584491,23.010254,315.917969,521.789551,0,0
4000,2024 10 07,05:24:43.323,0.434549,-0.518825,-0.567336,-0.469166,-4.337535,-1.50444,-0.58449,23.010254,315.917969,521.789551,0,0
4001,2024 10 07,05:24:43.332,0.399461,-0.506844,-0.599709,-0.473169,-4.536271,-2.669515,-0.747093,-10.253906,306.274414,480.041504,0,0
4002,2024 10 07,05:24:43.340,0.365139,-0.497164,-0.626296,-0.476713,-4.506973,-3.851192,-1.128452,-47.851563,289.428711,429.80957,0,0
4003,2024 10 07,05:24:43.348,0.333371,-0.49066,-0.645891,-0.480563,-3.95471,-4.916654,-1.792047,-89.904785,259.094238,353.210449,0,0
4004,2024 10 07,05:24:43.356,0.305297,-0.489915,-0.657259,-0.48455,-3.00351,-5.594897,-3.039155,-141.845703,237.121582,240.783691,0,0
4005,2024 10 07,05:24:43.365,0.28082,-0.496173,-0.659609,-0.489763,-2.498123,-6.007996,-3.839473,-204.89502,210.266113,122.680664,0,0
4006,2024 10 07,05:24:43.373,0.28082,-0.496173,-0.659609,-0.489763,-2.498123,-6.007996,-3.839473,-204.89502,210.266113,122.680664,0,0
4007,2024 10 07,05:24:43.381,0.262017,-0.507289,-0.652294,-0.498515,-3.005951,-7.579333,-3.902463,-271.972656,135.559082,20.141602,0,0
4008,2024 10 07,05:24:43.390,0.252429,-0.51853,-0.638731,-0.509341,-4.12952,-7.813227,-2.621662,-244.567871,19.592285,-50.170898,0,0
4009,2024 10 07,05:24:43.398,0.261325,-0.54636,-0.623138,-0.494872,-3.711539,-6.113468,-9.311319,-86.853027,51.025391,-455.383301,0,0
4010,2024 10 07,05:24:43.406,0.315399,-0.553692,-0.583915,-0.502982,-0.609882,-1.337931,6.404981,65.124512,-515.808105,-545.166016,1,0
4011,2024 10 07,05:24:43.415,0.338659,-0.576423,-0.558948,-0.490534,-2.973724,1.298379,-4.996735,-111.26709,38.085938,-465.454102,0,0
4012,2024 10 07,05:24:43.423,0.338659,-0.576423,-0.558948,-0.490534,-2.973724,1.298379,-4.996735,-111.26709,38.085938,-465.454102,0,0
4013,2024 10 07,05:24:43.431,0.363102,-0.592254,-0.526068,-0.490555,-3.340922,-0.204108,0.338878,-70.678711,-242.553711,-447.631836,0,0
4014,2024 10 07,05:24:43.440,0.385249,-0.598438,-0.492053,-0.501337,-1.953185,-2.066469,-2.098209,-74.768066,-324.890137,-307.434082,0,0
4015,2024 10 07,05:24:43.448,0.406048,-0.59458,-0.472531,-0.508246,-1.458052,-1.165563,1.912656,-10.192871,-218.505859,-149.230957,0,0
4016,2024 10 07,05:24:43.456,0.411975,-0.592617,-0.46288,-0.51461,-1.274453,0.305673,-0.833522,-67.321777,-144.775391,-35.827637,0,0
4017,2024 10 07,05:24:43.465,0.413691,-0.589182,-0.449593,-0.528762,-0.287606,-0.445326,0.138676,-111.694336,-174.987793,-17.211914,0,0
4018,2024 10 07,05:24:43.473,0.413691,-0.589182,-0.449593,-0.528762,-0.287606,-0.445326,0.138676,-111.694336,-174.987793,-17.211914,0,0
4019,2024 10 07,05:24:43.481,0.416313,-0.587728,-0.44177,-0.534882,-0.704611,-0.279305,-0.405774,-46.99707,-86.975098,-29.47998,0,0
4020,2024 10 07,05:24:43.490,0.417924,-0.5864,-0.436387,-0.539482,-1.037629,0.019044,0.461928,-44.311523,-64.758301,-10.620117,0,0
4021,2024 10 07,05:24:43.498,0.418004,-0.585332,-0.431393,-0.544573,-0.83694,-0.266121,-0.605487,-44.372559,-73.486328,-4.699707,0,0
4022,2024 10 07,05:24:43.506,0.420725,-0.582487,-0.427945,-0.548236,-0.54738,0.065432,-0.07178,1.403809,-56.45752,-7.8125,0,0
4023,2024 10 07,05:24:43.515,0.420762,-0.582487,-0.42711,-0.548859,-1.111362,-0.115238,-0.034181,-11.108398,0.427246,-2.563477,0,0
4024,2024 10 07,05:24:43.523,0.420762,-0.582487,-0.42711,-0.548859,-1.111362,-0.115238,-0.034181,-11.108398,0.427246,-2.563477,0,0
4025,2024 10 07,05:24:43.531,0.422271,-0.581484,-0.425915,-0.549691,-0.885281,0.037111,-0.106937,4.577637,-33.508301,-9.94873,0,0
4026,2024 10 07,05:24:43.540,0.423876,-0.580844,-0.425013,-0.54983,-0.885769,0.016602,0.021973,10.864258,-6.04248,-13.85498,0,0
4027,2024 10 07,05:24:43.548,0.425434,-0.580902,-0.42483,-0.548707,-0.98001,-0.011719,-0.029786,14.831543,-3.356934,-17.883301,0,0
4028,2024 10 07,05:24:43.556,0.427586,-0.580748,-0.424552,-0.54741,-1.006867,0.051271,0.04297,19.897461,-2.197266,-22.033691,0,0
4029,2024 10 07,05:24:43.565,0.429585,-0.580786,-0.423791,-0.546393,-1.003937,0.072268,-0.011719,8.911133,-9.58252,-23.071289,0,0
4030,2024 10 07,05:24:43.573,0.431256,-0.580933,-0.422261,-0.546106,-0.990265,0.006348,0.108402,0.793457,-12.878418,-23.376465,0,0
4031,2024 10 07,05:24:43.581,0.431256,-0.580933,-0.422261,-0.546106,-0.990265,0.006348,0.108402,0.793457,-12.878418,-23.376465,0,0
4032,2024 10 07,05:24:43.590,0.432774,-0.580948,-0.420399,-0.546325,-1.049837,0.013184,-0.035646,-4.089355,-20.874023,-20.812988,0,0
4033,2024 10 07,05:24:43.598,0.434596,-0.580511,-0.417811,-0.547328,-0.861354,0.067385,-0.093753,-10.314941,-32.348633,-22.521973,0,0
4034,2024 10 07,05:24:43.606,0.435613,-0.580824,-0.414961,-0.548353,-0.843287,0.065432,-0.181646,-18.249512,-19.470215,-22.766113,0,0
4035,2024 10 07,05:24:43.615,0.435989,-0.581982,-0.411708,-0.549278,-0.960479,-0.019532,-0.011231,-29.907227,-13.916016,-26.733398,0,0
4036,2024 10 07,05:24:43.623,0.436606,-0.584633,-0.409087,-0.54793,-1.498581,0.069826,-0.446791,-16.418457,16.662598,-46.508789,0,0
4037,2024 10 07,05:24:43.631,0.436606,-0.584633,-0.409087,-0.54793,-1.498581,0.069826,-0.446791,-16.418457,16.662598,-46.508789,0,0
4038,2024 10 07,05:24:43.640,0.439703,-0.585854,-0.404986,-0.547195,-0.971709,-0.190435,0.336924,-8.911133,-36.743164,-57.556152,0,0
4039,2024 10 07,05:24:43.648,0.443509,-0.5865,-0.401096,-0.546297,-1.118198,-0.070315,0.060549,6.04248,-21.789551,-57.128906,0,0
4040,2024 10 07,05:24:43.656,0.44819,-0.586141,-0.396779,-0.546014,-1.024445,-0.212409,0.149907,9.155273,-54.321289,-58.349609,0,0
4041,2024 10 07,05:24:43.665,0.454145,-0.584696,-0.392473,-0.545754,-0.982452,-0.179693,0.097659,25.268555,-56.152344,-60.974121,0,0
4042,2024 10 07,05:24:43.673,0.46088,-0.582696,-0.388525,-0.545071,-0.912625,-0.130375,-0.082522,37.17041,-60.852051,-63.903809,0,0
4043,2024 10 07,05:24:43.681,0.46088,-0.582696,-0.388525,-0.545071,-0.912625,-0.130375,-0.082522,37.17041,-60.852051,-63.903809,0,0
4044,2024 10 07,05:24:43.690,0.468312,-0.580418,-0.384839,-0.543781,-0.997589,-0.104007,-0.097659,46.264648,-55.541992,-69.274902,0,0
4045,2024 10 07,05:24:43.698,0.476411,-0.578253,-0.381424,-0.541454,-1.103061,-0.022462,-0.189459,57.373047,-51.635742,-78.979492,0,0
4046,2024 10 07,05:24:43.706,0.485318,-0.576183,-0.377797,-0.538283,-1.124546,-0.011719,-0.159673,64.208984,-47.973633,-91.61377,0,0
4047,2024 10 07,05:24:43.715,0.49493,-0.574541,-0.374086,-0.533859,-1.185583,-0.009278,-0.185064,70.983887,-41.320801,-105.895996,0,0
4048,2024 10 07,05:24:43.723,0.505413,-0.57327,-0.36983,-0.528343,-1.257363,0.14893,-0.295907,70.861816,-39.123535,-123.352051,0,0
4049,2024 10 07,05:24:43.731,0.505413,-0.57327,-0.36983,-0.528343,-1.257363,0.14893,-0.295907,70.861816,-39.123535,-123.352051,0,0
4050,2024 10 07,05:24:43.740,0.515842,-0.573027,-0.364275,-0.522351,-1.440474,0.244148,-0.440931,57.922363,-38.208008,-139.282227,0,0
4051,2024 10 07,05:24:43.748,0.525688,-0.574491,-0.356227,-0.516444,-1.565966,0.227058,-0.211921,20.996094,-35.095215,-161.315918,0,0
4052,2024 10 07,05:24:43.756,0.534409,-0.578881,-0.346475,-0.509174,-1.961974,0.156743,-0.040529,-2.990723,-17.944336,-187.072754,0,0
4053,2024 10 07,05:24:43.765,0.543827,-0.584471,-0.333838,-0.501196,-2.385327,0.232917,0.162603,-19.470215,-36.437988,-223.510742,0,0
4054,2024 10 07,05:24:43.773,0.554583,-0.590943,-0.316764,-0.492834,-2.677328,0.343272,0.24366,-36.132813,-64.27002,-271.606445,0,0
4055,2024 10 07,05:24:43.781,0.554583,-0.590943,-0.316764,-0.492834,-2.677328,0.343272,0.24366,-36.132813,-64.27002,-271.606445,0,0
4056,2024 10 07,05:24:43.790,0.567794,-0.59778,-0.294804,-0.483073,-3.23838,0.498062,0.326182,-41.320801,-93.566895,-334.472656,0,0
4057,2024 10 07,05:24:43.798,0.585314,-0.603893,-0.266915,-0.470613,-4.128056,0.63625,0.440443,-23.4375,-135.375977,-425.354004,0,0
4058,2024 10 07,05:24:43.806,0.608533,-0.609073,-0.232357,-0.452469,-5.491867,0.712912,0.398938,-0.732422,-162.29248,-549.316406,0,0
4059,2024 10 07,05:24:43.815,0.636804,-0.612742,-0.188463,-0.428379,-6.739952,0.157231,0.053224,8.605957,-216.61377,-684.020996,0,0
4060,2024 10 07,05:24:43.823,0.666193,-0.613285,-0.134758,-0.402377,-6.274606,-0.374523,0.186529,-11.84082,-293.823242,-742.492676,0,0
4061,2024 10 07,05:24:43.831,0.666193,-0.613285,-0.134758,-0.402377,-6.274606,-0.374523,0.186529,-11.84082,-293.823242,-742.492676,0,0
4062,2024 10 07,05:24:43.840,0.694163,-0.609211,-0.078991,-0.375178,-5.256996,0.883328,0.658711,18.371582,-307.312012,-743.408203,0,1
4063,2024 10 07,05:24:43.848,0.719068,-0.602281,-0.026872,-0.345654,-5.15836,1.757378,1.168004,42.297363,-255.493164,-722.65625,0,0
4064,2024 10 07,05:24:43.856,0.74138,-0.592815,0.02148,-0.313789,-3.787225,2.749596,2.070376,50.109863,-220.275879,-708.251953,0,0
4065,2024 10 07,05:24:43.865,0.75996,-0.584814,0.06284,-0.276594,-2.837001,2.390698,2.232002,30.700684,-98.388672,-675.90332,0,0
4066,2024 10 07,05:24:43.873,0.777785,-0.575753,0.091379,-0.234965,-0.654805,3.149998,2.352611,122.680664,30.456543,-620.422363,0,0
4067,2024 10 07,05:24:43.881,0.777785,-0.575753,0.091379,-0.234965,-0.654805,3.149998,2.352611,122.680664,30.456543,-620.422363,0,0
4068,2024 10 07,05:24:43.890,0.79131,-0.55969,0.10763,-0.221338,4.096316,7.561266,2.705649,225.097656,-94.665527,-128.173828,0,0
4069,2024 10 07,05:24:43.898,0.786055,-0.568423,0.083739,-0.228034,-2.472243,2.847743,-1.133335,-122.619629,267.272949,348.693848,0,0
4070,2024 10 07,05:24:43.906,0.773913,-0.576386,0.054216,-0.256705,-2.795496,3.52208,1.264687,-103.33252,8.056641,496.276855,0,0
4071,2024 10 07,05:24:43.915,0.756417,-0.586185,0.031565,-0.288485,-1.052278,2.167058,2.00885,-86.425781,28.259277,458.557129,0,0
4072,2024 10 07,05:24:43.923,0.740674,-0.594598,0.006765,-0.312745,0.48146,1.111362,1.77398,-75.927734,83.129883,417.053223,0,0
4073,2024 10 07,05:24:43.931,0.740674,-0.594598,0.006765,-0.312745,0.48146,1.111362,1.77398,-75.927734,83.129883,417.053223,0,0
4074,2024 10 07,05:24:43.940,0.726987,-0.602795,-0.028225,-0.327614,0.76223,1.561571,1.552293,-16.784668,279.418945,422.119141,0,0
4075,2024 10 07,05:24:43.948,0.711015,-0.613084,-0.079072,-0.335162,-0.840358,2.230048,1.330607,0.732422,443.969727,486.206055,0,0
