frame,date,time,quaternion_x,quaternion_y,quaternion_z,quaternion_w,accel_x,accel_y,accel_z,gyro_x,gyro_y,gyro_z,HS,TO
3170,2024 10 07,05:24:36.407,-0.806247,-0.570227,0.119546,0.102541,-1.559618,1.696829,-0.664571,-78.918457,-13.427734,252.197266,0,0
3171,2024 10 07,05:24:36.415,-0.81058,-0.563525,0.134593,0.085348,-1.371136,1.115757,-0.32667,-49.255371,-26.855469,261.413574,0,0
3172,2024 10 07,05:24:36.423,-0.813829,-0.557704,0.148154,0.068551,-1.132359,0.855495,-0.631367,-34.118652,-13.671875,242.004395,0,0
3173,2024 10 07,05:24:36.432,-0.813829,-0.557704,0.148154,0.068551,-1.132359,0.855495,-0.631367,-34.118652,-13.671875,242.004395,0,0
3174,2024 10 07,05:24:36.440,-0.816034,-0.552244,0.161926,0.053805,-0.799829,0.958525,-0.602069,-28.259277,-39.18457,229.736328,0,0
3175,2024 10 07,05:24:36.448,-0.817363,-0.546866,0.177005,0.039039,-0.681173,1.148473,-0.485855,-20.751953,-47.729492,244.262695,0,0
3176,2024 10 07,05:24:36.457,-0.817836,-0.541359,0.193819,0.022583,-0.735862,1.169958,-0.393567,-12.207031,-56.152344,273.925781,0,0
3177,2024 10 07,05:24:36.465,-0.817628,-0.535174,0.212272,0.003671,-0.723167,1.07767,-0.408704,-9.521484,-55.786133,308.349609,0,0
3178,2024 10 07,05:24:36.473,-0.8168,-0.527755,0.23244,-0.016874,-0.654317,0.92581,-0.426283,-15.563965,-67.077637,334.777832,0,0
3179,2024 10 07,05:24:36.482,-0.8168,-0.527755,0.23244,-0.016874,-0.654317,0.92581,-0.426283,-15.563965,-67.077637,334.777832,0,0
3180,2024 10 07,05:24:36.490,-0.81515,-0.51881,0.254921,-0.037174,-0.610859,0.799341,-0.427747,-28.625488,-96.862793,347.839355,0,0
3181,2024 10 07,05:24:36.498,-0.812523,-0.508206,0.280049,-0.055729,-0.728538,0.792505,-0.28956,-44.73877,-135.253906,350.280762,0,0
3182,2024 10 07,05:24:36.507,-0.808765,-0.496383,0.307017,-0.072411,-0.947295,0.816431,-0.15479,-53.771973,-163.269043,346.008301,0,0
3183,2024 10 07,05:24:36.515,-0.80376,-0.483786,0.334957,-0.08789,-1.180212,0.841823,0.084964,-56.274414,-178.222656,343.994141,0,0
3184,2024 10 07,05:24:36.523,-0.797785,-0.470476,0.362539,-0.103716,-1.26957,0.845241,0.212897,-53.833008,-172.424316,350.769043,0,0
3185,2024 10 07,05:24:36.532,-0.797785,-0.470476,0.362539,-0.103716,-1.26957,0.845241,0.212897,-53.833008,-172.424316,350.769043,0,0
3186,2024 10 07,05:24:36.540,-0.790766,-0.456309,0.389749,-0.120689,-1.287149,0.855495,0.213385,-49.926758,-169.006348,365.600586,0,0
3187,2024 10 07,05:24:36.548,-0.782082,-0.441481,0.417417,-0.138585,-1.347209,0.899441,0.152837,-43.273926,-177.185059,381.347656,0,0
3188,2024 10 07,05:24:36.557,-0.771718,-0.425708,0.44555,-0.157189,-1.588916,0.730979,0.291513,-40.710449,-181.82373,395.690918,0,0
3189,2024 10 07,05:24:36.565,-0.759603,-0.409423,0.473734,-0.175931,-1.71392,0.755394,0.278329,-38.757324,-192.687988,401.916504,0,0
3190,2024 10 07,05:24:36.573,-0.745884,-0.3925,0.501821,-0.194363,-1.926817,0.618671,0.334483,-39.245605,-198.791504,404.47998,0,0
3191,2024 10 07,05:24:36.582,-0.745884,-0.3925,0.501821,-0.194363,-1.926817,0.618671,0.334483,-39.245605,-198.791504,404.47998,0,0
3192,2024 10 07,05:24:36.590,-0.730548,-0.375055,0.529743,-0.212146,-2.172918,0.599628,0.399426,-39.245605,-211.669922,405.761719,0,0
3193,2024 10 07,05:24:36.598,-0.713597,-0.356971,0.557277,-0.229767,-2.445875,0.598651,0.489273,-35.827637,-214.477539,412.29248,0,0
3194,2024 10 07,05:24:36.607,-0.694656,-0.338524,0.584314,-0.247854,-2.795984,0.384777,0.714377,-25.20752,-222.412109,422.790527,0,0
3195,2024 10 07,05:24:36.615,-0.674165,-0.319887,0.609887,-0.266856,-3.131932,-0.239753,0.763207,-9.887695,-215.026855,431.57959,0,0
3196,2024 10 07,05:24:36.623,-0.652382,-0.301563,0.633816,-0.285892,-3.408307,-1.191931,0.896512,0.793457,-215.820313,428.894043,0,0
3197,2024 10 07,05:24:36.632,-0.652382,-0.301563,0.633816,-0.285892,-3.408307,-1.191931,0.896512,0.793457,-215.820313,428.894043,0,0
3198,2024 10 07,05:24:36.640,-0.630231,-0.284383,0.6556,-0.303519,-3.756462,-2.293527,1.092319,5.310059,-208.312988,404.602051,0,0
3199,2024 10 07,05:24:36.648,-0.609739,-0.269168,0.673921,-0.318744,-3.7716,-3.262307,1.199744,8.422852,-185.302734,356.689453,0,0
3200,2024 10 07,05:24:36.657,-0.591839,-0.25716,0.68859,-0.330815,-3.392682,-4.089969,1.459517,12.329102,-161.071777,292.114258,0,0
3201,2024 10 07,05:24:36.665,-0.576956,-0.248669,0.699787,-0.339977,-2.985931,-4.943022,1.626514,18.493652,-139.526367,228.942871,0,0
3202,2024 10 07,05:24:36.673,-0.565127,-0.243705,0.707849,-0.346685,-2.830653,-5.584643,2.038148,26.916504,-112.792969,167.724609,0,0
3203,2024 10 07,05:24:36.682,-0.565127,-0.243705,0.707849,-0.346685,-2.830653,-5.584643,2.038148,26.916504,-112.792969,167.724609,0,0
3204,2024 10 07,05:24:36.690,-0.557434,-0.242501,0.711929,-0.351592,-2.379467,-5.618336,2.147038,42.297363,-73.059082,98.937988,0,0
3205,2024 10 07,05:24:36.698,-0.553777,-0.244356,0.712535,-0.354846,-2.121159,-5.519211,2.047914,50.292969,-33.996582,40.710449,0,0
3206,2024 10 07,05:24:36.707,-0.554056,-0.247944,0.710826,-0.355348,-8.340587,-4.308237,-2.49324,19.53125,-12.451172,-18.127441,0,0
3207,2024 10 07,05:24:36.715,-0.559204,-0.268584,0.707669,-0.338169,-1.127476,-4.982574,4.109012,40.039063,47.485352,-316.772461,1,0
3208,2024 10 07,05:24:36.723,-0.592555,-0.27257,0.686452,-0.321508,0.54738,1.38432,-1.989807,-80.932617,296.325684,-307.434082,0,0
3209,2024 10 07,05:24:36.732,-0.597281,-0.28643,0.684654,-0.304077,-2.126041,3.059664,-0.10596,-86.425781,-104.553223,-255.371094,0,0
3210,2024 10 07,05:24:36.740,-0.597281,-0.28643,0.684654,-0.304077,-2.126041,3.059664,-0.10596,-86.425781,-104.553223,-255.371094,0,0
3211,2024 10 07,05:24:36.748,-0.601846,-0.302118,0.678962,-0.292434,-1.607471,-0.119632,0.992706,56.152344,23.010254,-254.821777,0,0
3212,2024 10 07,05:24:36.757,-0.613825,-0.318211,0.664502,-0.283545,-1.151891,-0.443373,0.532243,57.678223,108.886719,-275.45166,0,0
3213,2024 10 07,05:24:36.765,-0.622255,-0.333256,0.652925,-0.274642,-2.152898,-0.822291,-0.071291,33.874512,52.062988,-230.041504,0,0
3214,2024 10 07,05:24:36.773,-0.632152,-0.340916,0.641814,-0.268767,-1.900937,-0.41554,-0.136235,2.929688,136.230469,-148.742676,0,0
3215,2024 10 07,05:24:36.782,-0.643288,-0.3441,0.628408,-0.269963,-1.038118,-0.076662,-0.335459,41.687012,170.776367,-85.083008,0,0
3216,2024 10 07,05:24:36.790,-0.643288,-0.3441,0.628408,-0.269963,-1.038118,-0.076662,-0.335459,41.687012,170.776367,-85.083008,0,0
3217,2024 10 07,05:24:36.798,-0.648162,-0.348415,0.619192,-0.274035,-1.0347,-0.39845,0.171392,75.073242,86.120605,-42.541504,0,0
3218,2024 10 07,05:24:36.807,-0.651723,-0.350683,0.612917,-0.276787,-0.917997,-0.212897,0.276864,29.174805,75.500488,-28.686523,0,0
3219,2024 10 07,05:24:36.815,-0.655327,-0.351221,0.608319,-0.277739,-0.964385,-0.028809,-0.346202,8.056641,52.124023,-25.45166,0,0
3220,2024 10 07,05:24:36.823,-0.656995,-0.352185,0.605826,-0.278025,-1.112339,-0.004395,0.080569,12.084961,27.099609,-18.127441,0,0
3221,2024 10 07,05:24:36.832,-0.65885,-0.352888,0.602546,-0.279865,-0.943876,-0.072756,0.190924,23.925781,47.546387,-8.728027,0,0
3222,2024 10 07,05:24:36.840,-0.65885,-0.352888,0.602546,-0.279865,-0.943876,-0.072756,0.190924,23.925781,47.546387,-8.728027,0,0
3223,2024 10 07,05:24:36.848,-0.660666,-0.353229,0.599564,-0.281553,-0.929228,-0.004883,-0.019044,13.73291,33.630371,-8.300781,0,0
3224,2024 10 07,05:24:36.857,-0.66125,-0.354057,0.598063,-0.282332,-1.079623,0.038575,-0.013672,15.625,12.756348,-8.300781,0,0
3225,2024 10 07,05:24:36.865,-0.661572,-0.35515,0.596494,-0.283524,-1.096225,0.006836,0.070803,20.874023,18.005371,-6.591797,0,0
3226,2024 10 07,05:24:36.873,-0.662454,-0.356034,0.594288,-0.284983,-1.05179,0.012696,-0.000488,19.836426,27.404785,-8.544922,0,0
3227,2024 10 07,05:24:36.882,-0.663501,-0.357035,0.592003,-0.28605,-1.105502,0.056154,-0.079592,17.76123,25.085449,-13.85498,0,0
3228,2024 10 07,05:24:36.890,-0.663501,-0.357035,0.592003,-0.28605,-1.105502,0.056154,-0.079592,17.76123,25.085449,-13.85498,0,0
3229,2024 10 07,05:24:36.898,-0.664768,-0.358328,0.589307,-0.287058,-1.126987,0.047853,-0.011719,21.66748,32.531738,-18.493652,0,0
3230,2024 10 07,05:24:36.907,-0.666725,-0.359657,0.585526,-0.288589,-1.029328,0.019532,0.078127,25.45166,47.851563,-21.179199,0,0
3231,2024 10 07,05:24:36.915,-0.669051,-0.361018,0.581182,-0.290283,-0.957549,-0.006836,0.054201,26.855469,50.65918,-23.254395,0,0
3232,2024 10 07,05:24:36.923,-0.671137,-0.362553,0.577215,-0.291467,-1.006867,-0.032228,0.057131,23.31543,41.809082,-25.878906,0,0
3233,2024 10 07,05:24:36.932,-0.67321,-0.364037,0.573582,-0.292009,-1.00589,-0.051271,0.062014,16.662598,38.635254,-29.174805,0,0
3234,2024 10 07,05:24:36.940,-0.67321,-0.364037,0.573582,-0.292009,-1.00589,-0.051271,0.062014,16.662598,38.635254,-29.174805,0,0
3235,2024 10 07,05:24:36.948,-0.675366,-0.365339,0.570232,-0.291964,-1.003449,-0.059084,0.026856,10.070801,34.057617,-31.433105,0,0
3236,2024 10 07,05:24:36.957,-0.677372,-0.366513,0.567452,-0.291261,-1.012238,-0.052736,0.049318,3.601074,26.123047,-32.287598,0,0
3237,2024 10 07,05:24:36.965,-0.679246,-0.367719,0.564919,-0.2903,-1.087435,-0.006348,0.027345,5.615234,24.047852,-33.02002,0,0
3238,2024 10 07,05:24:36.973,-0.681263,-0.369022,0.562004,-0.289577,-1.015656,0.034669,0.102542,5.615234,30.273438,-34.790039,0,0
3239,2024 10 07,05:24:36.982,-0.683129,-0.37067,0.558883,-0.289115,-1.006867,-0.0459,0.041505,13.427734,27.770996,-34.912109,0,0
3240,2024 10 07,05:24:36.990,-0.683129,-0.37067,0.558883,-0.289115,-1.006867,-0.0459,0.041505,13.427734,27.770996,-34.912109,0,0
3241,2024 10 07,05:24:36.998,-0.684594,-0.372762,0.556178,-0.288175,-1.119175,-0.029786,0.107913,14.953613,17.089844,-39.245605,0,0
3242,2024 10 07,05:24:37.007,-0.68584,-0.375525,0.553257,-0.287248,-1.128452,-0.085452,0.077151,20.568848,19.592285,-42.96875,0,0
3243,2024 10 07,05:24:37.015,-0.687389,-0.378047,0.550421,-0.285683,-1.062532,-0.098148,-0.019044,10.620117,14.526367,-47.485352,0,0
3244,2024 10 07,05:24:37.023,-0.688696,-0.380652,0.54871,-0.282346,-1.237831,-0.099124,0.092776,-5.981445,-5.615234,-58.410645,0,0
3245,2024 10 07,05:24:37.032,-0.691043,-0.382663,0.546927,-0.277308,-1.279336,-0.138188,0.015137,-27.22168,3.967285,-72.753906,0,0
3246,2024 10 07,05:24:37.040,-0.691043,-0.382663,0.546927,-0.277308,-1.279336,-0.138188,0.015137,-27.22168,3.967285,-72.753906,0,0
3247,2024 10 07,05:24:37.048,-0.694222,-0.384143,0.545545,-0.269945,-1.329142,-0.078616,-0.017579,-46.203613,-10.253906,-89.416504,0,0
3248,2024 10 07,05:24:37.057,-0.697896,-0.385848,0.543976,-0.26106,-1.49321,0.027345,0.261727,-56.762695,-3.479004,-104.614258,0,0
3249,2024 10 07,05:24:37.065,-0.703023,-0.387524,0.540337,-0.25223,-1.448775,0.123051,0.235359,-50.354004,21.42334,-118.713379,0,0
3250,2024 10 07,05:24:37.073,-0.708197,-0.39051,0.535613,-0.243058,-1.65923,0.056154,0.185064,-39.0625,19.042969,-135.192871,0,0
3251,2024 10 07,05:24:37.082,-0.713705,-0.394679,0.529827,-0.232672,-1.918516,0.120609,0.150395,-35.03418,23.498535,-162.17041,0,0
3252,2024 10 07,05:24:37.090,-0.713705,-0.394679,0.529827,-0.232672,-1.918516,0.120609,0.150395,-35.03418,23.498535,-162.17041,0,0
3253,2024 10 07,05:24:37.098,-0.72016,-0.400242,0.521535,-0.221759,-1.879452,0.195807,0.053713,-24.963379,50.598145,-188.110352,0,0
3254,2024 10 07,05:24:37.107,-0.726416,-0.408139,0.51121,-0.210731,-1.984436,0.309091,0.224128,2.990723,52.124023,-212.646484,0,0
3255,2024 10 07,05:24:37.115,-0.732548,-0.41867,0.498266,-0.199551,-2.223701,0.36964,0.314951,34.423828,74.768066,-244.934082,0,0
3256,2024 10 07,05:24:37.123,-0.739427,-0.431289,0.481986,-0.186887,-2.487869,0.509293,0.247566,43.945313,87.097168,-291.931152,0,0
3257,2024 10 07,05:24:37.132,-0.746312,-0.446312,0.463353,-0.170668,-3.120701,0.686056,-0.041505,45.227051,85.266113,-352.294922,0,0
3258,2024 10 07,05:24:37.140,-0.746312,-0.446312,0.463353,-0.170668,-3.120701,0.686056,-0.041505,45.227051,85.266113,-352.294922,0,0
3259,2024 10 07,05:24:37.148,-0.753764,-0.46359,0.440616,-0.150938,-4.021607,0.691427,-0.346202,50.598145,113.342285,-422.973633,0,0
3260,2024 10 07,05:24:37.157,-0.763148,-0.48214,0.410867,-0.127805,-4.758446,0.524918,-0.69924,43.884277,169.311523,-504.760742,0,0
3261,2024 10 07,05:24:37.165,-0.773655,-0.501924,0.373186,-0.101298,-5.10416,0.279305,-0.571306,40.649414,227.722168,-588.500977,0,0
3262,2024 10 07,05:24:37.173,-0.783524,-0.52194,0.329461,-0.071578,-5.208167,-0.307627,-0.45851,45.10498,244.018555,-645.446777,0,0
3263,2024 10 07,05:24:37.182,-0.792194,-0.539546,0.282479,-0.039044,-4.414686,0.381848,-0.582049,1.89209,260.925293,-675.231934,0,0
3264,2024 10 07,05:24:37.190,-0.799281,-0.553209,0.23472,-0.003926,-4.92056,1.336955,-0.85403,-10.498047,231.689453,-684.448242,0,1
3265,2024 10 07,05:24:37.198,-0.799281,-0.553209,0.23472,-0.003926,-4.92056,1.336955,-0.85403,-10.498047,231.689453,-684.448242,0,0
3266,2024 10 07,05:24:37.207,-0.80173,-0.565926,0.189891,0.029967,-4.016724,1.066439,-1.283731,13.671875,198.791504,-643.310547,0,0
3267,2024 10 07,05:24:37.215,-0.801875,-0.574727,0.150639,0.063188,-2.844813,1.870174,-1.591357,-25.268555,140.319824,-587.402344,0,0
3268,2024 10 07,05:24:37.223,-0.803074,-0.576402,0.118557,0.093687,1.880428,3.199317,-3.257912,-85.9375,95.153809,-456.787109,0,0
3269,2024 10 07,05:24:37.232,-0.805496,-0.573009,0.104693,0.108982,1.669973,2.763756,-1.50737,-79.223633,-36.010742,-129.089355,0,0
3270,2024 10 07,05:24:37.240,-0.810592,-0.564842,0.114941,0.103357,-1.690969,4.013794,0.913114,-83.984375,-20.751953,221.496582,0,0
3271,2024 10 07,05:24:37.248,-0.810592,-0.564842,0.114941,0.103357,-1.69097,4.013794,0.913114,-83.984375,-20.751953,221.496582,0,0
3272,2024 10 07,05:24:37.257,-0.813499,-0.561605,0.129267,0.078166,-1.687551,3.136815,-1.181188,25.085449,12.390137,332.702637,0,0
3273,2024 10 07,05:24:37.265,-0.811094,-0.56394,0.145571,0.053919,-1.640675,1.539598,-0.686544,98.876953,21.42334,302.612305,0,0
3274,2024 10 07,05:24:37.273,-0.807608,-0.567239,0.15788,0.032905,-0.149419,1.128452,-1.738334,90.759277,3.723145,248.291016,0,0
3275,2024 10 07,05:24:37.282,-0.80338,-0.56864,0.175864,0.017352,0.396496,1.709037,-1.084506,65.368652,-90.515137,265.930176,0,0
3276,2024 10 07,05:24:37.290,-0.79844,-0.56731,0.201625,0.000525,-0.382336,1.827204,-1.088412,52.246094,-153.198242,344.482422,0,0
3277,2024 10 07,05:24:37.298,-0.79844,-0.56731,0.201625,0.000525,-0.382336,1.827204,-1.088412,52.246094,-153.198242,344.482422,0,0
3278,2024 10 07,05:24:37.307,-0.79236,-0.562927,0.234239,-0.020278,-1.351604,1.712455,-0.394543,43.640137,-170.959473,424.865723,0,0
3279,2024 10 07,05:24:37.315,-0.786604,-0.555186,0.266009,-0.047567,-1.646046,1.219275,-0.469741,29.907227,-106.323242,474.914551,0,0
3280,2024 10 07,05:24:37.323,-0.781368,-0.544192,0.29518,-0.078662,-1.460006,0.735374,-0.387707,5.554199,-61.950684,495.849609,0,0
3281,2024 10 07,05:24:37.332,-0.776892,-0.529543,0.32232,-0.110151,-0.984893,0.458022,-0.491226,-31.860352,-43.884277,496.520996,0,0
3282,2024 10 07,05:24:37.340,-0.772293,-0.511694,0.350021,-0.138632,-0.733909,0.371593,-0.452162,-72.631836,-76.538086,484.985352,0,0
3283,2024 10 07,05:24:37.348,-0.772293,-0.511694,0.350021,-0.138632,-0.733909,0.371593,-0.452162,-72.631836,-76.538086,484.985352,0,0
3284,2024 10 07,05:24:37.357,-0.766349,-0.491587,0.380471,-0.162152,-0.944365,0.500015,-0.264657,-105.651855,-135.803223,468.75,0,0
3285,2024 10 07,05:24:37.365,-0.758508,-0.470159,0.412944,-0.181916,-1.317423,0.754418,-0.084475,-120.727539,-173.64502,455.444336,0,0
3286,2024 10 07,05:24:37.373,-0.748956,-0.447384,0.445988,-0.200017,-1.695853,0.798364,0.243171,-131.408691,-184.936523,454.772949,0,0
3287,2024 10 07,05:24:37.382,-0.737626,-0.423699,0.4785,-0.21777,-1.853084,0.815455,0.160161,-129.394531,-196.289063,459.960938,0,0
3288,2024 10 07,05:24:37.390,-0.72352,-0.399376,0.511708,-0.234888,-2.157292,0.771996,0.296396,-124.206543,-217.712402,468.688965,0,0
3289,2024 10 07,05:24:37.398,-0.72352,-0.399376,0.511708,-0.234888,-2.157292,0.771996,0.296396,-124.206543,-217.712402,468.688965,0,0
3290,2024 10 07,05:24:37.407,-0.706468,-0.374726,0.545323,-0.251209,-2.581622,0.646992,0.291513,-118.713379,-247.924805,473.632813,0,0
3291,2024 10 07,05:24:37.415,-0.686212,-0.350084,0.579261,-0.266479,-3.096774,0.623066,0.491226,-109.069824,-269.53125,475.708008,0,0
3292,2024 10 07,05:24:37.423,-0.662915,-0.325618,0.612625,-0.281438,-3.649037,0.259285,0.720725,-97.106934,-288.94043,481.201172,0,0
3293,2024 10 07,05:24:37.432,-0.637339,-0.301553,0.644158,-0.296522,-4.104618,-0.572771,0.93704,-78.552246,-287.29248,481.323242,0,0
3294,2024 10 07,05:24:37.440,-0.610696,-0.27877,0.672628,-0.311302,-4.495743,-1.627003,1.023469,-56.70166,-280.639648,464.72168,0,0
3295,2024 10 07,05:24:37.448,-0.610696,-0.27877,0.672628,-0.311302,-4.495743,-1.627003,1.023469,-56.70166,-280.639648,464.72168,0,0
3296,2024 10 07,05:24:37.457,-0.584795,-0.258346,0.696939,-0.324883,-4.616352,-2.788659,1.078646,-37.475586,-251.464844,422.912598,0,0
3297,2024 10 07,05:24:37.465,-0.561542,-0.242042,0.716622,-0.335469,-3.967406,-3.97766,1.341838,-26.428223,-232.788086,344.909668,0,0
3298,2024 10 07,05:24:37.473,-0.540013,-0.232333,0.733579,-0.340982,-2.966399,-4.706686,1.957579,-19.042969,-250.488281,246.276855,0,0
3299,2024 10 07,05:24:37.482,-0.519434,-0.230158,0.748394,-0.342231,-2.832606,-5.288735,3.186621,2.319336,-267.883301,151.977539,0,0
3300,2024 10 07,05:24:37.490,-0.502628,-0.233597,0.758864,-0.34194,-2.710532,-5.718925,3.754021,24.414063,-233.886719,76.660156,0,0
3301,2024 10 07,05:24:37.498,-0.502628,-0.233597,0.758864,-0.34194,-2.710532,-5.718925,3.754021,24.414063,-233.886719,76.660156,0,0
3302,2024 10 07,05:24:37.507,-0.490736,-0.240271,0.76466,-0.341678,-3.648061,-5.917173,3.850215,55.358887,-158.874512,24.230957,0,0
3303,2024 10 07,05:24:37.515,-0.489922,-0.245561,0.762269,-0.344416,-3.177343,-6.573443,2.913175,69.030762,9.94873,-6.225586,0,0
3304,2024 10 07,05:24:37.523,-0.49558,-0.251224,0.760916,-0.335102,-11.427595,-8.699972,4.861965,-164.855957,-83.007813,-154.47998,0,0
3305,2024 10 07,05:24:37.532,-0.525166,-0.266362,0.748837,-0.304127,-3.028413,-1.078158,-3.95764,-394.714355,398.55957,-435.424805,1,0
3306,2024 10 07,05:24:37.540,-0.560663,-0.274505,0.727678,-0.284232,-0.690451,2.044008,-1.597705,-11.352539,234.680176,-324.34082,0,0
3307,2024 10 07,05:24:37.548,-0.560663,-0.274505,0.727678,-0.284232,-0.690451,2.044008,-1.597705,-11.352539,234.680176,-324.34082,0,0
3308,2024 10 07,05:24:37.557,-0.574159,-0.289509,0.717683,-0.267314,-2.472732,0.504898,1.689993,-35.827637,99.243164,-326.23291,0,0
3309,2024 10 07,05:24:37.565,-0.59494,-0.305377,0.696618,-0.259835,-1.010773,-0.284677,0.28077,42.053223,223.449707,-305.236816,0,0
3310,2024 10 07,05:24:37.573,-0.605286,-0.322716,0.681858,-0.254073,-2.198309,-0.954619,1.393109,66.223145,85.571289,-236.938477,0,0
3311,2024 10 07,05:24:37.582,-0.621114,-0.328498,0.66595,-0.250634,-1.445357,-0.135746,-0.040529,-11.474609,241.210938,-152.526855,0,0
3312,2024 10 07,05:24:37.590,-0.634656,-0.332285,0.65041,-0.252517,-1.135777,-0.009278,-1.072298,58.47168,180.358887,-100.708008,0,0
3313,2024 10 07,05:24:37.598,-0.639614,-0.338685,0.639958,-0.258147,-1.347209,-0.252449,0.402844,108.154297,115.478516,-48.156738,0,0
3314,2024 10 07,05:24:37.607,-0.639614,-0.338685,0.639958,-0.258147,-1.347209,-0.252449,0.402844,108.154297,115.478516,-48.156738,0,0
3315,2024 10 07,05:24:37.615,-0.645751,-0.342185,0.628084,-0.267254,-0.858425,-0.282723,0.118656,98.266602,163.757324,-18.005371,0,0
3316,2024 10 07,05:24:37.623,-0.651391,-0.343579,0.618719,-0.273551,-0.884793,-0.136723,-0.299814,48.156738,113.220215,-17.272949,0,0
3317,2024 10 07,05:24:37.632,-0.654836,-0.344937,0.612512,-0.277556,-1.196326,0.006836,-0.041505,49.682617,81.604004,-12.939453,0,0
3318,2024 10 07,05:24:37.640,-0.658453,-0.346007,0.605368,-0.283282,-0.927763,-0.115726,0.150395,57.983398,102.783203,-3.234863,0,0
3319,2024 10 07,05:24:37.648,-0.661882,-0.346419,0.599246,-0.287768,-0.778832,-0.086917,0.163091,34.423828,76.171875,-5.432129,0,0
3320,2024 10 07,05:24:37.657,-0.661882,-0.346419,0.599246,-0.287768,-0.778832,-0.086917,0.163091,34.423828,76.171875,-5.432129,0,0
3321,2024 10 07,05:24:37.665,-0.663966,-0.346803,0.595658,-0.289946,-0.953642,-0.000488,0.021973,19.897461,40.710449,-8.178711,0,0
3322,2024 10 07,05:24:37.673,-0.665187,-0.347618,0.593067,-0.291479,-1.036164,-0.030274,0.142094,22.399902,30.822754,-9.338379,0,0
3323,2024 10 07,05:24:37.682,-0.666666,-0.348369,0.590398,-0.292618,-0.986358,0.001953,0.043947,14.648438,31.37207,-14.221191,0,0
3324,2024 10 07,05:24:37.690,-0.668095,-0.349137,0.588302,-0.292666,-1.044954,0.04297,-0.0459,4.455566,20.812988,-20.324707,0,0
3325,2024 10 07,05:24:37.698,-0.669279,-0.350171,0.586643,-0.292056,-1.155309,-0.001465,-0.041993,4.211426,15.319824,-24.169922,0,0
3326,2024 10 07,05:24:37.707,-0.669279,-0.350171,0.586643,-0.292056,-1.155309,-0.001465,-0.041993,4.211426,15.319824,-24.169922,0,0
3327,2024 10 07,05:24:37.715,-0.671045,-0.351057,0.584436,-0.291363,-1.168004,0.006348,-0.087893,2.441406,27.099609,-27.770996,0,0
3328,2024 10 07,05:24:37.723,-0.673497,-0.351873,0.581447,-0.290701,-1.18656,0.066897,-0.106449,2.319336,37.04834,-33.26416,0,0
3329,2024 10 07,05:24:37.732,-0.676353,-0.352953,0.577674,-0.290282,-1.023469,0.007324,0.101077,7.8125,46.325684,-36.804199,0,0
3330,2024 10 07,05:24:37.740,-0.679378,-0.354116,0.573417,-0.290243,-0.835475,-0.067385,0.200201,11.413574,47.973633,-35.400391,0,0
3331,2024 10 07,05:24:37.748,-0.681796,-0.355378,0.570023,-0.289715,-0.856471,0.034669,0.147465,8.361816,29.541016,-34.667969,0,0
3332,2024 10 07,05:24:37.757,-0.681796,-0.355378,0.570023,-0.289715,-0.856471,0.034669,0.147465,8.361816,29.541016,-34.667969,0,0
3333,2024 10 07,05:24:37.765,-0.683019,-0.357394,0.567659,-0.288993,-1.00296,-0.028809,0.126469,13.73291,13.85498,-33.325195,0,0
3334,2024 10 07,05:24:37.773,-0.684047,-0.359653,0.565459,-0.288072,-1.044954,0.02002,0.152837,17.089844,12.634277,-35.827637,0,0
3335,2024 10 07,05:24:37.782,-0.685015,-0.362431,0.562827,-0.287445,-1.107944,-0.049806,0.024903,22.827148,16.174316,-38.94043,0,0
3336,2024 10 07,05:24:37.790,-0.686241,-0.365427,0.559792,-0.286652,-1.098178,-0.051759,0.04297,21.606445,20.263672,-44.494629,0,0
3337,2024 10 07,05:24:37.798,-0.687973,-0.368083,0.556447,-0.285613,-1.126499,-0.166021,-0.002441,15.625,26.306152,-46.081543,0,0
3338,2024 10 07,05:24:37.807,-0.687973,-0.368083,0.556447,-0.285613,-1.126499,-0.166021,-0.002441,15.625,26.306152,-46.081543,0,0
3339,2024 10 07,05:24:37.815,-0.690298,-0.370229,0.553069,-0.283786,-1.169958,-0.089846,0.115726,2.929688,27.038574,-52.55127,0,0
3340,2024 10 07,05:24:37.823,-0.693128,-0.372209,0.549788,-0.280655,-1.24955,-0.155766,0.023438,-10.620117,22.888184,-64.025879,0,0
3341,2024 10 07,05:24:37.832,-0.696721,-0.373456,0.546882,-0.275736,-1.167516,-0.163091,0.07178,-29.47998,21.54541,-73.425293,0,0
3342,2024 10 07,05:24:37.840,-0.700929,-0.374183,0.544246,-0.269226,-1.304727,-0.061037,0.063967,-50.720215,15.686035,-85.144043,0,0
3343,2024 10 07,05:24:37.848,-0.705588,-0.374851,0.541614,-0.261317,-1.31254,0.077639,0.258797,-57.739258,15.563965,-98.022461,0,0
3344,2024 10 07,05:24:37.857,-0.705588,-0.374851,0.541614,-0.261317,-1.31254,0.077639,0.258797,-57.739258,15.563965,-98.022461,0,0
3345,2024 10 07,05:24:37.865,-0.710933,-0.375912,0.537701,-0.253265,-1.397992,0.196295,0.37257,-48.88916,31.005859,-110.900879,0,0
3346,2024 10 07,05:24:37.873,-0.716042,-0.378614,0.532969,-0.244702,-1.64214,0.143559,0.304209,-36.743164,20.751953,-130.432129,0,0
3347,2024 10 07,05:24:37.882,-0.721272,-0.382866,0.527352,-0.234692,-1.875546,0.170904,0.236824,-28.564453,23.010254,-158.203125,0,0
3348,2024 10 07,05:24:37.890,-0.726779,-0.388944,0.520291,-0.223186,-2.010803,0.226569,0.119633,-23.925781,27.709961,-189.27002,0,0
3349,2024 10 07,05:24:37.898,-0.732402,-0.397369,0.510938,-0.211253,-2.044496,0.28077,0.145512,6.896973,41.320801,-217.468262,0,0
3350,2024 10 07,05:24:37.907,-0.732402,-0.397369,0.510938,-0.211253,-2.044496,0.28077,0.145512,6.896973,41.320801,-217.468262,0,0
3351,2024 10 07,05:24:37.915,-0.737679,-0.408631,0.499261,-0.19897,-2.456618,0.491226,0.382824,34.851074,47.302246,-250.12207,0,0
3352,2024 10 07,05:24:37.923,-0.743571,-0.422593,0.483885,-0.185397,-2.930265,0.517594,0.189459,50.476074,79.223633,-302.978516,0,0
3353,2024 10 07,05:24:37.932,-0.751284,-0.438074,0.464011,-0.168396,-3.566027,0.592792,-0.420423,44.067383,104.675293,-372.131348,0,0
3354,2024 10 07,05:24:37.940,-0.759906,-0.455799,0.439513,-0.147034,-4.746239,0.868191,-0.388684,43.151855,129.577637,-452.270508,0,0
3355,2024 10 07,05:24:37.948,-0.770439,-0.475289,0.406869,-0.122396,-5.619312,0.672872,-0.598651,46.142578,204.833984,-543.701172,0,0
3356,2024 10 07,05:24:37.957,-0.770439,-0.475289,0.406869,-0.122396,-5.619312,0.672872,-0.598651,46.142578,204.833984,-543.701172,0,0
3357,2024 10 07,05:24:37.965,-0.782295,-0.495861,0.364811,-0.095118,-5.535813,0.060549,-0.800806,45.593262,273.31543,-621.520996,0,0
3358,2024 10 07,05:24:37.973,-0.793245,-0.515513,0.317385,-0.06538,-5.452315,-0.325694,-0.814966,34.912109,293.640137,-660.217285,0,0
3359,2024 10 07,05:24:37.982,-0.803657,-0.530639,0.267384,-0.0326,-5.04947,1.063997,-0.598651,-20.812988,292.236328,-683.47168,0,1
3360,2024 10 07,05:24:37.990,-0.810459,-0.543339,0.218947,0.000884,-4.844386,1.62505,-1.42729,-6.347656,265.563965,-661.682129,0,0
3361,2024 10 07,05:24:37.998,-0.812958,-0.554565,0.174651,0.032447,-3.608997,1.920469,-1.380902,5.126953,222.167969,-606.750488,0,0
3362,2024 10 07,05:24:38.007,-0.812958,-0.554565,0.174651,0.032447,-3.608997,1.920469,-1.380902,5.126953,222.167969,-606.750488,0,0
3363,2024 10 07,05:24:38.015,-0.815403,-0.559509,0.134716,0.062606,0.057131,3.501083,-2.933195,-75.073242,183.959961,-542.236328,0,0
3364,2024 10 07,05:24:38.023,-0.817043,-0.560107,0.106568,0.085821,2.343333,3.010346,-3.628529,-67.993164,81.665039,-338.684082,0,0
3365,2024 10 07,05:24:38.032,-0.821138,-0.552183,0.105183,0.098806,-0.251961,3.312113,-0.093265,-146.240234,-114.807129,-17.456055,0,0
3366,2024 10 07,05:24:38.040,-0.826547,-0.54299,0.119942,0.087158,-1.985412,4.040651,-0.126957,-44.73877,-38.024902,275.57373,0,0
3367,2024 10 07,05:24:38.048,-0.827546,-0.541676,0.135138,0.059099,-2.096744,2.753502,-0.691916,64.63623,52.429199,361.877441,0,0
3368,2024 10 07,05:24:38.057,-0.825241,-0.544283,0.147852,0.029545,-0.733421,1.585498,-1.486862,98.510742,62.5,330.078125,0,0
3369,2024 10 07,05:24:38.065,-0.825241,-0.544283,0.147852,0.029545,-0.733421,1.585498,-1.486862,98.510742,62.5,330.078125,0,0
3370,2024 10 07,05:24:38.073,-0.821424,-0.546725,0.162216,0.006422,0.540056,1.33842,-2.076724,78.796387,-22.399902,293.395996,0,0
3371,2024 10 07,05:24:38.082,-0.816965,-0.546114,0.184991,-0.010319,0.24659,1.606494,-1.448775,37.475586,-143.371582,309.082031,0,0
3372,2024 10 07,05:24:38.090,-0.812099,-0.541584,0.2156,-0.026421,-0.48439,1.878475,-0.952666,8.789063,-205.200195,365.783691,0,0
3373,2024 10 07,05:24:38.098,-0.806066,-0.533766,0.25149,-0.045864,-1.104526,1.935606,-0.606464,0.610352,-226.623535,435.241699,0,0
3374,2024 10 07,05:24:38.107,-0.798099,-0.523587,0.289925,-0.069563,-1.618213,1.678274,-0.172857,4.150391,-220.275879,489.135742,0,0
3375,2024 10 07,05:24:38.115,-0.798099,-0.523587,0.289925,-0.069563,-1.618213,1.678274,-0.172857,4.150391,-220.275879,489.135742,0,0
3376,2024 10 07,05:24:38.123,-0.789095,-0.511024,0.326748,-0.097047,-1.569384,1.306192,-0.127445,2.441406,-177.429199,514.465332,0,0
3377,2024 10 07,05:24:38.132,-0.779064,-0.496627,0.361434,-0.125647,-1.412153,0.922391,-0.150395,-4.089355,-165.83252,515.930176,0,0
3378,2024 10 07,05:24:38.140,-0.767481,-0.481019,0.395553,-0.152091,-1.485885,0.619648,-0.034669,-16.174316,-181.396484,498.291016,0,0
3379,2024 10 07,05:24:38.148,-0.754568,-0.464253,0.429375,-0.175306,-1.619678,0.533708,-0.019532,-34.118652,-203.00293,477.233887,0,0
3380,2024 10 07,05:24:38.157,-0.739926,-0.446363,0.463602,-0.195814,-1.987365,0.361339,0.125004,-48.339844,-228.088379,470.397949,0,0
3381,2024 10 07,05:24:38.165,-0.739926,-0.446363,0.463602,-0.195814,-1.987365,0.361339,0.125004,-48.339844,-228.088379,470.397949,0,0
3382,2024 10 07,05:24:38.173,-0.724301,-0.42617,0.497315,-0.21551,-2.284738,0.563982,0.208991,-61.828613,-219.421387,477.783203,0,0
3383,2024 10 07,05:24:38.182,-0.707691,-0.403519,0.530247,-0.234912,-2.458571,0.61916,0.299326,-79.467773,-217.895508,487.365723,0,0
3384,2024 10 07,05:24:38.190,-0.689477,-0.378816,0.562964,-0.253361,-2.829188,0.594745,0.322275,-96.740723,-225.952148,493.95752,0,0
3385,2024 10 07,05:24:38.198,-0.669406,-0.352588,0.595392,-0.270344,-3.365825,0.357921,0.440931,-109.313965,-239.685059,496.704102,0,0
3386,2024 10 07,05:24:38.207,-0.647515,-0.325498,0.626924,-0.285904,-3.823359,-0.079592,0.605976,-111.328125,-248.657227,495.117188,0,0
3387,2024 10 07,05:24:38.215,-0.647515,-0.325498,0.626924,-0.285904,-3.823359,-0.079592,0.605976,-111.328125,-248.657227,495.117188,0,0
3388,2024 10 07,05:24:38.223,-0.624097,-0.298542,0.656645,-0.300321,-4.30433,-0.855983,0.746117,-103.088379,-250.061035,485.900879,0,0
3389,2024 10 07,05:24:38.232,-0.600464,-0.272845,0.682997,-0.313869,-4.658834,-2.004944,0.760277,-87.158203,-230.895996,461.914063,0,0
3390,2024 10 07,05:24:38.240,-0.578557,-0.249711,0.704884,-0.325659,-4.440565,-3.379986,0.829615,-73.791504,-201.843262,409.790039,0,0
3391,2024 10 07,05:24:38.248,-0.558792,-0.231897,0.723086,-0.333349,-3.411237,-4.407849,1.374065,-63.781738,-202.392578,320.129395,0,0
3392,2024 10 07,05:24:38.257,-0.539314,-0.222519,0.739447,-0.335922,-2.423414,-5.047029,2.22663,-40.466309,-248.413086,212.70752,0,0
3393,2024 10 07,05:24:38.265,-0.539314,-0.222519,0.739447,-0.335922,-2.423414,-5.047029,2.22663,-40.466309,-248.413086,212.70752,0,0
3394,2024 10 07,05:24:38.273,-0.519126,-0.222521,0.753871,-0.335667,-2.627033,-5.703299,3.621693,10.681152,-278.381348,121.887207,0,0
3395,2024 10 07,05:24:38.282,-0.502371,-0.228336,0.76338,-0.335765,-3.286233,-6.120304,3.704703,47.851563,-235.229492,56.213379,0,0
3396,2024 10 07,05:24:38.290,-0.493368,-0.236532,0.765862,-0.337781,-3.694937,-6.767785,3.35606,90.698242,-97.900391,5.554199,0,0
3397,2024 10 07,05:24:38.298,-0.492428,-0.254025,0.767812,-0.321636,-6.016297,-8.380138,10.009094,-53.344727,-217.102051,-309.387207,0,0
3398,2024 10 07,05:24:38.307,-0.538227,-0.268296,0.743492,-0.292485,-0.810083,-0.670919,-1.510788,-364.624023,502.197266,-505.493164,1,0
3399,2024 10 07,05:24:38.315,-0.538227,-0.268296,0.743492,-0.292485,-0.810083,-0.670919,-1.510788,-364.624023,502.197266,-505.493164,0,0
3400,2024 10 07,05:24:38.323,-0.566172,-0.286097,0.721841,-0.276664,-1.697317,2.495682,1.118198,33.935547,136.047363,-372.98584,0,0
3401,2024 10 07,05:24:38.332,-0.583274,-0.305179,0.704776,-0.264475,-2.721763,-0.20069,1.423872,19.042969,184.753418,-350.097656,0,0
3402,2024 10 07,05:24:38.340,-0.602573,-0.321896,0.682906,-0.258705,-1.269082,-0.742698,1.387249,74.462891,199.584961,-287.719727,0,0
3403,2024 10 07,05:24:38.348,-0.616298,-0.332814,0.667391,-0.252984,-1.916074,-0.954131,0.107425,4.02832,164.367676,-194.213867,0,0
3404,2024 10 07,05:24:38.357,-0.628982,-0.336578,0.653848,-0.252149,-1.340861,0.151372,-0.851588,20.568848,170.471191,-100.402832,0,0
3405,2024 10 07,05:24:38.365,-0.628982,-0.336578,0.653848,-0.252149,-1.340861,0.151372,-0.851588,20.568848,170.471191,-100.402832,0,0
3406,2024 10 07,05:24:38.373,-0.634635,-0.342197,0.6428,-0.258743,-1.20658,-0.231452,0.191412,128.417969,127.441406,-41.137695,0,0
3407,2024 10 07,05:24:38.382,-0.639804,-0.346607,0.631116,-0.268714,-0.880886,-0.315928,0.168462,108.154297,154.663086,-17.39502,0,0
3408,2024 10 07,05:24:38.390,-0.645156,-0.348267,0.621671,-0.275697,-0.880398,-0.172369,-0.503922,56.640625,116.149902,-12.573242,0,0
3409,2024 10 07,05:24:38.398,-0.647678,-0.349836,0.615745,-0.281046,-1.298868,0.020997,-0.035157,67.443848,77.148438,1.098633,0,0
3410,2024 10 07,05:24:38.407,-0.651162,-0.350749,0.607994,-0.288631,-0.911161,-0.072268,0.242683,69.213867,119.628906,6.04248,0,0
3411,2024 10 07,05:24:38.415,-0.651162,-0.350749,0.607994,-0.288631,-0.911161,-0.072268,0.242683,69.213867,119.628906,6.04248,0,0
3412,2024 10 07,05:24:38.423,-0.655008,-0.350922,0.601008,-0.294292,-0.718772,-0.016114,0.0,39.428711,86.791992,-2.319336,0,0
3413,2024 10 07,05:24:38.432,-0.656495,-0.351653,0.597585,-0.297062,-1.057649,0.034181,0.030763,28.076172,34.484863,-3.540039,0,0
3414,2024 10 07,05:24:38.440,-0.657601,-0.352701,0.594682,-0.299192,-1.079623,0.067873,0.159185,28.930664,37.04834,-8.911133,0,0
3415,2024 10 07,05:24:38.448,-0.659342,-0.353933,0.591285,-0.300634,-1.031281,0.045412,-0.007324,21.362305,36.92627,-21.30127,0,0
3416,2024 10 07,05:24:38.457,-0.660884,-0.355787,0.588464,-0.300595,-1.16654,0.048341,-0.045412,17.883301,23.254395,-32.958984,0,0
3417,2024 10 07,05:24:38.465,-0.660884,-0.355787,0.588464,-0.300595,-1.16654,0.048341,-0.045412,17.883301,23.254395,-32.958984,0,0
3418,2024 10 07,05:24:38.473,-0.662916,-0.357935,0.585141,-0.300059,-1.242714,-0.051271,-0.215827,16.418457,33.874512,-42.297363,0,0
3419,2024 10 07,05:24:38.482,-0.665986,-0.359604,0.581113,-0.299091,-1.084506,-0.027833,-0.145512,4.333496,45.10498,-46.813965,0,0
3420,2024 10 07,05:24:38.490,-0.66926,-0.360879,0.576793,-0.298608,-0.96585,-0.031739,0.095218,8.178711,50.78125,-40.222168,0,0
3421,2024 10 07,05:24:38.498,-0.67228,-0.362009,0.572474,-0.298768,-0.904324,-0.025391,0.165532,12.939453,47.790527,-33.691406,0,0
3422,2024 10 07,05:24:38.507,-0.67455,-0.363699,0.568687,-0.298833,-0.984893,0.035646,0.201178,21.30127,34.790039,-35.217285,0,0
3423,2024 10 07,05:24:38.515,-0.676236,-0.366189,0.564977,-0.299017,-0.999542,0.038087,0.146489,25.268555,31.12793,-37.658691,0,0
3424,2024 10 07,05:24:38.523,-0.676236,-0.366189,0.564977,-0.299017,-0.999542,0.038087,0.146489,25.268555,31.12793,-37.658691,0,0
3425,2024 10 07,05:24:38.532,-0.67768,-0.369003,0.561344,-0.299131,-1.031281,-0.020997,0.119144,30.395508,27.22168,-38.879395,0,0
3426,2024 10 07,05:24:38.540,-0.679081,-0.371972,0.557709,-0.299076,-1.057649,-0.013184,0.145512,28.076172,26.611328,-41.320801,0,0
3427,2024 10 07,05:24:38.548,-0.680646,-0.374864,0.553941,-0.298911,-1.108432,-0.103519,0.146489,28.198242,29.052734,-43.029785,0,0
3428,2024 10 07,05:24:38.557,-0.682792,-0.3775,0.550001,-0.297973,-1.129429,-0.118656,-0.030763,14.526367,31.616211,-51.086426,0,0
3429,2024 10 07,05:24:38.565,-0.685294,-0.379857,0.546367,-0.295911,-1.177282,-0.13477,0.087405,5.554199,27.404785,-57.312012,0,0
3430,2024 10 07,05:24:38.573,-0.685294,-0.379857,0.546367,-0.295911,-1.177282,-0.13477,0.087405,5.554199,27.404785,-57.312012,0,0
3431,2024 10 07,05:24:38.582,-0.688516,-0.381806,0.542564,-0.292907,-1.159703,-0.078127,0.089846,-8.605957,31.677246,-65.856934,0,0
3432,2024 10 07,05:24:38.590,-0.692239,-0.38357,0.53871,-0.288912,-1.244667,-0.077639,0.056642,-16.052246,29.296875,-75.622559,0,0
3433,2024 10 07,05:24:38.598,-0.696372,-0.385348,0.535022,-0.283415,-1.230018,-0.095706,0.11475,-30.029297,24.291992,-88.684082,0,0
3434,2024 10 07,05:24:38.607,-0.701204,-0.3868,0.531312,-0.276417,-1.214881,0.021973,0.162603,-43.212891,23.31543,-101.318359,0,0
3435,2024 10 07,05:24:38.615,-0.705973,-0.388779,0.527759,-0.268185,-1.213416,0.089358,0.37843,-43.151855,11.535645,-114.196777,0,0
3436,2024 10 07,05:24:38.623,-0.705973,-0.388779,0.527759,-0.268185,-1.213416,0.089358,0.37843,-43.151855,11.535645,-114.196777,0,0
3437,2024 10 07,05:24:38.632,-0.710442,-0.391838,0.524127,-0.258896,-1.44438,0.126957,0.252449,-38.024902,2.13623,-130.432129,0,0
3438,2024 10 07,05:24:38.640,-0.714916,-0.39622,0.519629,-0.248779,-1.835017,0.143559,0.347667,-29.907227,10.681152,-150.268555,0,0
3439,2024 10 07,05:24:38.648,-0.720103,-0.401982,0.513138,-0.237806,-1.991272,0.113285,-0.039064,-20.263672,17.63916,-180.175781,0,0
3440,2024 10 07,05:24:38.657,-0.725409,-0.409638,0.504991,-0.225751,-2.030824,0.191412,0.170415,-4.272461,28.869629,-205.810547,0,0
3441,2024 10 07,05:24:38.665,-0.731468,-0.419269,0.493431,-0.213761,-2.343333,0.376965,0.118168,16.418457,55.236816,-242.1875,0,0
3442,2024 10 07,05:24:38.673,-0.731468,-0.419269,0.493431,-0.213761,-2.343333,0.376965,0.118168,16.418457,55.236816,-242.1875,0,0
3443,2024 10 07,05:24:38.682,-0.737809,-0.431102,0.479761,-0.199043,-2.786706,0.40968,0.205573,21.66748,51.696777,-291.748047,0,0
3444,2024 10 07,05:24:38.690,-0.746027,-0.444547,0.461325,-0.181662,-3.3043,0.556169,-0.209479,18.737793,101.623535,-357.36084,0,0
3445,2024 10 07,05:24:38.698,-0.755336,-0.460092,0.438212,-0.160477,-3.959594,0.821314,-0.184576,30.334473,108.825684,-432.373047,0,0
3446,2024 10 07,05:24:38.707,-0.765159,-0.478236,0.409246,-0.135427,-4.77456,0.770531,-0.188971,33.508301,154.11377,-516.418457,0,0
3447,2024 10 07,05:24:38.715,-0.776181,-0.497566,0.372112,-0.107253,-5.085116,0.350597,-0.324717,36.804199,212.402344,-598.815918,0,0
3448,2024 10 07,05:24:38.723,-0.776181,-0.497566,0.372112,-0.107253,-5.085116,0.350597,-0.324717,36.804199,212.402344,-598.815918,0,0
3449,2024 10 07,05:24:38.732,-0.785939,-0.517776,0.329312,-0.075904,-5.500656,-0.209967,-0.276376,45.10498,230.773926,-652.770996,0,0
3450,2024 10 07,05:24:38.740,-0.794163,-0.536019,0.283138,-0.042681,-4.914212,0.446791,-0.466811,19.958496,246.154785,-678.344727,0,0
3451,2024 10 07,05:24:38.748,-0.800742,-0.550543,0.235923,-0.007376,-4.842433,1.789117,-0.647969,-6.530762,230.712891,-687.316895,0,1
3452,2024 10 07,05:24:38.757,-0.803202,-0.563626,0.190961,0.026945,-4.188116,1.896542,-1.059603,19.592285,201.171875,-653.015137,0,0
3453,2024 10 07,05:24:38.765,-0.802905,-0.573829,0.149824,0.060129,-2.524491,2.27546,-1.542528,1.77002,166.19873,-603.210449,0,0
3454,2024 10 07,05:24:38.773,-0.802905,-0.573829,0.149824,0.060129,-2.524491,2.27546,-1.542528,1.77002,166.19873,-603.210449,0,0
3455,2024 10 07,05:24:38.782,-0.801613,-0.579646,0.114727,0.090911,1.010773,2.028382,-2.956633,-15.014648,107.421875,-495.727539,0,0
3456,2024 10 07,05:24:38.790,-0.800471,-0.579421,0.098227,0.117767,1.369182,2.418531,-1.201697,-89.538574,-84.106445,-299.438477,0,0
3457,2024 10 07,05:24:38.798,-0.804569,-0.571615,0.101386,0.125082,-1.24662,3.786248,0.930204,-87.585449,-51.818848,64.331055,0,0
3458,2024 10 07,05:24:38.807,-0.807698,-0.569875,0.111127,0.102556,-1.929746,3.131932,-0.585467,37.658691,79.89502,319.091797,0,0
3459,2024 10 07,05:24:38.815,-0.806337,-0.573697,0.125271,0.070704,-1.630421,1.723685,-0.166021,118.225098,93.322754,373.657227,0,0
3460,2024 10 07,05:24:38.823,-0.806337,-0.573697,0.125271,0.070704,-1.630421,1.723685,-0.166021,118.225098,93.322754,373.657227,0,0
3461,2024 10 07,05:24:38.832,-0.803391,-0.578283,0.136329,0.039576,-0.016602,0.813013,-1.880917,109.191895,89.84375,331.054688,0,0
3462,2024 10 07,05:24:38.840,-0.799744,-0.580391,0.152428,0.017927,0.407727,0.641621,-1.38139,61.828613,-36.987305,294.494629,0,0
3463,2024 10 07,05:24:38.848,-0.797234,-0.57802,0.174086,0.002059,0.014161,0.804224,-1.151891,6.896973,-115.41748,296.875,0,0
3464,2024 10 07,05:24:38.857,-0.795264,-0.571653,0.201563,-0.01183,-0.627949,1.108921,-0.650899,-26.733398,-172.790527,328.796387,0,0
3465,2024 10 07,05:24:38.865,-0.793083,-0.562471,0.232133,-0.027564,-1.061556,1.195837,-0.410169,-40.893555,-175.292969,369.750977,0,0
3466,2024 10 07,05:24:38.873,-0.793083,-0.562471,0.232133,-0.027564,-1.061556,1.195837,-0.410169,-40.893555,-175.292969,369.750977,0,0
3467,2024 10 07,05:24:38.882,-0.79057,-0.550925,0.263219,-0.046863,-1.265175,1.049837,-0.219733,-49.621582,-151.794434,408.325195,0,0
3468,2024 10 07,05:24:38.890,-0.788005,-0.536931,0.293112,-0.069551,-1.098178,0.829127,-0.292978,-61.523438,-118.95752,435.546875,0,0
3469,2024 10 07,05:24:38.898,-0.785033,-0.520397,0.322847,-0.09317,-0.882839,0.642598,-0.326182,-80.566406,-120.483398,450.866699,0,0
3470,2024 10 07,05:24:38.907,-0.780989,-0.501331,0.354069,-0.115579,-0.894559,0.581561,-0.31251,-104.675293,-147.827148,458.618164,0,0
3471,2024 10 07,05:24:38.915,-0.775265,-0.480258,0.38722,-0.135565,-1.124058,0.631855,-0.210456,-123.291016,-184.020996,455.322266,0,0
3472,2024 10 07,05:24:38.923,-0.775265,-0.480258,0.38722,-0.135565,-1.124058,0.631855,-0.210456,-123.291016,-184.020996,455.322266,0,0
3473,2024 10 07,05:24:38.932,-0.767804,-0.457858,0.421201,-0.153074,-1.346233,0.731956,-0.098148,-135.620117,-205.871582,444.152832,0,0
3474,2024 10 07,05:24:38.940,-0.758669,-0.434589,0.455081,-0.168686,-1.620167,0.644063,0.06006,-141.357422,-221.496582,433.837891,0,0
3475,2024 10 07,05:24:38.948,-0.747406,-0.411122,0.488733,-0.183035,-1.92291,0.5674,0.327158,-137.145996,-238.037109,430.725098,0,0
3476,2024 10 07,05:24:38.957,-0.734849,-0.386458,0.521021,-0.197951,-2.017151,0.781762,0.275399,-130.310059,-220.52002,440.490723,0,0
3477,2024 10 07,05:24:38.965,-0.719743,-0.361005,0.553151,-0.213705,-2.149968,0.84817,0.367199,-122.436523,-239.868164,457.885742,0,0
3478,2024 10 07,05:24:38.973,-0.701592,-0.335047,0.585266,-0.230164,-2.475662,1.008332,0.393567,-108.337402,-251.281738,472.900391,0,0
3479,2024 10 07,05:24:38.982,-0.701592,-0.335047,0.585266,-0.230164,-2.475662,1.008332,0.393567,-108.337402,-251.281738,472.900391,0,0
3480,2024 10 07,05:24:38.990,-0.679928,-0.309803,0.61706,-0.246894,-3.136326,0.994659,0.584979,-83.92334,-280.090332,476.44043,0,0
3481,2024 10 07,05:24:38.998,-0.655616,-0.285491,0.647063,-0.264521,-3.546983,0.387707,0.819361,-55.175781,-273.132324,479.125977,0,0
3482,2024 10 07,05:24:39.007,-0.629735,-0.261621,0.674366,-0.28323,-3.900021,-0.638203,0.664083,-33.569336,-269.40918,486.14502,0,0
3483,2024 10 07,05:24:39.015,-0.602295,-0.239014,0.69941,-0.301558,-4.489395,-1.917539,0.777367,-16.845703,-268.127441,472.65625,0,0
3484,2024 10 07,05:24:39.023,-0.575625,-0.219415,0.720773,-0.317805,-4.948393,-3.326273,0.994171,-1.525879,-251.77002,420.227051,0,0
3485,2024 10 07,05:24:39.032,-0.575625,-0.219415,0.720773,-0.317805,-4.948393,-3.326273,0.994171,-1.525879,-251.77002,420.227051,0,0
3486,2024 10 07,05:24:39.040,-0.551907,-0.205245,0.737597,-0.33049,-4.386853,-4.35023,1.702689,15.808105,-225.402832,330.078125,0,0
3487,2024 10 07,05:24:39.048,-0.532146,-0.197971,0.749592,-0.340206,-3.011811,-5.430342,2.237373,47.241211,-201.538086,230.407715,0,0
3488,2024 10 07,05:24:39.057,-0.515769,-0.199207,0.757119,-0.347949,-2.29841,-6.934294,3.116794,98.083496,-185.302734,124.816895,0,0
3489,2024 10 07,05:24:39.065,-0.501217,-0.209067,0.762527,-0.351603,-2.973235,-6.900113,3.100192,103.515625,-215.026855,19.714355,0,0
3490,2024 10 07,05:24:39.073,-0.492768,-0.222646,0.76348,-0.353137,-3.515732,-7.206275,3.507431,110.046387,-112.854004,-47.912598,0,0
3491,2024 10 07,05:24:39.082,-0.492768,-0.222646,0.76348,-0.353137,-3.515732,-7.206275,3.507431,110.046387,-112.854004,-47.912598,0,0
3492,2024 10 07,05:24:39.090,-0.491068,-0.239691,0.768613,-0.332618,-7.450423,-6.953825,16.0,-250.061035,-317.077637,-332.580566,0,0
3493,2024 10 07,05:24:39.098,-0.540809,-0.255884,0.741286,-0.304205,-1.645558,0.532731,-3.982544,-552.429199,589.355469,-565.612793,1,0
3494,2024 10 07,05:24:39.107,-0.566028,-0.279753,0.721742,-0.283617,-2.095279,0.645527,-0.006836,86.486816,26.672363,-416.625977,0,0
3495,2024 10 07,05:24:39.115,-0.58392,-0.303869,0.704403,-0.265551,-3.355571,-0.78811,1.300821,9.277344,235.656738,-428.771973,0,0
3496,2024 10 07,05:24:39.123,-0.608684,-0.322634,0.676303,-0.260816,-1.615772,-0.80813,1.130894,107.60498,272.094727,-321.716309,0,0
3497,2024 10 07,05:24:39.132,-0.608684,-0.322634,0.676303,-0.260816,-1.615772,-0.80813,1.130894,107.60498,272.094727,-321.716309,0,0
3498,2024 10 07,05:24:39.140,-0.626334,-0.334748,0.654411,-0.259607,-2.265206,-1.169469,-0.448744,70.43457,252.380371,-194.580078,0,0
3499,2024 10 07,05:24:39.148,-0.640458,-0.339229,0.635568,-0.266065,-1.14359,0.141118,-0.286142,82.15332,245.727539,-73.913574,0,0
3500,2024 10 07,05:24:39.157,-0.646724,-0.344483,0.620945,-0.278401,-0.775414,-0.528336,0.434584,160.705566,170.227051,-12.084961,0,0
3501,2024 10 07,05:24:39.165,-0.651628,-0.347703,0.609439,-0.288215,-0.655293,-0.28956,-0.139164,95.397949,135.986328,-8.544922,0,0
3502,2024 10 07,05:24:39.173,-0.654137,-0.349414,0.602819,-0.294319,-1.147008,0.007324,-0.391125,63.720703,71.350098,2.441406,0,0
3503,2024 10 07,05:24:39.182,-0.654137,-0.349414,0.602819,-0.294319,-1.147008,0.007324,-0.391125,63.720703,71.350098,2.441406,0,0
3504,2024 10 07,05:24:39.190,-0.655541,-0.350859,0.597219,-0.300823,-1.066439,-0.062014,0.462905,67.504883,84.716797,11.047363,0,0
3505,2024 10 07,05:24:39.198,-0.659178,-0.35062,0.589875,-0.307565,-0.731468,-0.011719,-0.063479,51.452637,105.46875,8.728027,0,0
3506,2024 10 07,05:24:39.207,-0.660388,-0.351181,0.586044,-0.311628,-0.920927,-0.067385,-0.047853,34.790039,33.081055,6.469727,0,0
3507,2024 10 07,05:24:39.215,-0.660445,-0.351921,0.584283,-0.313972,-1.0889,0.004883,0.354503,29.724121,24.353027,4.882813,0,0
3508,2024 10 07,05:24:39.223,-0.661687,-0.352209,0.581234,-0.316682,-0.919462,0.044923,-0.00293,22.705078,41.320801,-0.854492,0,0
3509,2024 10 07,05:24:39.232,-0.661687,-0.352209,0.581234,-0.316682,-0.919462,0.044923,-0.00293,22.705078,41.320801,-0.854492,0,0
3510,2024 10 07,05:24:39.240,-0.662241,-0.35306,0.579599,-0.317569,-0.999054,0.044923,0.100101,12.939453,8.911133,-11.108398,0,0
3511,2024 10 07,05:24:39.248,-0.662724,-0.354251,0.578746,-0.31679,-1.085971,0.056154,0.021485,3.356934,1.525879,-22.827148,0,0
3512,2024 10 07,05:24:39.257,-0.663717,-0.355638,0.577812,-0.314857,-1.199744,-0.00293,-0.233894,-5.493164,1.281738,-35.400391,0,0
3513,2024 10 07,05:24:39.265,-0.665441,-0.356794,0.576728,-0.311882,-1.158727,0.053224,-0.080569,-15.686035,7.751465,-42.84668,0,0
3514,2024 10 07,05:24:39.273,-0.667926,-0.357756,0.574327,-0.309895,-1.050325,-0.00586,-0.00293,-3.601074,29.907227,-40.100098,0,0
3515,2024 10 07,05:24:39.282,-0.667926,-0.357756,0.574327,-0.309895,-1.050325,-0.00586,-0.00293,-3.601074,29.907227,-40.100098,0,0
3516,2024 10 07,05:24:39.290,-0.670462,-0.358735,0.57143,-0.308638,-0.968291,0.00293,-0.028321,-1.403809,27.038574,-37.353516,0,0
3517,2024 10 07,05:24:39.298,-0.672118,-0.360332,0.569288,-0.307132,-1.02884,-0.00586,0.152348,5.371094,14.526367,-37.29248,0,0
3518,2024 10 07,05:24:39.307,-0.673816,-0.362091,0.566746,-0.306042,-1.00589,0.016602,0.103519,9.70459,21.484375,-37.04834,0,0
3519,2024 10 07,05:24:39.315,-0.675312,-0.364206,0.564054,-0.305205,-1.004913,0.016114,0.195807,14.770508,18.432617,-38.391113,0,0
3520,2024 10 07,05:24:39.323,-0.676905,-0.366509,0.561068,-0.304423,-1.037141,0.013184,0.195318,17.63916,23.742676,-40.588379,0,0
3521,2024 10 07,05:24:39.332,-0.676905,-0.366509,0.561068,-0.304423,-1.037141,0.013184,0.195318,17.63916,23.742676,-40.588379,0,0
3522,2024 10 07,05:24:39.340,-0.678767,-0.368859,0.557595,-0.303819,-1.040071,-0.063478,0.16895,17.63916,28.686523,-42.358398,0,0
3523,2024 10 07,05:24:39.348,-0.680947,-0.370954,0.554201,-0.302599,-1.105014,-0.093265,0.167486,10.070801,26.733398,-46.508789,0,0
3524,2024 10 07,05:24:39.357,-0.683637,-0.37269,0.55083,-0.300548,-1.088412,-0.080081,0.077151,-0.12207,29.968262,-51.940918,0,0
3525,2024 10 07,05:24:39.365,-0.686535,-0.374327,0.547582,-0.297831,-1.159703,-0.076662,0.056642,-10.192871,24.353027,-58.410645,0,0
3526,2024 10 07,05:24:39.373,-0.689874,-0.375769,0.544415,-0.294081,-1.159215,-0.096683,0.149907,-16.906738,26.916504,-66.40625,0,0
3527,2024 10 07,05:24:39.382,-0.693708,-0.377158,0.541184,-0.289206,-1.227576,-0.015137,0.135746,-28.503418,21.484375,-78.369141,0,0
3528,2024 10 07,05:24:39.390,-0.693708,-0.377158,0.541184,-0.289206,-1.227576,-0.015137,0.135746,-28.503418,21.484375,-78.369141,0,0
3529,2024 10 07,05:24:39.398,-0.697782,-0.378758,0.538016,-0.283164,-1.209998,-0.056642,0.168462,-33.447266,19.104004,-89.172363,0,0
3530,2024 10 07,05:24:39.407,-0.702282,-0.380391,0.53471,-0.276022,-1.199744,0.024415,0.189459,-39.733887,16.296387,-100.402832,0,0
3531,2024 10 07,05:24:39.415,-0.706512,-0.382794,0.531556,-0.267878,-1.264199,0.024903,0.206549,-39.123535,4.699707,-112.487793,0,0
3532,2024 10 07,05:24:39.423,-0.710694,-0.385948,0.52834,-0.258486,-1.532273,0.062014,0.233894,-39.18457,1.464844,-128.540039,0,0
3533,2024 10 07,05:24:39.432,-0.715835,-0.389693,0.523316,-0.248717,-1.727592,0.06885,0.192389,-33.813477,23.864746,-148.254395,0,0
3534,2024 10 07,05:24:39.440,-0.715835,-0.389693,0.523316,-0.248717,-1.727592,0.06885,0.192389,-33.813477,23.864746,-148.254395,0,0
3535,2024 10 07,05:24:39.448,-0.721584,-0.394683,0.516615,-0.238016,-1.849177,0.160649,0.021485,-27.160645,26.367188,-174.255371,0,0
3536,2024 10 07,05:24:39.457,-0.726982,-0.401867,0.508585,-0.226585,-2.075259,0.270028,0.333506,-4.577637,33.752441,-199.035645,0,0
3537,2024 10 07,05:24:39.465,-0.732833,-0.41136,0.497547,-0.214909,-2.306223,0.283212,0.02002,16.540527,48.339844,-234.130859,0,0
3538,2024 10 07,05:24:39.473,-0.739432,-0.423006,0.48349,-0.201354,-2.752525,0.396496,0.236335,33.447266,77.148438,-281.799316,0,0
3539,2024 10 07,05:24:39.482,-0.748096,-0.436014,0.464522,-0.185644,-2.906827,0.595233,-0.17188,25.390625,109.49707,-342.224121,0,0
3540,2024 10 07,05:24:39.490,-0.748096,-0.436014,0.464522,-0.185644,-2.906827,0.595233,-0.17188,25.390625,109.49707,-342.224121,0,0
3541,2024 10 07,05:24:39.498,-0.757091,-0.451465,0.442076,-0.166018,-3.803827,0.693869,-0.305185,31.25,116.455078,-411.132813,0,0
3542,2024 10 07,05:24:39.507,-0.766801,-0.468929,0.414496,-0.142527,-4.977203,0.758324,-0.205084,37.414551,150.45166,-489.135742,0,0
3543,2024 10 07,05:24:39.515,-0.777985,-0.487972,0.378318,-0.11618,-5.899106,0.330576,-0.495132,42.114258,225.708008,-577.697754,0,0
3544,2024 10 07,05:24:39.523,-0.789308,-0.507741,0.333985,-0.087438,-5.891293,-0.236824,-0.70217,46.447754,277.648926,-640.197754,0,0
3545,2024 10 07,05:24:39.532,-0.799323,-0.525791,0.285308,-0.056787,-5.310709,0.033692,-0.975616,22.460938,297.485352,-670.715332,0,0
3546,2024 10 07,05:24:39.540,-0.799323,-0.525791,0.285308,-0.056787,-5.310709,0.033692,-0.975616,22.460938,297.485352,-670.715332,0,0
3547,2024 10 07,05:24:39.548,-0.808428,-0.539018,0.235328,-0.022894,-4.92642,1.716849,-1.070833,-27.099609,277.22168,-689.147949,0,1
3548,2024 10 07,05:24:39.557,-0.812931,-0.550725,0.188944,0.012047,-4.493301,2.027406,-1.304727,6.04248,218.200684,-664.245605,0,0
3549,2024 10 07,05:24:39.565,-0.814188,-0.559818,0.14668,0.046762,-2.707602,2.398999,-1.840388,-19.775391,176.208496,-624.450684,0,0
3550,2024 10 07,05:24:39.573,-0.815846,-0.561788,0.111259,0.080067,1.244667,2.701743,-2.940031,-73.852539,104.492188,-514.282227,0,0
3551,2024 10 07,05:24:39.582,-0.818737,-0.556539,0.094025,0.105322,2.505448,3.890744,-2.191962,-170.166016,-47.302246,-253.295898,0,0
3552,2024 10 07,05:24:39.590,-0.818737,-0.556539,0.094025,0.105322,2.505448,3.890744,-2.191962,-170.166016,-47.302246,-253.295898,0,0
3553,2024 10 07,05:24:39.598,-0.825143,-0.544876,0.104104,0.106831,-1.538621,4.385876,0.53029,-109.25293,-115.722656,178.955078,0,0
3554,2024 10 07,05:24:39.607,-0.829409,-0.53918,0.122105,0.080349,-2.694418,3.513291,0.193854,16.540527,41.320801,400.32959,0,0
3555,2024 10 07,05:24:39.615,-0.829581,-0.540064,0.13521,0.042947,-1.175329,1.889706,-1.110385,80.749512,121.21582,418.640137,0,0
3556,2024 10 07,05:24:39.623,-0.827828,-0.540966,0.148197,0.009712,0.347179,0.786645,-1.869686,68.969727,64.697266,377.624512,0,0
3557,2024 10 07,05:24:39.632,-0.825986,-0.538092,0.167285,-0.014844,0.597186,0.711936,-2.048891,-0.244141,-69.580078,354.431152,0,0
3558,2024 10 07,05:24:39.640,-0.825986,-0.538092,0.167285,-0.014844,0.597186,0.711936,-2.048891,-0.244141,-69.580078,354.431152,0,0
3559,2024 10 07,05:24:39.648,-0.824344,-0.530184,0.195698,-0.03261,-0.235847,1.141148,-0.978545,-53.344727,-178.283691,363.342285,0,0
3560,2024 10 07,05:24:39.657,-0.822192,-0.518784,0.228915,-0.049605,-0.943388,1.410199,-0.717307,-74.768066,-217.651367,392.578125,0,0
3561,2024 10 07,05:24:39.665,-0.818231,-0.505415,0.265259,-0.068484,-1.405805,1.424848,-0.365734,-71.655273,-229.919434,434.020996,0,0
3562,2024 10 07,05:24:39.673,-0.812815,-0.490337,0.300876,-0.09151,-1.546434,1.224647,-0.104007,-64.51416,-188.781738,470.88623,0,0
3563,2024 10 07,05:24:39.682,-0.806296,-0.473773,0.333963,-0.117878,-1.413129,0.932157,-0.270028,-59.570313,-157.897949,488.952637,0,0
3564,2024 10 07,05:24:39.690,-0.806296,-0.473773,0.333963,-0.117878,-1.413129,0.932157,-0.270028,-59.570313,-157.897949,488.952637,0,0
3565,2024 10 07,05:24:39.698,-0.798021,-0.456226,0.366438,-0.144024,-1.33549,0.72512,-0.212409,-61.889648,-166.015625,486.816406,0,0
3566,2024 10 07,05:24:39.707,-0.787797,-0.438065,0.399088,-0.167937,-1.420454,0.670919,-0.315439,-66.894531,-191.345215,470.703125,0,0
3567,2024 10 07,05:24:39.715,-0.775358,-0.419811,0.432421,-0.188655,-1.689505,0.606952,-0.183111,-72.509766,-221.069336,448.852539,0,0
3568,2024 10 07,05:24:39.723,-0.761197,-0.40143,0.465455,-0.206845,-1.934629,0.525407,-0.109867,-78.186035,-236.328125,431.45752,0,0
3569,2024 10 07,05:24:39.732,-0.745545,-0.382511,0.497911,-0.223457,-2.092349,0.532731,-0.029786,-80.993652,-245.422363,424.438477,0,0
3570,2024 10 07,05:24:39.740,-0.745545,-0.382511,0.497911,-0.223457,-2.092349,0.532731,-0.029786,-80.993652,-245.422363,424.438477,0,0
3571,2024 10 07,05:24:39.748,-0.727714,-0.36305,0.530603,-0.238931,-2.286691,0.677267,0.226081,-83.862305,-266.235352,426.818848,0,0
3572,2024 10 07,05:24:39.757,-0.707535,-0.343156,0.563205,-0.253847,-2.575274,0.745628,0.238777,-78.918457,-282.409668,430.419922,0,0
3573,2024 10 07,05:24:39.765,-0.684718,-0.323258,0.595632,-0.26812,-3.081637,0.757347,0.397961,-70.068359,-299.621582,431.030273,0,0
3574,2024 10 07,05:24:39.773,-0.65943,-0.304082,0.627005,-0.282046,-3.576769,0.533708,0.643574,-54.138184,-312.011719,427.55127,0,0
3575,2024 10 07,05:24:39.782,-0.632609,-0.285665,0.656173,-0.296036,-3.905393,-0.131352,0.628925,-34.423828,-307.495117,422.546387,0,0
3576,2024 10 07,05:24:39.790,-0.632609,-0.285665,0.656173,-0.296036,-3.905393,-0.131352,0.628925,-34.423828,-307.495117,422.546387,0,0
3577,2024 10 07,05:24:39.798,-0.604138,-0.26861,0.683249,-0.309898,-4.422987,-1.089877,0.743187,-12.634277,-312.072754,414.611816,0,0
3578,2024 10 07,05:24:39.807,-0.57645,-0.252714,0.706379,-0.323836,-4.655904,-2.47029,0.646992,7.751465,-271.850586,394.836426,0,0
3579,2024 10 07,05:24:39.815,-0.551754,-0.238693,0.724841,-0.33645,-4.124638,-3.991821,0.704123,14.587402,-231.506348,347.65625,0,0
3580,2024 10 07,05:24:39.823,-0.530053,-0.229178,0.740262,-0.344287,-2.829676,-4.925931,1.167028,4.882813,-231.384277,255.67627,0,0
3581,2024 10 07,05:24:39.832,-0.509149,-0.227765,0.755021,-0.344723,-1.498093,-5.456709,2.38728,-7.019043,-284.301758,134.58252,0,0
3582,2024 10 07,05:24:39.840,-0.486632,-0.234203,0.769627,-0.340606,-2.446364,-6.486526,3.101657,3.051758,-349.975586,65.795898,0,0
3583,2024 10 07,05:24:39.848,-0.486632,-0.234203,0.769627,-0.340606,-2.446364,-6.486526,3.101657,3.051758,-349.975586,65.795898,0,0
3584,2024 10 07,05:24:39.857,-0.466088,-0.242708,0.782479,-0.334038,-4.115848,-6.248726,3.447371,9.338379,-299.377441,31.982422,0,0
3585,2024 10 07,05:24:39.865,-0.459027,-0.248965,0.786204,-0.330443,-3.586047,-6.623737,3.353618,10.864258,-81.176758,-12.878418,0,0
3586,2024 10 07,05:24:39.873,-0.466318,-0.252187,0.782518,-0.32652,-2.015687,-5.350261,1.985412,-28.930664,62.133789,-65.734863,0,0
3587,2024 10 07,05:24:39.882,-0.475734,-0.256165,0.778753,-0.318748,-5.005524,-2.362865,-0.805689,-60.913086,51.147461,-104.858398,0,0
3588,2024 10 07,05:24:39.890,-0.498993,-0.266812,0.771352,-0.291263,-0.783227,-3.902463,-2.655354,30.578613,363.952637,-379.455566,0,0
3589,2024 10 07,05:24:39.898,-0.498993,-0.266812,0.771352,-0.291263,-0.783227,-3.902463,-2.655354,30.578613,363.952637,-379.455566,0,0
3590,2024 10 07,05:24:39.907,-0.558182,-0.264511,0.741029,-0.263329,2.061586,7.519761,-4.244759,-202.331543,523.193359,-449.768066,1,0
3591,2024 10 07,05:24:39.915,-0.564243,-0.291055,0.72953,-0.254368,-3.593371,0.159184,4.829248,89.904785,-22.644043,-370.300293,0,0
3592,2024 10 07,05:24:39.923,-0.59162,-0.308264,0.701997,-0.249317,-1.17484,-0.642109,0.254402,100.891113,345.458984,-323.608398,0,0
3593,2024 10 07,05:24:39.932,-0.608461,-0.320981,0.682556,-0.246706,-2.596271,-0.870144,0.933134,3.601074,211.914063,-212.82959,0,0
3594,2024 10 07,05:24:39.940,-0.628299,-0.324124,0.661246,-0.250874,-1.474654,0.025391,-0.439467,68.54248,326.904297,-100.158691,0,0
3595,2024 10 07,05:24:39.948,-0.628299,-0.324124,0.661246,-0.250874,-1.474654,0.025391,-0.439467,68.54248,326.904297,-100.158691,0,0
3596,2024 10 07,05:24:39.957,-0.640149,-0.328546,0.642799,-0.262823,-0.669454,-0.197272,-0.508316,156.738281,215.209961,-35.522461,0,0
3597,2024 10 07,05:24:39.965,-0.644118,-0.334079,0.63157,-0.273172,-0.817408,-0.253914,0.713401,114.807129,126.77002,-17.150879,0,0
3598,2024 10 07,05:24:39.973,-0.649912,-0.336141,0.620601,-0.28192,-0.890652,-0.322764,-0.315439,81.359863,151.428223,-5.615234,0,0
3599,2024 10 07,05:24:39.982,-0.654242,-0.337037,0.612151,-0.289214,-1.179235,-0.110355,-0.327158,75.195313,108.825684,6.164551,0,0
3600,2024 10 07,05:24:39.990,-0.657731,-0.337708,0.604756,-0.295995,-0.823756,-0.051759,0.578631,55.175781,107.971191,4.089355,0,0
3601,2024 10 07,05:24:39.998,-0.657731,-0.337708,0.604756,-0.295995,-0.823756,-0.051759,0.578631,55.175781,107.971191,4.089355,0,0
3602,2024 10 07,05:24:40.007,-0.661732,-0.337487,0.597887,-0.301237,-0.751976,-0.043947,-0.08594,40.893555,87.82959,0.305176,0,0
3603,2024 10 07,05:24:40.015,-0.663026,-0.337983,0.594723,-0.304086,-1.010285,-0.006836,0.126469,25.756836,31.738281,1.342773,0,0
3604,2024 10 07,05:24:40.023,-0.664218,-0.338374,0.591964,-0.306424,-1.050813,0.027345,0.329112,25.45166,42.175293,-1.220703,0,0
3605,2024 10 07,05:24:40.032,-0.666038,-0.338576,0.58858,-0.308761,-0.946318,0.035646,-0.079104,20.996094,39.855957,-5.67627,0,0
3606,2024 10 07,05:24:40.040,-0.666824,-0.33943,0.586917,-0.309293,-1.097201,0.106449,0.075686,9.521484,13.305664,-14.221191,0,0
3607,2024 10 07,05:24:40.048,-0.666824,-0.33943,0.586917,-0.309293,-1.097201,0.106449,0.075686,9.521484,13.305664,-14.221191,0,0
3608,2024 10 07,05:24:40.057,-0.667835,-0.340663,0.585061,-0.30927,-1.222205,0.082522,-0.067873,14.221191,19.470215,-22.460938,0,0
3609,2024 10 07,05:24:40.065,-0.669674,-0.342013,0.58224,-0.30913,-1.213904,0.006348,-0.129887,9.70459,33.325195,-30.639648,0,0
3610,2024 10 07,05:24:40.073,-0.672482,-0.342939,0.578702,-0.308649,-1.013703,-0.015137,-0.003418,4.455566,43.823242,-34.912109,0,0
3611,2024 10 07,05:24:40.082,-0.675314,-0.343736,0.575164,-0.308193,-0.923856,0.012696,0.101566,4.577637,40.283203,-32.470703,0,0
3612,2024 10 07,05:24:40.090,-0.677598,-0.344804,0.571967,-0.307936,-0.978545,0.055666,0.132817,12.268066,33.325195,-30.029297,0,0
3613,2024 10 07,05:24:40.098,-0.677598,-0.344804,0.571967,-0.307936,-0.978545,0.055666,0.132817,12.268066,33.325195,-30.029297,0,0
3614,2024 10 07,05:24:40.107,-0.67944,-0.346464,0.568831,-0.307822,-0.993194,0.035646,0.144047,15.625,28.808594,-32.958984,0,0
3615,2024 10 07,05:24:40.115,-0.680951,-0.348608,0.565958,-0.307361,-1.034211,0.018067,0.109378,19.714355,20.874023,-35.766602,0,0
3616,2024 10 07,05:24:40.123,-0.682218,-0.351147,0.563201,-0.306723,-1.039094,0.036134,0.187506,20.996094,17.51709,-38.818359,0,0
3617,2024 10 07,05:24:40.132,-0.683323,-0.35409,0.560386,-0.306035,-1.106479,-0.022462,0.093265,25.024414,15.319824,-40.95459,0,0
3618,2024 10 07,05:24:40.140,-0.684535,-0.357011,0.557731,-0.304781,-1.175817,0.042482,0.184576,17.76123,13.305664,-45.471191,0,0
3619,2024 10 07,05:24:40.148,-0.684535,-0.357011,0.557731,-0.304781,-1.175817,0.042482,0.184576,17.76123,13.305664,-45.471191,0,0
3620,2024 10 07,05:24:40.157,-0.686196,-0.359936,0.554615,-0.303288,-1.108432,-0.116703,0.196783,17.211914,21.850586,-52.001953,0,0
3621,2024 10 07,05:24:40.165,-0.688497,-0.362721,0.551238,-0.300902,-1.153844,-0.065432,-0.011231,6.713867,19.40918,-60.791016,0,0
3622,2024 10 07,05:24:40.173,-0.690926,-0.365522,0.548202,-0.297472,-1.175329,-0.066408,0.187506,-2.01416,16.052246,-68.359375,0,0
3623,2024 10 07,05:24:40.182,-0.694015,-0.368041,0.544805,-0.293389,-1.038606,-0.075686,0.143559,-7.995605,21.728516,-75.073242,0,0
3624,2024 10 07,05:24:40.190,-0.69714,-0.370621,0.541791,-0.288267,-1.152867,-0.063967,0.061037,-17.089844,9.216309,-83.435059,0,0
3625,2024 10 07,05:24:40.198,-0.69714,-0.370621,0.541791,-0.288267,-1.152867,-0.063967,0.061037,-17.089844,9.216309,-83.435059,0,0
3626,2024 10 07,05:24:40.207,-0.700356,-0.373259,0.539192,-0.281872,-1.225135,-0.071291,0.117679,-26.306152,6.04248,-92.529297,0,0
3627,2024 10 07,05:24:40.215,-0.704401,-0.375509,0.536086,-0.274633,-1.237831,-0.015137,0.167486,-36.315918,13.61084,-102.294922,0,0
3628,2024 10 07,05:24:40.223,-0.709069,-0.377743,0.532355,-0.266701,-1.32963,0.053713,0.250008,-40.161133,19.836426,-113.098145,0,0
3629,2024 10 07,05:24:40.232,-0.713882,-0.3807,0.528135,-0.257903,-1.496139,0.019044,0.091311,-36.315918,13.793945,-129.02832,0,0
3630,2024 10 07,05:24:40.240,-0.718701,-0.384694,0.52361,-0.247613,-1.868709,0.116214,0.203131,-36.132813,10.803223,-150.57373,0,0
3631,2024 10 07,05:24:40.248,-0.718701,-0.384694,0.52361,-0.247613,-1.868709,0.116214,0.203131,-36.132813,10.803223,-150.57373,0,0
3632,2024 10 07,05:24:40.257,-0.724567,-0.389685,0.516763,-0.236862,-2.045473,0.136235,0.019044,-28.381348,39.367676,-175.964355,0,0
3633,2024 10 07,05:24:40.265,-0.73115,-0.396403,0.507293,-0.225692,-2.112369,0.318369,0.23487,-7.568359,52.978516,-204.162598,0,0
3634,2024 10 07,05:24:40.273,-0.738058,-0.405326,0.495533,-0.213138,-2.480056,0.586932,0.437513,2.807617,63.598633,-246.520996,0,0
3635,2024 10 07,05:24:40.282,-0.745789,-0.416905,0.480012,-0.198938,-3.063082,0.694357,0.129398,25.695801,87.70752,-300.598145,0,0
3636,2024 10 07,05:24:40.290,-0.754443,-0.430971,0.46065,-0.18133,-3.717887,0.61037,-0.263192,24.780273,105.651855,-369.018555,0,0
3637,2024 10 07,05:24:40.298,-0.764857,-0.44716,0.435168,-0.160221,-4.509903,0.797388,-0.603534,36.865234,157.348633,-450.683594,0,0
3638,2024 10 07,05:24:40.307,-0.764857,-0.44716,0.435168,-0.160221,-4.509903,0.797388,-0.603534,36.865234,157.348633,-450.683594,0,0
3639,2024 10 07,05:24:40.315,-0.776942,-0.465027,0.402253,-0.135291,-5.262368,0.560076,-0.67922,29.724121,210.388184,-539.733887,0,0
3640,2024 10 07,05:24:40.323,-0.789893,-0.484059,0.360922,-0.107194,-5.735038,0.075198,-0.753441,33.02002,276.672363,-616.455078,0,0
3641,2024 10 07,05:24:40.332,-0.802075,-0.502174,0.313987,-0.076861,-5.641774,-0.058596,-0.775414,23.498535,300.65918,-654.663086,0,0
3642,2024 10 07,05:24:40.340,-0.812998,-0.516784,0.264465,-0.045006,-4.633931,1.078646,-0.649434,-13.366699,307.922363,-666.320801,0,1
3643,2024 10 07,05:24:40.348,-0.820882,-0.528291,0.216576,-0.012485,-5.123692,2.127995,-0.90286,-6.164551,273.376465,-640.869141,0,0
3644,2024 10 07,05:24:40.357,-0.820882,-0.528291,0.216576,-0.012485,-5.123692,2.127995,-0.90286,-6.164551,273.376465,-640.869141,0,0
3645,2024 10 07,05:24:40.365,-0.824938,-0.538206,0.171819,0.016994,-3.781854,2.606037,-1.018586,4.699707,257.141113,-584.655762,0,0
3646,2024 10 07,05:24:40.373,-0.828012,-0.543809,0.130219,0.041375,1.273477,3.204688,-2.443922,-43.029785,258.422852,-487.548828,0,0
3647,2024 10 07,05:24:40.382,-0.831199,-0.543833,0.100939,0.056263,3.947386,2.740318,-6.721396,-71.899414,143.188477,-236.022949,0,0
3648,2024 10 07,05:24:40.390,-0.83875,-0.528074,0.113889,0.068308,-1.482467,4.809717,1.689016,-288.452148,-293.029785,80.13916,0,0
3649,2024 10 07,05:24:40.398,-0.84526,-0.514374,0.1338,0.055247,-2.49031,4.006958,0.084475,-76.538086,-10.803223,286.987305,0,0
3650,2024 10 07,05:24:40.407,-0.84526,-0.514374,0.1338,0.055247,-2.49031,4.006958,0.084475,-76.538086,-10.803223,286.987305,0,0
3651,2024 10 07,05:24:40.415,-0.847778,-0.509788,0.143341,0.028995,-1.515183,2.556719,-1.129917,41.259766,47.973633,308.532715,0,0
3652,2024 10 07,05:24:40.423,-0.845376,-0.511097,0.155226,0.004983,0.26075,1.496628,-1.286172,77.270508,37.719727,287.719727,0,0
3653,2024 10 07,05:24:40.432,-0.841219,-0.512799,0.17056,-0.017249,0.638691,1.407269,-2.060122,69.763184,-66.772461,310.36377,0,0
3654,2024 10 07,05:24:40.440,-0.835674,-0.511495,0.196609,-0.036958,-0.347667,1.520554,-1.063997,42.602539,-152.893066,359.49707,0,0
3655,2024 10 07,05:24:40.448,-0.829104,-0.507061,0.228031,-0.058971,-1.023957,1.486373,-0.953642,26.428223,-193.664551,416.870117,0,0
3656,2024 10 07,05:24:40.457,-0.829104,-0.507061,0.228031,-0.058971,-1.023957,1.486373,-0.953642,26.428223,-193.664551,416.870117,0,0
3657,2024 10 07,05:24:40.465,-0.820807,-0.499895,0.263394,-0.083692,-1.472213,1.251015,-0.592792,17.822266,-203.24707,468.322754,0,0
3658,2024 10 07,05:24:40.473,-0.811534,-0.489594,0.298761,-0.111586,-1.544969,0.988311,-0.577654,1.831055,-181.152344,503.112793,0,0
3659,2024 10 07,05:24:40.482,-0.801315,-0.47641,0.333494,-0.140392,-1.575243,0.726096,-0.425794,-16.357422,-173.950195,512.939453,0,0
3660,2024 10 07,05:24:40.490,-0.79014,-0.461027,0.367504,-0.167551,-1.691458,0.534684,-0.404309,-36.621094,-180.480957,499.450684,0,0
3661,2024 10 07,05:24:40.498,-0.777863,-0.444045,0.401211,-0.19179,-1.762749,0.46437,-0.298837,-57.556152,-195.678711,481.323242,0,0
3662,2024 10 07,05:24:40.507,-0.777863,-0.444045,0.401211,-0.19179,-1.762749,0.46437,-0.298837,-57.556152,-195.678711,481.323242,0,0
3663,2024 10 07,05:24:40.515,-0.764469,-0.425204,0.434824,-0.213812,-1.860408,0.552263,-0.297861,-77.575684,-206.298828,475.830078,0,0
3664,2024 10 07,05:24:40.523,-0.749495,-0.404502,0.468833,-0.234158,-2.092349,0.614765,-0.130375,-93.994141,-223.449707,477.233887,0,0
3665,2024 10 07,05:24:40.532,-0.732525,-0.382286,0.503242,-0.253006,-2.368725,0.667501,-0.035157,-105.834961,-241.516113,479.858398,0,0
3666,2024 10 07,05:24:40.540,-0.713286,-0.359119,0.537732,-0.27037,-2.717856,0.720725,0.083987,-109.924316,-259.033203,478.393555,0,0
3667,2024 10 07,05:24:40.548,-0.691828,-0.335929,0.571593,-0.286018,-3.108982,0.636738,0.138188,-108.520508,-275.390625,466.552734,0,0
3668,2024 10 07,05:24:40.557,-0.691828,-0.335929,0.571593,-0.286018,-3.108982,0.636738,0.138188,-108.520508,-275.390625,466.552734,0,0
3669,2024 10 07,05:24:40.565,-0.668603,-0.313293,0.604315,-0.299369,-3.45323,0.393567,0.169927,-110.595703,-287.963867,445.556641,0,0
3670,2024 10 07,05:24:40.573,-0.643962,-0.291627,0.635867,-0.309743,-3.771111,-0.074709,0.158208,-115.17334,-306.57959,418.151855,0,0
3671,2024 10 07,05:24:40.582,-0.617792,-0.271945,0.666301,-0.316894,-4.212531,-0.685079,0.57033,-112.609863,-326.721191,383.544922,0,0
3672,2024 10 07,05:24:40.590,-0.591529,-0.255088,0.693788,-0.321998,-4.572405,-1.524949,0.974151,-92.346191,-319.702148,343.078613,0,0
3673,2024 10 07,05:24:40.598,-0.567479,-0.24075,0.716396,-0.326778,-4.310678,-2.371166,1.397992,-64.331055,-271.484375,305.053711,0,0
3674,2024 10 07,05:24:40.607,-0.567479,-0.24075,0.716396,-0.326778,-4.310678,-2.371166,1.397992,-64.331055,-271.484375,305.053711,0,0
3675,2024 10 07,05:24:40.615,-0.54657,-0.229152,0.733964,-0.331736,-3.169042,-3.257424,1.610889,-35.949707,-234.069824,260.253906,0,0
3676,2024 10 07,05:24:40.623,-0.526163,-0.22276,0.749348,-0.334677,-1.860897,-4.042604,2.294015,-15.50293,-255.92041,192.504883,0,0
3677,2024 10 07,05:24:40.632,-0.503902,-0.224546,0.764129,-0.334317,-2.029847,-5.551439,3.242775,20.690918,-323.913574,110.412598,0,0
3678,2024 10 07,05:24:40.640,-0.48229,-0.232133,0.777156,-0.330966,-3.452254,-6.172063,3.52794,22.094727,-309.570313,49.194336,0,0
3679,2024 10 07,05:24:40.648,-0.4684,-0.240457,0.78427,-0.32818,-3.938597,-6.360546,3.674428,36.010742,-184.265137,8.850098,0,0
3680,2024 10 07,05:24:40.657,-0.4684,-0.240457,0.78427,-0.32818,-3.938597,-6.360546,3.674428,36.010742,-184.265137,8.850098,0,0
3681,2024 10 07,05:24:40.665,-0.469454,-0.24507,0.782384,-0.327763,-2.523026,-5.957213,2.680746,27.46582,24.597168,-26.184082,0,0
3682,2024 10 07,05:24:40.673,-0.477527,-0.248838,0.777118,-0.325783,-1.932676,-4.650533,2.026429,-1.464844,64.758301,-69.702148,0,0
3683,2024 10 07,05:24:40.682,-0.48357,-0.256715,0.782372,-0.296902,-8.080325,3.054781,16.0,-461.791992,-227.905273,-333.496094,0,0
3684,2024 10 07,05:24:40.690,-0.539377,-0.259241,0.750137,-0.281351,-1.303751,2.332102,-5.237465,-501.647949,712.95166,-413.391113,1,0
3685,2024 10 07,05:24:40.698,-0.560896,-0.277675,0.731155,-0.271487,-1.627003,-0.463881,0.817408,175.231934,24.169922,-309.631348,0,0
3686,2024 10 07,05:24:40.707,-0.560896,-0.277675,0.731155,-0.271487,-1.627003,-0.463881,0.817408,175.231934,24.169922,-309.631348,0,0
3687,2024 10 07,05:24:40.715,-0.575852,-0.299439,0.714441,-0.261351,-2.061586,-0.101077,1.896542,19.226074,256.774902,-342.041016,0,0
3688,2024 10 07,05:24:40.723,-0.591108,-0.316844,0.694807,-0.259701,-2.109928,-1.601123,1.092807,105.407715,124.633789,-231.689453,0,0
3689,2024 10 07,05:24:40.732,-0.606674,-0.322676,0.680303,-0.254979,-1.633351,-0.401379,0.511734,-28.320313,220.153809,-146.54541,0,0
3690,2024 10 07,05:24:40.740,-0.619697,-0.325067,0.666634,-0.25672,-0.89993,0.186529,-0.834498,37.414551,160.888672,-81.90918,0,0
3691,2024 10 07,05:24:40.748,-0.622391,-0.330687,0.659814,-0.260617,-1.337443,-0.356456,0.304697,90.026855,55.603027,-38.085938,0,0
3692,2024 10 07,05:24:40.757,-0.626376,-0.333668,0.652223,-0.266317,-0.959502,-0.083987,0.096194,65.246582,109.558105,-17.39502,0,0
3693,2024 10 07,05:24:40.765,-0.626376,-0.333668,0.652223,-0.266317,-0.959502,-0.083987,0.096194,65.246582,109.558105,-17.39502,0,0
3694,2024 10 07,05:24:40.773,-0.631587,-0.334685,0.644333,-0.271881,-0.997101,-0.140629,-0.721213,47.912598,107.788086,-13.183594,0,0
3695,2024 10 07,05:24:40.782,-0.635314,-0.335315,0.638419,-0.276336,-1.182165,-0.015625,-0.003418,43.457031,87.646484,-3.967285,0,0
3696,2024 10 07,05:24:40.790,-0.639763,-0.33525,0.63117,-0.282728,-1.040559,-0.111332,-0.015625,53.283691,116.760254,6.835938,0,0
3697,2024 10 07,05:24:40.798,-0.643883,-0.33466,0.624816,-0.288136,-0.736351,-0.041993,0.156255,36.499023,86.364746,5.79834,0,0
3698,2024 10 07,05:24:40.807,-0.645864,-0.334541,0.621317,-0.291389,-0.951689,0.04004,0.056642,24.597168,43.579102,4.394531,0,0
3699,2024 10 07,05:24:40.815,-0.645864,-0.334541,0.621317,-0.291389,-0.951689,0.04004,0.056642,24.597168,43.579102,4.394531,0,0
3700,2024 10 07,05:24:40.823,-0.647113,-0.33475,0.618756,-0.293816,-1.096225,0.119633,0.116703,21.789551,36.621094,0.366211,0,0
3701,2024 10 07,05:24:40.832,-0.648662,-0.335335,0.615675,-0.296196,-1.060091,0.08594,-0.025391,26.977539,40.527344,-6.713867,0,0
3702,2024 10 07,05:24:40.840,-0.650234,-0.336523,0.612641,-0.297688,-1.132847,0.130863,-0.103519,23.193359,34.484863,-17.76123,0,0
3703,2024 10 07,05:24:40.848,-0.652097,-0.338237,0.60923,-0.29867,-1.22074,0.154302,-0.141118,23.803711,40.405273,-28.320313,0,0
3704,2024 10 07,05:24:40.857,-0.655001,-0.34015,0.604296,-0.300162,-1.165563,0.00293,-0.141606,32.348633,62.866211,-33.38623,0,0
3705,2024 10 07,05:24:40.865,-0.655001,-0.34015,0.604296,-0.300162,-1.165563,0.00293,-0.141606,32.348633,62.866211,-33.38623,0,0
3706,2024 10 07,05:24:40.873,-0.658716,-0.341905,0.598573,-0.301505,-1.090854,0.075198,-0.145024,25.390625,68.603516,-39.855957,0,0
3707,2024 10 07,05:24:40.882,-0.662443,-0.344043,0.592553,-0.302796,-1.117222,0.052248,-0.000488,35.644531,72.143555,-42.114258,0,0
3708,2024 10 07,05:24:40.890,-0.666436,-0.346395,0.585275,-0.305493,-0.928251,-0.187506,0.107913,50.537109,88.623047,-35.888672,0,0
3709,2024 10 07,05:24:40.898,-0.670351,-0.3481,0.578703,-0.307504,-0.661641,0.056154,0.285165,25.817871,69.885254,-36.315918,0,0
3710,2024 10 07,05:24:40.907,-0.672236,-0.350698,0.574442,-0.308425,-1.015656,-0.087405,0.066897,37.841797,31.677246,-33.813477,0,0
3711,2024 10 07,05:24:40.915,-0.672236,-0.350698,0.574442,-0.308425,-1.015656,-0.087405,0.066897,37.841797,31.677246,-33.813477,0,0
3712,2024 10 07,05:24:40.923,-0.673743,-0.353497,0.57092,-0.30848,-1.153355,0.058107,0.029298,27.099609,26.794434,-39.0625,0,0
3713,2024 10 07,05:24:40.932,-0.675203,-0.356679,0.567195,-0.308498,-1.11185,-0.066408,0.110355,31.616211,28.991699,-42.297363,0,0
3714,2024 10 07,05:24:40.940,-0.677118,-0.359526,0.563377,-0.307992,-1.039094,-0.001465,0.17188,24.414063,28.564453,-46.142578,0,0
3715,2024 10 07,05:24:40.948,-0.678836,-0.362532,0.560178,-0.306517,-1.150426,-0.155278,0.130375,15.625,16.784668,-52.91748,0,0
3716,2024 10 07,05:24:40.957,-0.681559,-0.36482,0.556922,-0.30368,-1.089389,-0.074221,0.062014,-5.432129,25.634766,-61.279297,0,0
3717,2024 10 07,05:24:40.965,-0.681559,-0.36482,0.556922,-0.30368,-1.089389,-0.074221,0.062014,-5.432129,25.634766,-61.279297,0,0
3718,2024 10 07,05:24:40.973,-0.684744,-0.366652,0.553741,-0.300103,-1.059114,-0.123051,0.059572,-14.648438,22.399902,-66.223145,0,0
3719,2024 10 07,05:24:40.982,-0.688148,-0.368104,0.551178,-0.295219,-1.118198,-0.052248,0.152348,-26.428223,14.892578,-72.143555,0,0
3720,2024 10 07,05:24:40.990,-0.691808,-0.369463,0.548789,-0.289359,-1.186071,-0.033204,0.143559,-36.682129,12.207031,-80.627441,0,0
3721,2024 10 07,05:24:40.998,-0.695725,-0.371001,0.546361,-0.282516,-1.258339,0.08594,0.205573,-38.94043,7.629395,-91.308594,0,0
3722,2024 10 07,05:24:41.007,-0.699532,-0.373438,0.543792,-0.274752,-1.444868,0.126469,0.347179,-35.888672,3.051758,-106.628418,0,0
3723,2024 10 07,05:24:41.015,-0.699532,-0.373438,0.543792,-0.274752,-1.444868,0.126469,0.347179,-35.888672,3.051758,-106.628418,0,0
3724,2024 10 07,05:24:41.023,-0.703945,-0.376807,0.539946,-0.26634,-1.723685,0.165044,0.181158,-30.517578,13.916016,-127.01416,0,0
3725,2024 10 07,05:24:41.032,-0.708688,-0.381752,0.534786,-0.256963,-1.926328,0.110843,0.073244,-20.751953,16.113281,-153.076172,0,0
3726,2024 10 07,05:24:41.040,-0.714118,-0.388148,0.527836,-0.246508,-1.964415,0.172857,0.086428,-12.207031,31.066895,-180.847168,0,0
3727,2024 10 07,05:24:41.048,-0.720508,-0.39597,0.518189,-0.235704,-2.14362,0.417982,0.253914,2.01416,51.940918,-209.289551,0,0
3728,2024 10 07,05:24:41.057,-0.726833,-0.406655,0.506489,-0.223192,-2.77987,0.506363,0.256355,20.874023,48.339844,-256.530762,0,0
3729,2024 10 07,05:24:41.065,-0.726833,-0.406655,0.506489,-0.223192,-2.77987,0.506363,0.256355,20.874023,48.339844,-256.530762,0,0
3730,2024 10 07,05:24:41.073,-0.734853,-0.419162,0.491059,-0.207741,-3.312601,0.550798,-0.147954,14.099121,86.303711,-318.908691,0,0
3731,2024 10 07,05:24:41.082,-0.745379,-0.433281,0.469967,-0.189231,-3.969848,0.771996,-0.567888,14.831543,125.244141,-392.089844,0,0
3732,2024 10 07,05:24:41.090,-0.756919,-0.450253,0.443535,-0.166196,-4.88638,1.086459,-0.333018,23.681641,153.991699,-482.788086,0,0
3733,2024 10 07,05:24:41.098,-0.770066,-0.469559,0.408654,-0.139694,-5.312174,0.787133,-0.434584,31.982422,219.665527,-576.782227,0,0
3734,2024 10 07,05:24:41.107,-0.783351,-0.490104,0.366088,-0.110171,-5.377117,0.047365,-0.705588,40.649414,261.291504,-642.089844,0,0
3735,2024 10 07,05:24:41.115,-0.783351,-0.490104,0.366088,-0.110171,-5.377117,0.047365,-0.705588,40.649414,261.291504,-642.089844,0,0
3736,2024 10 07,05:24:41.123,-0.794964,-0.509484,0.319925,-0.078138,-5.492844,0.02295,-0.664083,24.780273,273.498535,-669.006348,0,0
3737,2024 10 07,05:24:41.132,-0.805843,-0.524322,0.27144,-0.04498,-4.962066,1.409223,-0.911161,-19.165039,284.362793,-674.682617,0,1
3738,2024 10 07,05:24:41.140,-0.813428,-0.536475,0.22448,-0.011713,-4.881008,2.08063,-1.387249,-6.408691,253.295898,-650.390625,0,0
3739,2024 10 07,05:24:41.148,-0.817755,-0.546331,0.179858,0.021221,-3.295511,2.56209,-1.782281,-15.136719,224.54834,-627.807617,0,0
3740,2024 10 07,05:24:41.157,-0.820166,-0.551985,0.139974,0.055205,0.499527,3.053804,-2.628986,-64.147949,154.174805,-580.810547,0,0
3741,2024 10 07,05:24:41.165,-0.820166,-0.551985,0.139974,0.055205,0.499527,3.053804,-2.628986,-64.147949,154.174805,-580.810547,0,0
3742,2024 10 07,05:24:41.173,-0.821609,-0.551974,0.11299,0.086692,2.987396,3.090915,-3.561632,-99.54834,17.578125,-413.696289,0,0
3743,2024 10 07,05:24:41.182,-0.82618,-0.541484,0.113566,0.106416,0.042482,4.493301,0.352062,-174.438477,-187.5,-54.992676,0,0
3744,2024 10 07,05:24:41.190,-0.83035,-0.533625,0.129235,0.095195,-1.83697,4.190069,0.304697,-9.82666,-9.70459,289.611816,0,0
3745,2024 10 07,05:24:41.198,-0.830969,-0.533859,0.144076,0.061042,-1.766167,2.698813,-1.250526,101.745605,60.36377,426.086426,0,0
3746,2024 10 07,05:24:41.207,-0.827776,-0.536864,0.16099,0.025403,-0.5674,1.534227,-1.075228,119.140625,72.814941,419.433594,0,0
3747,2024 10 07,05:24:41.215,-0.823979,-0.538102,0.177417,-0.005331,0.728538,0.560076,-2.564043,75.073242,-9.338379,376.831055,0,0
3748,2024 10 07,05:24:41.223,-0.823979,-0.538102,0.177417,-0.005331,0.728538,0.560076,-2.564043,75.073242,-9.338379,376.831055,0,0
3749,2024 10 07,05:24:41.232,-0.820406,-0.53362,0.203814,-0.025345,0.455092,0.762719,-1.523484,-11.413574,-160.15625,362.792969,0,0
3750,2024 10 07,05:24:41.240,-0.817523,-0.523143,0.237405,-0.040211,-0.345225,1.251015,-1.224647,-75.744629,-249.145508,374.267578,0,0
3751,2024 10 07,05:24:41.248,-0.812636,-0.509274,0.278407,-0.052458,-1.332072,1.526902,-0.683126,-89.782715,-331.542969,402.587891,0,0
3752,2024 10 07,05:24:41.257,-0.805938,-0.492994,0.320759,-0.067341,-1.871639,1.529344,0.116703,-87.890625,-297.912598,441.52832,0,0
3753,2024 10 07,05:24:41.265,-0.79922,-0.474444,0.358089,-0.089007,-1.850154,1.297891,-0.135746,-76.782227,-211.975098,481.811523,0,0
3754,2024 10 07,05:24:41.273,-0.79922,-0.474444,0.358089,-0.089007,-1.850154,1.297891,-0.135746,-76.782227,-211.975098,481.811523,0,0
3755,2024 10 07,05:24:41.282,-0.791506,-0.454372,0.392337,-0.114607,-1.766655,0.934111,0.033204,-68.664551,-173.950195,503.90625,0,0
3756,2024 10 07,05:24:41.290,-0.783051,-0.43292,0.423721,-0.140967,-1.483444,0.605487,-0.206061,-74.157715,-152.587891,498.046875,0,0
3757,2024 10 07,05:24:41.298,-0.772594,-0.411197,0.455109,-0.163985,-1.483932,0.405286,-0.282723,-85.327148,-193.17627,470.703125,0,0
3758,2024 10 07,05:24:41.307,-0.759651,-0.389691,0.48772,-0.18221,-1.763237,0.417982,-0.136723,-99.121094,-236.38916,438.049316,0,0
3759,2024 10 07,05:24:41.315,-0.744356,-0.368606,0.520879,-0.196849,-2.157781,0.442396,-0.017579,-102.294922,-271.728516,414.428711,0,0
3760,2024 10 07,05:24:41.323,-0.744356,-0.368606,0.520879,-0.196849,-2.157781,0.442396,-0.017579,-102.294922,-271.728516,414.428711,0,0
3761,2024 10 07,05:24:41.332,-0.72668,-0.347669,0.554115,-0.209806,-2.596271,0.690451,0.271004,-98.266602,-287.109375,409.118652,0,0
3762,2024 10 07,05:24:41.340,-0.70739,-0.326393,0.585905,-0.22312,-2.866298,0.808618,0.255379,-87.95166,-282.897949,413.269043,0,0
3763,2024 10 07,05:24:41.348,-0.685903,-0.304921,0.616838,-0.236793,-3.149998,0.746605,0.325205,-77.087402,-292.358398,420.227051,0,0
3764,2024 10 07,05:24:41.357,-0.661555,-0.283868,0.647291,-0.250554,-3.532823,0.378918,0.467299,-62.255859,-313.293457,425.048828,0,0
3765,2024 10 07,05:24:41.365,-0.635082,-0.263402,0.676337,-0.264308,-3.846797,-0.419935,0.611347,-45.837402,-316.589355,424.499512,0,0
3766,2024 10 07,05:24:41.373,-0.635082,-0.263402,0.676337,-0.264308,-3.846797,-0.419935,0.611347,-45.837402,-316.589355,424.499512,0,0
3767,2024 10 07,05:24:41.382,-0.607097,-0.244202,0.703285,-0.277829,-4.329722,-1.518113,0.794946,-26.977539,-317.871094,414.855957,0,0
3768,2024 10 07,05:24:41.390,-0.57995,-0.226845,0.726289,-0.291038,-4.721335,-3.00058,0.838893,-6.164551,-284.118652,386.71875,0,0
3769,2024 10 07,05:24:41.398,-0.55612,-0.212539,0.74439,-0.302391,-4.488906,-4.391736,1.314005,5.371094,-240.234375,325.500488,0,0
3770,2024 10 07,05:24:41.407,-0.535967,-0.203976,0.758409,-0.309757,-2.967864,-5.051912,2.336985,15.258789,-226.379395,226.196289,0,0
3771,2024 10 07,05:24:41.415,-0.517034,-0.204188,0.770033,-0.3131,-1.900449,-5.95526,3.564562,46.325684,-252.868652,116.149902,0,0
3772,2024 10 07,05:24:41.423,-0.517034,-0.204188,0.770033,-0.3131,-1.900449,-5.95526,3.564562,46.325684,-252.868652,116.149902,0,0
3773,2024 10 07,05:24:41.432,-0.498472,-0.212759,0.779123,-0.315003,-2.850185,-7.038301,3.827754,84.228516,-270.141602,41.503906,0,0
3774,2024 10 07,05:24:41.440,-0.485265,-0.224595,0.784147,-0.314941,-3.796503,-7.164281,3.588,95.092773,-181.57959,-20.874023,0,0
3775,2024 10 07,05:24:41.448,-0.485309,-0.234612,0.781195,-0.314908,-3.69396,-6.430372,1.824763,63.598633,2.563477,-69.152832,0,0
3776,2024 10 07,05:24:41.457,-0.500547,-0.25374,0.772503,-0.297166,-2.227119,-8.404553,2.533769,177.429199,198.791504,-392.211914,0,0
3777,2024 10 07,05:24:41.465,-0.562685,-0.250783,0.740062,-0.269816,1.044954,6.348338,-4.242317,-326.660156,642.456055,-422.058105,1,0
3778,2024 10 07,05:24:41.473,-0.562685,-0.250783,0.740062,-0.269816,1.044954,6.348338,-4.242317,-326.660156,642.456055,-422.058105,0,0
3779,2024 10 07,05:24:41.482,-0.571557,-0.274453,0.726531,-0.264859,-3.415632,1.087436,5.382977,94.543457,-31.860352,-315.246582,0,0
3780,2024 10 07,05:24:41.490,-0.593795,-0.290765,0.705589,-0.254963,-1.049348,-0.349132,0.688498,25.939941,270.507813,-324.035645,0,0
3781,2024 10 07,05:24:41.498,-0.604614,-0.308379,0.690993,-0.248742,-2.314035,-1.102084,1.515671,45.288086,79.040527,-242.126465,0,0
3782,2024 10 07,05:24:41.507,-0.620577,-0.312852,0.67691,-0.242488,-1.563524,-0.456557,-0.261727,-32.775879,207.092285,-144.226074,0,0
3783,2024 10 07,05:24:41.515,-0.632127,-0.315707,0.664225,-0.244026,-1.096225,0.340342,-0.437513,49.499512,159.912109,-73.303223,0,0
3784,2024 10 07,05:24:41.523,-0.632127,-0.315707,0.664225,-0.244026,-1.096225,0.340342,-0.437513,49.499512,159.912109,-73.303223,0,0
3785,2024 10 07,05:24:41.532,-0.63612,-0.32143,0.654683,-0.25184,-1.212439,-0.474136,0.172857,115.783691,105.895996,-22.705078,0,0
3786,2024 10 07,05:24:41.540,-0.641731,-0.323678,0.64539,-0.258623,-0.928251,-0.104984,-0.001953,63.720703,133.544922,-15.50293,0,0
3787,2024 10 07,05:24:41.548,-0.647302,-0.324348,0.636979,-0.264682,-1.144078,-0.02002,-0.682638,53.283691,117.004395,-5.310059,0,0
3788,2024 10 07,05:24:41.557,-0.650957,-0.325399,0.629713,-0.27172,-1.224158,-0.030274,0.152837,73.486328,109.069824,9.70459,0,0
3789,2024 10 07,05:24:41.565,-0.656277,-0.325537,0.620307,-0.280257,-0.920438,-0.080569,-0.016114,68.725586,146.118164,9.277344,0,0
3790,2024 10 07,05:24:41.573,-0.656277,-0.325537,0.620307,-0.280257,-0.920438,-0.080569,-0.016114,68.725586,146.118164,9.277344,0,0
3791,2024 10 07,05:24:41.582,-0.660698,-0.325494,0.612742,-0.286495,-0.680685,-0.007813,0.098636,47.119141,93.933105,3.90625,0,0
3792,2024 10 07,05:24:41.590,-0.662362,-0.326242,0.608689,-0.290415,-0.950224,0.040529,0.294931,39.733887,46.264648,2.990723,0,0
3793,2024 10 07,05:24:41.598,-0.663844,-0.327216,0.604997,-0.29363,-1.032746,0.121586,0.01709,33.14209,46.203613,-4.272461,0,0
3794,2024 10 07,05:24:41.607,-0.664932,-0.328892,0.601677,-0.296107,-1.069857,0.059084,0.080081,39.001465,33.874512,-11.657715,0,0
3795,2024 10 07,05:24:41.615,-0.666153,-0.33098,0.598277,-0.297921,-1.113315,0.050783,-0.06299,35.27832,34.606934,-20.690918,0,0
3796,2024 10 07,05:24:41.623,-0.667809,-0.333272,0.59458,-0.299058,-1.189978,0.036622,-0.164068,28.869629,38.085938,-29.846191,0,0
3797,2024 10 07,05:24:41.632,-0.667809,-0.333272,0.59458,-0.299058,-1.189978,0.036622,-0.164068,28.869629,38.085938,-29.846191,0,0
3798,2024 10 07,05:24:41.640,-0.670086,-0.335428,0.590563,-0.299515,-1.085971,-0.046876,-0.076174,22.460938,43.640137,-36.254883,0,0
3799,2024 10 07,05:24:41.648,-0.672905,-0.337137,0.586218,-0.299809,-0.970733,-0.028809,0.060549,20.751953,49.438477,-35.03418,0,0
3800,2024 10 07,05:24:41.657,-0.67559,-0.338742,0.581899,-0.300377,-0.93997,0.043458,0.106449,19.226074,46.325684,-32.531738,0,0
3801,2024 10 07,05:24:41.665,-0.677621,-0.340827,0.578,-0.300969,-1.01175,0.051271,0.22364,28.808594,36.92627,-32.531738,0,0
3802,2024 10 07,05:24:41.673,-0.679423,-0.343503,0.573894,-0.301721,-0.994659,0.04883,0.149907,33.081055,36.560059,-36.010742,0,0
3803,2024 10 07,05:24:41.682,-0.679423,-0.343503,0.573894,-0.301721,-0.994659,0.04883,0.149907,33.081055,36.560059,-36.010742,0,0
3804,2024 10 07,05:24:41.690,-0.680702,-0.346788,0.570146,-0.302187,-1.052767,-0.039552,0.091311,38.085938,25.024414,-38.513184,0,0
3805,2024 10 07,05:24:41.698,-0.681755,-0.350234,0.566823,-0.302091,-1.082553,-0.007324,0.138188,31.860352,19.348145,-41.259766,0,0
3806,2024 10 07,05:24:41.707,-0.68288,-0.35357,0.563743,-0.301425,-1.086947,-0.040529,0.231941,26.550293,16.113281,-45.654297,0,0
3807,2024 10 07,05:24:41.715,-0.684358,-0.357112,0.560481,-0.299976,-1.207068,-0.10889,-0.115726,19.104004,15.50293,-56.274414,0,0
3808,2024 10 07,05:24:41.723,-0.686106,-0.360295,0.558042,-0.296707,-1.109409,-0.13477,0.13184,3.234863,5.249023,-64.086914,0,0
3809,2024 10 07,05:24:41.732,-0.686106,-0.360295,0.558042,-0.296707,-1.109409,-0.13477,0.13184,3.234863,5.249023,-64.086914,0,0
3810,2024 10 07,05:24:41.740,-0.688421,-0.36305,0.555798,-0.292166,-1.16068,-0.024415,0.167486,-12.817383,4.02832,-72.937012,0,0
3811,2024 10 07,05:24:41.748,-0.691112,-0.365718,0.553658,-0.286492,-1.311075,-0.059572,0.041017,-22.583008,1.403809,-83.80127,0,0
3812,2024 10 07,05:24:41.757,-0.69478,-0.368052,0.551005,-0.279665,-1.333048,0.02002,0.097171,-33.447266,10.986328,-96.679688,0,0
3813,2024 10 07,05:24:41.765,-0.699031,-0.370512,0.547883,-0.271847,-1.342326,0.033692,0.125004,-40.344238,11.535645,-109.558105,0,0
3814,2024 10 07,05:24:41.773,-0.70363,-0.373441,0.544196,-0.263246,-1.376019,0.101566,0.298349,-35.644531,12.329102,-122.375488,0,0
3815,2024 10 07,05:24:41.782,-0.70363,-0.373441,0.544196,-0.263246,-1.376019,0.101566,0.298349,-35.644531,12.329102,-122.375488,0,0
3816,2024 10 07,05:24:41.790,-0.708344,-0.377474,0.539546,-0.254269,-1.57036,0.127934,0.212897,-26.672363,17.63916,-138.305664,0,0
3817,2024 10 07,05:24:41.798,-0.713345,-0.382809,0.533637,-0.244594,-1.783746,0.162114,0.132817,-19.287109,23.55957,-160.705566,0,0
3818,2024 10 07,05:24:41.807,-0.718824,-0.389587,0.525806,-0.234611,-1.852107,0.144047,0.207038,-3.601074,39.611816,-180.969238,0,0
3819,2024 10 07,05:24:41.815,-0.724586,-0.398312,0.516079,-0.223573,-2.210028,0.321787,0.17188,12.512207,41.809082,-216.61377,0,0
3820,2024 10 07,05:24:41.823,-0.730505,-0.409465,0.50446,-0.210287,-2.479568,0.457045,0.257332,17.883301,44.677734,-262.451172,0,0
3821,2024 10 07,05:24:41.832,-0.730505,-0.409465,0.50446,-0.210287,-2.479568,0.457045,0.257332,17.883301,44.677734,-262.451172,0,0
3822,2024 10 07,05:24:41.840,-0.737787,-0.422288,0.489555,-0.19411,-3.049409,0.521012,-0.038087,13.061523,70.129395,-320.617676,0,0
3823,2024 10 07,05:24:41.848,-0.747446,-0.436516,0.469241,-0.174901,-3.623646,0.664571,-0.453139,11.169434,113.769531,-390.380859,0,0
3824,2024 10 07,05:24:41.857,-0.758175,-0.453007,0.443891,-0.151382,-4.637349,1.006378,-0.2378,13.000488,136.108398,-474.182129,0,0
3825,2024 10 07,05:24:41.865,-0.769797,-0.472221,0.410973,-0.124583,-5.471358,0.750511,-0.24073,34.118652,199.401855,-563.598633,0,0
3826,2024 10 07,05:24:41.873,-0.781962,-0.493125,0.369023,-0.09584,-5.331706,0.097171,-0.637715,46.081543,259.70459,-634.155273,0,0
3827,2024 10 07,05:24:41.882,-0.781962,-0.493125,0.369023,-0.09584,-5.331706,0.097171,-0.637715,46.081543,259.70459,-634.155273,0,0
3828,2024 10 07,05:24:41.890,-0.792184,-0.513747,0.323119,-0.064045,-5.134923,-0.101077,-0.537614,34.362793,261.474609,-671.99707,0,0
3829,2024 10 07,05:24:41.898,-0.801332,-0.530295,0.275262,-0.029747,-5.435225,1.275429,-0.428236,-2.380371,259.887695,-685.974121,0,1
3830,2024 10 07,05:24:41.907,-0.807336,-0.544236,0.228052,0.002784,-5.263344,1.886288,-1.192907,10.925293,258.605957,-648.620605,0,0
3831,2024 10 07,05:24:41.915,-0.810072,-0.555942,0.183389,0.032869,-3.706168,2.271554,-1.282754,8.911133,239.318848,-602.478027,0,0
3832,2024 10 07,05:24:41.923,-0.812404,-0.562344,0.142034,0.059955,0.486343,3.352153,-2.713462,-48.217773,217.529297,-520.935059,0,0
3833,2024 10 07,05:24:41.932,-0.812404,-0.562344,0.142034,0.059955,0.486343,3.352153,-2.713462,-48.217773,217.529297,-520.935059,0,0
3834,2024 10 07,05:24:41.940,-0.813976,-0.563893,0.113936,0.080535,2.981536,3.139256,-3.946898,-76.965332,91.125488,-309.143066,0,0
3835,2024 10 07,05:24:41.948,-0.818644,-0.555357,0.114836,0.090624,-0.881863,3.800409,0.484878,-143.981934,-119.384766,23.620605,0,0
3836,2024 10 07,05:24:41.957,-0.823801,-0.547043,0.127475,0.076461,-1.957091,3.968871,-0.396985,-35.15625,18.493652,266.357422,0,0
3837,2024 10 07,05:24:41.965,-0.82454,-0.545905,0.140058,0.050046,-1.514695,2.511307,-0.548845,56.945801,48.339844,328.308105,0,0
3838,2024 10 07,05:24:41.973,-0.822938,-0.547081,0.151584,0.022325,-0.188482,1.257851,-1.560595,72.08252,71.105957,317.016602,0,0
3839,2024 10 07,05:24:41.982,-0.822938,-0.547081,0.151584,0.022325,-0.188482,1.257851,-1.560595,72.08252,71.105957,317.016602,0,0
3840,2024 10 07,05:24:41.990,-0.820778,-0.546465,0.166431,-0.000552,0.65334,1.035188,-1.904355,32.531738,-31.555176,309.570313,0,0
3841,2024 10 07,05:24:41.998,-0.818726,-0.541682,0.189554,-0.018382,0.115238,1.228065,-1.214393,-15.869141,-127.197266,328.186035,0,0
3842,2024 10 07,05:24:42.007,-0.816673,-0.532976,0.218555,-0.034859,-0.490738,1.460494,-0.894559,-49.255371,-184.265137,360.412598,0,0
3843,2024 10 07,05:24:42.015,-0.813371,-0.521551,0.252335,-0.052346,-1.010285,1.497116,-0.524918,-58.349609,-215.698242,405.761719,0,0
3844,2024 10 07,05:24:42.023,-0.808557,-0.507994,0.287786,-0.073188,-1.373577,1.38432,-0.140141,-57.434082,-202.453613,449.829102,0,0
3845,2024 10 07,05:24:42.032,-0.808557,-0.507994,0.287786,-0.073188,-1.373577,1.38432,-0.140141,-57.434082,-202.453613,449.829102,0,0
3846,2024 10 07,05:24:42.040,-0.802756,-0.492359,0.321816,-0.097976,-1.307169,1.133824,-0.235359,-55.847168,-167.480469,481.811523,0,0
3847,2024 10 07,05:24:42.048,-0.795411,-0.475056,0.355208,-0.12438,-1.299844,0.873074,-0.213874,-58.105469,-163.024902,498.413086,0,0
3848,2024 10 07,05:24:42.057,-0.786432,-0.456125,0.388424,-0.150337,-1.339396,0.692892,-0.295419,-68.17627,-171.813965,499.023438,0,0
3849,2024 10 07,05:24:42.065,-0.775564,-0.436096,0.42211,-0.173618,-1.425825,0.535661,-0.2837,-81.481934,-200.683594,481.994629,0,0
3850,2024 10 07,05:24:42.073,-0.762849,-0.415305,0.456269,-0.193394,-1.656789,0.436048,-0.275399,-96.801758,-229.431152,460.510254,0,0
3851,2024 10 07,05:24:42.082,-0.748369,-0.39378,0.490799,-0.209755,-1.978088,0.531266,-0.106449,-113.220215,-254.394531,441.833496,0,0
3852,2024 10 07,05:24:42.090,-0.748369,-0.39378,0.490799,-0.209755,-1.978088,0.531266,-0.106449,-113.220215,-254.394531,441.833496,0,0
3853,2024 10 07,05:24:42.098,-0.731723,-0.371554,0.525703,-0.223973,-2.344798,0.682638,0.117191,-121.21582,-278.320313,438.110352,0,0
3854,2024 10 07,05:24:42.107,-0.713157,-0.3477,0.560234,-0.23801,-2.626545,0.868191,0.201666,-124.694824,-278.198242,453.24707,0,0
3855,2024 10 07,05:24:42.115,-0.69202,-0.32258,0.59445,-0.25235,-3.035249,0.938017,0.321299,-119.750977,-296.447754,468.87207,0,0
3856,2024 10 07,05:24:42.123,-0.667152,-0.297495,0.628682,-0.266765,-3.705679,0.538102,0.637715,-102.539063,-321.289063,478.942871,0,0
3857,2024 10 07,05:24:42.132,-0.639745,-0.273224,0.660968,-0.281418,-4.297006,-0.394055,0.727561,-78.491211,-324.09668,477.355957,0,0
3858,2024 10 07,05:24:42.140,-0.639745,-0.273224,0.660968,-0.281418,-4.297006,-0.394055,0.727561,-78.491211,-324.09668,477.355957,0,0
3859,2024 10 07,05:24:42.148,-0.611131,-0.250694,0.689925,-0.296099,-4.872219,-1.692923,0.934111,-50.842285,-310.546875,460.510254,0,0
3860,2024 10 07,05:24:42.157,-0.584094,-0.231032,0.713627,-0.310154,-5.232093,-3.342875,1.060579,-22.338867,-269.226074,414.794922,0,0
3861,2024 10 07,05:24:42.165,-0.560905,-0.216168,0.731659,-0.321451,-4.391247,-4.53383,1.72808,-4.394531,-228.942871,327.514648,0,0
3862,2024 10 07,05:24:42.173,-0.54034,-0.209456,0.745953,-0.328199,-2.484451,-4.974761,2.623615,21.118164,-247.436523,209.594727,0,0
3863,2024 10 07,05:24:42.182,-0.519199,-0.213368,0.75834,-0.3314,-2.071352,-5.80633,4.139775,71.716309,-285.400391,99.42627,0,0
3864,2024 10 07,05:24:42.190,-0.519199,-0.213368,0.75834,-0.3314,-2.071352,-5.80633,4.139775,71.716309,-285.400391,99.42627,0,0
3865,2024 10 07,05:24:42.198,-0.501041,-0.223853,0.765583,-0.335753,-3.217872,-7.225318,3.394146,121.032715,-250.12207,44.128418,0,0
3866,2024 10 07,05:24:42.207,-0.489953,-0.235954,0.768023,-0.338248,-3.592883,-7.514878,3.155858,117.30957,-128.295898,-15.991211,0,0
3867,2024 10 07,05:24:42.215,-0.492132,-0.245364,0.763573,-0.338465,-2.445875,-7.044649,2.145573,53.283691,13.85498,-74.890137,0,0
3868,2024 10 07,05:24:42.223,-0.498622,-0.253702,0.765383,-0.318119,-16.000488,-2.939543,6.473342,-310.119629,-145.751953,-239.257813,0,0
3869,2024 10 07,05:24:42.232,-0.539967,-0.263809,0.74345,-0.293463,-1.499069,-0.107913,-6.024598,-321.228027,621.765137,-412.231445,1,0
3870,2024 10 07,05:24:42.240,-0.539967,-0.263809,0.74345,-0.293463,-1.499069,-0.107913,-6.024598,-321.228027,621.765137,-412.231445,0,0
3871,2024 10 07,05:24:42.248,-0.576181,-0.272001,0.721431,-0.271232,-0.454115,1.868709,-1.780816,63.415527,192.871094,-366.210938,0,0
3872,2024 10 07,05:24:42.257,-0.588622,-0.293209,0.708204,-0.256904,-2.709555,-0.692404,1.907285,-19.40918,177.062988,-366.760254,0,0
3873,2024 10 07,05:24:42.265,-0.609087,-0.308254,0.685222,-0.253894,-1.642628,-1.739799,-0.583025,107.727051,205.688477,-239.868164,0,0
3874,2024 10 07,05:24:42.273,-0.622052,-0.316965,0.67129,-0.248906,-2.108463,-0.740745,0.81106,9.70459,174.438477,-159.851074,0,0
3875,2024 10 07,05:24:42.282,-0.636775,-0.31891,0.654677,-0.253402,-0.853542,0.297372,-0.166509,54.138184,242.553711,-65.429688,0,0
3876,2024 10 07,05:24:42.290,-0.636775,-0.31891,0.654677,-0.253402,-0.853542,0.297372,-0.166509,54.138184,242.553711,-65.429688,0,0
3877,2024 10 07,05:24:42.298,-0.642267,-0.323407,0.643683,-0.261865,-0.900418,-0.484878,-0.085452,108.581543,104.248047,-19.714355,0,0
3878,2024 10 07,05:24:42.307,-0.645218,-0.326098,0.637382,-0.266642,-1.030793,0.014649,0.357433,55.114746,80.749512,-13.61084,0,0
3879,2024 10 07,05:24:42.315,-0.649737,-0.327137,0.629606,-0.272801,-1.141148,-0.072268,-0.713401,61.035156,114.868164,-4.02832,0,0
3880,2024 10 07,05:24:42.323,-0.6534,-0.327964,0.62242,-0.279466,-1.221717,-0.035646,-0.026368,66.101074,104.980469,7.93457,0,0
3881,2024 10 07,05:24:42.332,-0.658045,-0.328073,0.613905,-0.287168,-0.966826,-0.003906,0.130863,62.255859,131.103516,9.033203,0,0
3882,2024 10 07,05:24:42.340,-0.658045,-0.328073,0.613905,-0.287168,-0.966826,-0.003906,0.130863,62.255859,131.103516,9.033203,0,0
3883,2024 10 07,05:24:42.348,-0.662073,-0.328165,0.606341,-0.293798,-0.721213,-0.056154,0.02295,54.748535,95.336914,6.896973,0,0
3884,2024 10 07,05:24:42.357,-0.66358,-0.328914,0.602349,-0.297747,-0.958525,0.032228,0.220222,37.841797,43.151855,3.540039,0,0
3885,2024 10 07,05:24:42.365,-0.664844,-0.329781,0.598952,-0.300806,-1.002472,0.068361,0.107913,31.433105,43.151855,-2.685547,0,0
3886,2024 10 07,05:24:42.373,-0.665964,-0.331077,0.595968,-0.302823,-1.028352,0.069338,0.098148,31.188965,28.930664,-12.268066,0,0
3887,2024 10 07,05:24:42.382,-0.667053,-0.332962,0.593294,-0.303608,-1.128452,0.097171,-0.058107,22.888184,24.169922,-24.902344,0,0
3888,2024 10 07,05:24:42.390,-0.667053,-0.332962,0.593294,-0.303608,-1.128452,0.097171,-0.058107,22.888184,24.169922,-24.902344,0,0
3889,2024 10 07,05:24:42.398,-0.668542,-0.335195,0.590356,-0.303605,-1.22953,0.061525,-0.12598,20.507813,26.733398,-35.461426,0,0
3890,2024 10 07,05:24:42.407,-0.670849,-0.337459,0.586529,-0.303425,-1.090854,-0.042482,-0.003418,20.751953,42.175293,-40.588379,0,0
3891,2024 10 07,05:24:42.415,-0.673719,-0.339431,0.582084,-0.303425,-0.929228,0.021973,0.100101,21.362305,46.020508,-40.527344,0,0
3892,2024 10 07,05:24:42.423,-0.676048,-0.341689,0.577912,-0.303688,-0.987335,0.02002,0.094241,23.681641,39.733887,-37.719727,0,0
3893,2024 10 07,05:24:42.432,-0.678044,-0.344295,0.573925,-0.303855,-1.041047,0.034669,0.146977,29.968262,34.851074,-40.527344,0,0
3894,2024 10 07,05:24:42.440,-0.678044,-0.344295,0.573925,-0.303855,-1.041047,0.034669,0.146977,29.968262,34.851074,-40.527344,0,0
3895,2024 10 07,05:24:42.448,-0.68,-0.347343,0.569606,-0.304142,-1.003449,0.006348,0.148442,32.165527,36.193848,-43.579102,0,0
3896,2024 10 07,05:24:42.457,-0.681593,-0.350695,0.565684,-0.304049,-0.980987,-0.078616,0.112796,32.287598,25.756836,-44.433594,0,0
3897,2024 10 07,05:24:42.465,-0.682793,-0.353987,0.562644,-0.303179,-1.0347,0.029298,0.175298,24.353027,14.221191,-45.349121,0,0
3898,2024 10 07,05:24:42.473,-0.683719,-0.357463,0.559812,-0.302256,-1.082553,-0.092288,0.090335,27.832031,11.71875,-45.532227,0,0
3899,2024 10 07,05:24:42.482,-0.684749,-0.360864,0.557342,-0.300443,-1.162145,-0.097171,0.015137,16.418457,5.249023,-51.818848,0,0
3900,2024 10 07,05:24:42.490,-0.684749,-0.360864,0.557342,-0.300443,-1.162145,-0.097171,0.015137,16.418457,5.249023,-51.818848,0,0
3901,2024 10 07,05:24:42.498,-0.686217,-0.363894,0.55525,-0.297296,-1.209021,-0.087893,0.093265,0.854492,2.990723,-60.913086,0,0
3902,2024 10 07,05:24:42.507,-0.688625,-0.366407,0.552734,-0.293304,-1.187536,-0.126469,0.033692,-11.291504,12.573242,-69.213867,0,0
3903,2024 10 07,05:24:42.515,-0.691669,-0.36848,0.550473,-0.287744,-1.288125,-0.067873,0.035157,-27.832031,4.211426,-80.566406,0,0
3904,2024 10 07,05:24:42.523,-0.695377,-0.370341,0.548294,-0.280485,-1.334513,-0.046388,0.134281,-43.945313,6.652832,-95.64209,0,0
3905,2024 10 07,05:24:42.532,-0.700094,-0.372035,0.545393,-0.272038,-1.30668,0.053713,0.131352,-51.452637,10.986328,-110.290527,0,0
3906,2024 10 07,05:24:42.540,-0.704767,-0.374538,0.542284,-0.26259,-1.47026,0.153813,0.373058,-46.691895,5.859375,-125.366211,0,0
3907,2024 10 07,05:24:42.548,-0.704767,-0.374538,0.542284,-0.26259,-1.47026,0.153813,0.373058,-46.691895,5.859375,-125.366211,0,0
3908,2024 10 07,05:24:42.557,-0.709654,-0.378361,0.537917,-0.252746,-1.813532,0.165044,0.256844,-34.179688,13.122559,-145.080566,0,0
3909,2024 10 07,05:24:42.565,-0.715561,-0.38349,0.531174,-0.242407,-2.06061,0.238777,-0.017579,-25.146484,38.391113,-172.851563,0,0
3910,2024 10 07,05:24:42.573,-0.722078,-0.390458,0.522042,-0.231555,-2.373119,0.298837,0.132817,-11.657715,57.067871,-202.392578,0,0
3911,2024 10 07,05:24:42.582,-0.729349,-0.399787,0.510094,-0.219144,-2.492752,0.448744,0.117679,7.93457,60.974121,-248.352051,0,0
3912,2024 10 07,05:24:42.590,-0.736926,-0.411823,0.495768,-0.203855,-3.150487,0.629414,0.308603,13.977051,70.983887,-305.786133,0,0
3913,2024 10 07,05:24:42.598,-0.736926,-0.411823,0.495768,-0.203855,-3.150487,0.629414,0.308603,13.977051,70.983887,-305.786133,0,0
3914,2024 10 07,05:24:42.607,-0.746575,-0.425972,0.476198,-0.185495,-3.777947,0.827174,-0.32374,17.028809,112.426758,-380.493164,0,0
3915,2024 10 07,05:24:42.615,-0.757428,-0.443122,0.450892,-0.163226,-4.598285,1.17777,-0.096194,28.869629,143.127441,-467.956543,0,0
3916,2024 10 07,05:24:42.623,-0.768973,-0.463436,0.41877,-0.136158,-5.761895,0.827174,-0.2837,42.175293,179.199219,-570.800781,0,0
3917,2024 10 07,05:24:42.632,-0.78136,-0.485505,0.377726,-0.105283,-5.589526,0.160649,-0.931181,43.09082,244.873047,-656.799316,0,0
3918,2024 10 07,05:24:42.640,-0.791976,-0.507156,0.332525,-0.070662,-5.753105,0.215339,-0.491714,31.982422,243.225098,-698.730469,0,0
3919,2024 10 07,05:24:42.648,-0.791976,-0.507156,0.332525,-0.070662,-5.753105,0.215339,-0.491714,31.982422,243.225098,-698.730469,0,0
3920,2024 10 07,05:24:42.657,-0.801878,-0.524545,0.284072,-0.033873,-5.764336,1.630421,-0.612812,-2.197266,257.751465,-719.055176,0,1
3921,2024 10 07,05:24:42.665,-0.808257,-0.5395,0.235917,0.001697,-5.427412,2.319407,-1.551805,5.126953,254.455566,-685.791016,0,0
3922,2024 10 07,05:24:42.673,-0.810964,-0.551815,0.191314,0.035152,-3.389752,2.535233,-1.362346,1.159668,215.209961,-634.521484,0,0
3923,2024 10 07,05:24:42.682,-0.81398,-0.557243,0.150185,0.066036,3.28721,4.211066,-3.328715,-79.956055,192.932129,-544.311523,0,0
3924,2024 10 07,05:24:42.690,-0.817993,-0.554552,0.127229,0.08469,2.715903,3.784783,-5.436689,-75.744629,31.005859,-197.021484,0,0
3925,2024 10 07,05:24:42.698,-0.817993,-0.554552,0.127229,0.08469,2.715903,3.784783,-5.436689,-75.744629,31.005859,-197.021484,0,0
3926,2024 10 07,05:24:42.707,-0.820731,-0.544752,0.147465,0.088883,-2.590899,5.16129,3.027436,-129.821777,-237.060547,202.514648,0,0
3927,2024 10 07,05:24:42.715,-0.824156,-0.53939,0.161771,0.060457,-1.904355,3.666616,-1.703177,36.071777,125.976563,372.680664,0,0
3928,2024 10 07,05:24:42.723,-0.821988,-0.540536,0.176906,0.029338,-1.605518,1.749565,-0.30079,107.299805,17.028809,363.464355,0,0
3929,2024 10 07,05:24:42.732,-0.819235,-0.54137,0.18912,0.002488,0.639668,0.806665,-2.680257,66.467285,49.865723,306.762695,0,0
3930,2024 10 07,05:24:42.740,-0.815938,-0.538636,0.209474,-0.015415,0.465346,1.436567,-1.376019,8.239746,-128.90625,304.992676,0,0
3931,2024 10 07,05:24:42.748,-0.815938,-0.538636,0.209474,-0.015415,0.465346,1.436567,-1.376019,8.239746,-128.90625,304.992676,0,0
3932,2024 10 07,05:24:42.757,-0.812847,-0.531197,0.23702,-0.030512,-0.351085,1.672414,-1.341838,-31.005859,-176.513672,337.585449,0,0
3933,2024 10 07,05:24:42.765,-0.80838,-0.520532,0.270986,-0.0462,-0.898465,1.837458,-0.673849,-45.898438,-241.271973,392.150879,0,0
3934,2024 10 07,05:24:42.773,-0.802373,-0.506974,0.307865,-0.066284,-1.267128,1.742729,-0.288095,-45.043945,-219.055176,458.92334,0,0
3935,2024 10 07,05:24:42.782,-0.795079,-0.490615,0.344598,-0.091641,-1.472213,1.536668,-0.237312,-45.593262,-200.073242,510.375977,0,0
3936,2024 10 07,05:24:42.790,-0.785814,-0.472215,0.381212,-0.119109,-1.615284,1.241249,0.027345,-43.518066,-189.147949,531.066895,0,0
3937,2024 10 07,05:24:42.798,-0.785814,-0.472215,0.381212,-0.119109,-1.615284,1.241249,0.027345,-43.518066,-189.147949,531.066895,0,0
3938,2024 10 07,05:24:42.807,-0.775077,-0.452491,0.41599,-0.146494,-1.678762,0.974151,-0.078127,-46.875,-184.692383,521.66748,0,0
3939,2024 10 07,05:24:42.815,-0.762361,-0.432541,0.449964,-0.171017,-1.817927,0.798853,0.06006,-52.062988,-203.613281,494.32373,0,0
3940,2024 10 07,05:24:42.823,-0.748151,-0.412255,0.482924,-0.192614,-1.963927,0.761254,0.0918,-62.011719,-216.064453,471.496582,0,0
3941,2024 10 07,05:24:42.832,-0.732098,-0.391275,0.515668,-0.212188,-2.325266,0.795434,0.222663,-69.030762,-233.398438,465.759277,0,0
3942,2024 10 07,05:24:42.840,-0.714209,-0.368992,0.54799,-0.231211,-2.733482,0.830103,0.288583,-72.509766,-237.548828,474.121094,0,0
3943,2024 10 07,05:24:42.848,-0.714209,-0.368992,0.54799,-0.231211,-2.733482,0.830103,0.288583,-72.509766,-237.548828,474.121094,0,0
3944,2024 10 07,05:24:42.857,-0.694828,-0.344992,0.579241,-0.250347,-3.055269,0.865261,0.406262,-75.927734,-229.736328,484.985352,0,0
3945,2024 10 07,05:24:42.865,-0.673708,-0.320185,0.609278,-0.269034,-3.406354,0.738304,0.317392,-76.721191,-239.929199,485.046387,0,0
3946,2024 10 07,05:24:42.873,-0.650201,-0.295743,0.638693,-0.286087,-3.887326,0.374523,0.354991,-72.937012,-257.8125,474.67041,0,0
3947,2024 10 07,05:24:42.882,-0.625449,-0.272161,0.666312,-0.30128,-4.153447,-0.519059,0.390637,-70.495605,-260.986328,453.979492,0,0
3948,2024 10 07,05:24:42.890,-0.599795,-0.25044,0.69208,-0.313929,-4.421033,-1.644093,0.46437,-67.016602,-273.4375,423.88916,0,0
3949,2024 10 07,05:24:42.898,-0.599795,-0.25044,0.69208,-0.313929,-4.421033,-1.644093,0.46437,-67.016602,-273.4375,423.88916,0,0
3950,2024 10 07,05:24:42.907,-0.574027,-0.230949,0.715588,-0.324175,-4.556292,-2.751549,0.752464,-61.157227,-267.883301,390.441895,0,0
3951,2024 10 07,05:24:42.915,-0.550482,-0.214168,0.735234,-0.332465,-4.166631,-3.867306,1.26664,-48.461914,-238.220215,337.768555,0,0
3952,2024 10 07,05:24:42.923,-0.529568,-0.20266,0.751214,-0.337883,-2.95468,-4.671041,2.303781,-29.785156,-232.23877,253.356934,0,0
3953,2024 10 07,05:24:42.932,-0.509844,-0.199534,0.764587,-0.340077,-2.18659,-5.922056,3.286721,5.554199,-259.277344,151.916504,0,0
3954,2024 10 07,05:24:42.940,-0.491398,-0.204037,0.775033,-0.340912,-3.400006,-7.11301,3.908322,40.893555,-247.98584,81.298828,0,0
3955,2024 10 07,05:24:42.948,-0.491398,-0.204037,0.775033,-0.340912,-3.400006,-7.11301,3.908322,40.893555,-247.98584,81.298828,0,0
3956,2024 10 07,05:24:42.957,-0.481972,-0.209899,0.779167,-0.341386,-3.955687,-7.305887,3.326762,58.654785,-117.858887,23.864746,0,0
3957,2024 10 07,05:24:42.965,-0.484911,-0.215101,0.775894,-0.341439,-2.723716,-6.784387,2.398999,30.761719,39.367676,-39.428711,0,0
3958,2024 10 07,05:24:42.973,-0.493313,-0.235178,0.776011,-0.314865,-4.24427,-7.569078,7.982178,-47.546387,-88.989258,-432.067871,0,0
3959,2024 10 07,05:24:42.982,-0.553662,-0.238766,0.749086,-0.274439,-0.827174,3.45909,-3.927855,-514.160156,623.901367,-536.010742,1,0
3960,2024 10 07,05:24:42.990,-0.572341,-0.260973,0.733192,-0.258356,-3.733512,1.221717,1.548875,28.381348,20.080566,-371.704102,0,0
3961,2024 10 07,05:24:42.998,-0.59297,-0.279795,0.714066,-0.24538,-2.023499,-0.126469,1.722221,13.061523,282.348633,-345.64209,0,0
3962,2024 10 07,05:24:43.007,-0.59297,-0.279795,0.714066,-0.24538,-2.023499,-0.126469,1.722221,13.061523,282.348633,-345.64209,0,0
3963,2024 10 07,05:24:43.015,-0.609147,-0.296108,0.695009,-0.241294,-2.159734,-1.02591,0.734886,55.847168,152.954102,-243.408203,0,0
3964,2024 10 07,05:24:43.023,-0.624108,-0.302986,0.679078,-0.239878,-1.720756,-0.792993,-0.169927,39.550781,226.867676,-121.887207,0,0
3965,2024 10 07,05:24:43.032,-0.636174,-0.305686,0.664469,-0.245602,-0.956572,0.253914,-0.375011,89.599609,187.866211,-48.461914,0,0
3966,2024 10 07,05:24:43.040,-0.639843,-0.311391,0.654797,-0.254709,-0.916044,-0.353526,0.37843,112.182617,101.623535,-18.798828,0,0
3967,2024 10 07,05:24:43.048,-0.644387,-0.31383,0.646589,-0.261147,-1.018098,-0.202643,-0.222175,73.242188,111.877441,-9.277344,0,0
3968,2024 10 07,05:24:43.057,-0.644387,-0.31383,0.646589,-0.261147,-1.018098,-0.202643,-0.222175,73.242188,111.877441,-9.277344,0,0
3969,2024 10 07,05:24:43.065,-0.648582,-0.315059,0.639284,-0.267198,-1.123081,0.0,-0.503922,57.189941,99.304199,-0.183105,0,0
3970,2024 10 07,05:24:43.073,-0.651646,-0.315994,0.633029,-0.273459,-1.095737,-0.081057,0.204596,59.082031,91.918945,8.728027,0,0
3971,2024 10 07,05:24:43.082,-0.655508,-0.315829,0.626664,-0.279023,-0.76223,-0.033204,0.106937,40.039063,91.125488,6.896973,0,0
3972,2024 10 07,05:24:43.090,-0.657234,-0.31603,0.623136,-0.282613,-0.902371,0.018555,0.092776,32.775879,36.621094,7.507324,0,0
3973,2024 10 07,05:24:43.098,-0.657401,-0.316851,0.62124,-0.285466,-1.047395,0.054689,0.144047,31.12793,21.972656,7.141113,0,0
3974,2024 10 07,05:24:43.107,-0.657401,-0.316851,0.62124,-0.285466,-1.047395,0.054689,0.144047,31.12793,21.972656,7.141113,0,0
3975,2024 10 07,05:24:43.115,-0.657502,-0.317914,0.619561,-0.287691,-0.954131,0.109867,0.104007,27.893066,14.404297,-0.427246,0,0
3976,2024 10 07,05:24:43.123,-0.657135,-0.31976,0.618585,-0.288582,-1.004425,0.077151,0.028809,23.620605,-2.319336,-13.061523,0,0
3977,2024 10 07,05:24:43.132,-0.657089,-0.321994,0.617818,-0.287845,-1.138707,0.107425,-0.172857,10.314941,-3.417969,-29.11377,0,0
3978,2024 10 07,05:24:43.140,-0.658128,-0.324377,0.616439,-0.285746,-1.17777,0.116214,-0.220222,2.258301,6.225586,-46.264648,0,0
3979,2024 10 07,05:24:43.148,-0.660255,-0.326957,0.613681,-0.283829,-1.056185,0.19483,0.067873,10.375977,26.550293,-51.757813,0,0
3980,2024 10 07,05:24:43.157,-0.660255,-0.326957,0.613681,-0.283829,-1.056185,0.19483,0.067873,10.375977,26.550293,-51.757813,0,0
3981,2024 10 07,05:24:43.165,-0.662801,-0.330272,0.609204,-0.283701,-1.078646,0.13477,0.091311,35.949707,44.433594,-50.842285,0,0
3982,2024 10 07,05:24:43.173,-0.665682,-0.334212,0.603332,-0.284888,-1.204138,-0.024903,-0.211432,47.912598,60.424805,-50.964355,0,0
3983,2024 10 07,05:24:43.182,-0.669049,-0.338102,0.596607,-0.286566,-1.036164,-0.254402,-0.111332,49.804688,72.998047,-49.987793,0,0
3984,2024 10 07,05:24:43.190,-0.673077,-0.340399,0.590103,-0.287879,-0.796899,0.003906,0.095706,21.911621,72.387695,-42.236328,0,0
3985,2024 10 07,05:24:43.198,-0.675934,-0.342749,0.584862,-0.289087,-1.047395,-0.123051,0.069338,38.330078,53.344727,-35.888672,0,0
3986,2024 10 07,05:24:43.207,-0.675934,-0.342749,0.584862,-0.289087,-1.047395,-0.123051,0.069338,38.330078,53.344727,-35.888672,0,0
3987,2024 10 07,05:24:43.215,-0.679007,-0.344842,0.579549,-0.290097,-1.102573,-0.00586,-0.077151,26.245117,60.913086,-38.513184,0,0
3988,2024 10 07,05:24:43.223,-0.682127,-0.34682,0.574362,-0.290734,-0.928739,-0.156743,0.127445,19.836426,56.518555,-40.283203,0,0
3989,2024 10 07,05:24:43.232,-0.685164,-0.348224,0.570306,-0.2899,-0.925321,-0.018067,0.255379,5.493164,36.865234,-42.663574,0,0
3990,2024 10 07,05:24:43.240,-0.687388,-0.349861,0.56774,-0.287691,-1.072787,-0.008789,0.200201,-5.187988,14.343262,-48.095703,0,0
3991,2024 10 07,05:24:43.248,-0.689512,-0.35163,0.565757,-0.284339,-1.210974,-0.051759,0.203131,-10.253906,9.765625,-56.091309,0,0
3992,2024 10 07,05:24:43.257,-0.689512,-0.35163,0.565757,-0.284339,-1.210974,-0.051759,0.203131,-10.253906,9.765625,-56.091309,0,0
3993,2024 10 07,05:24:43.265,-0.692192,-0.353393,0.563644,-0.279802,-1.193396,0.011231,0.177252,-22.460938,8.972168,-68.969727,0,0
3994,2024 10 07,05:24:43.273,-0.694975,-0.355593,0.561707,-0.273949,-1.250526,0.010743,0.145024,-26.672363,-1.220703,-82.214355,0,0
3995,2024 10 07,05:24:43.282,-0.697701,-0.358448,0.560153,-0.266376,-1.440474,0.062502,0.2378,-33.935547,-10.864258,-99.42627,0,0
3996,2024 10 07,05:24:43.290,-0.701139,-0.361959,0.55749,-0.258062,-1.644581,0.129398,0.191412,-28.137207,0.061035,-117.858887,0,0
3997,2024 10 07,05:24:43.298,-0.704766,-0.367023,0.55413,-0.248071,-1.980041,0.179693,0.051271,-28.625488,-8.300781,-147.949219,0,0
3998,2024 10 07,05:24:43.307,-0.704766,-0.367023,0.55413,-0.248071,-1.980041,0.179693,0.051271,-28.625488,-8.300781,-147.949219,0,0
3999,2024 10 07,05:24:43.315,-0.709226,-0.373537,0.549028,-0.236723,-2.339427,0.199713,-0.027833,-23.681641,12.695313,-179.504395,0,0
4000,2024 10 07,05:24:43.323,-0.716016,-0.380972,0.540046,-0.224795,-2.403394,0.269539,-0.072756,-15.869141,55.175781,-214.96582,0,0
4001,2024 10 07,05:24:43.332,-0.724041,-0.390403,0.528025,-0.211043,-2.669515,0.65334,0.092776,-8.850098,69.580078,-262.695313,0,0
4002,2024 10 07,05:24:43.340,-0.732369,-0.403066,0.51306,-0.19479,-3.183691,0.660176,0.153813,5.249023,74.768066,-324.462891,0,0
4003,2024 10 07,05:24:43.348,-0.742937,-0.417882,0.492813,-0.174799,-3.854121,0.967315,-0.275399,4.699707,122.192383,-403.076172,0,0
4004,2024 10 07,05:24:43.356,-0.742937,-0.417882,0.492813,-0.174799,-3.854121,0.967315,-0.275399,4.699707,122.192383,-403.076172,0,0
4005,2024 10 07,05:24:43.365,-0.754591,-0.436033,0.466667,-0.150632,-4.693502,1.33549,-0.325694,20.935059,143.554688,-496.459961,0,0
4006,2024 10 07,05:24:43.373,-0.766134,-0.458155,0.434107,-0.121175,-5.846858,1.123569,-0.002441,34.179688,179.56543,-604.370117,0,0
4007,2024 10 07,05:24:43.381,-0.778331,-0.482266,0.392194,-0.088339,-5.582201,0.582049,-0.48439,49.438477,238.647461,-687.37793,0,0
4008,2024 10 07,05:24:43.390,-0.787657,-0.506781,0.346447,-0.052371,-5.310221,0.456557,-0.145024,41.015625,235.839844,-723.632813,0,0
4009,2024 10 07,05:24:43.398,-0.795632,-0.527053,0.298312,-0.013901,-5.551439,1.579638,-0.612323,15.991211,230.529785,-735.717773,0,1
4010,2024 10 07,05:24:43.406,-0.795632,-0.527053,0.298312,-0.013901,-5.551439,1.579638,-0.612323,15.991211,230.529785,-735.717773,0,0
4011,2024 10 07,05:24:43.415,-0.799619,-0.544382,0.252488,0.022511,-4.902493,1.923398,-1.078158,18.920898,211.05957,-683.654785,0,0
4012,2024 10 07,05:24:43.423,-0.80078,-0.557955,0.210414,0.05625,-3.232032,2.692953,-0.939482,0.12207,190.856934,-622.375488,0,0
4013,2024 10 07,05:24:43.431,-0.803177,-0.564099,0.171741,0.08487,3.218848,4.200812,-3.331156,-93.017578,175.598145,-489.562988,0,0
4014,2024 10 07,05:24:43.440,-0.804913,-0.563696,0.155568,0.100802,0.632344,2.9288,-2.052309,-30.456543,-20.385742,-148.132324,0,0
4015,2024 10 07,05:24:43.448,-0.808942,-0.556248,0.163789,0.096822,-2.285714,4.808741,0.853542,-84.289551,-10.009766,174.804688,0,0
4016,2024 10 07,05:24:43.456,-0.811592,-0.553678,0.171732,0.072578,-1.519089,3.390728,-1.360393,38.696289,88.378906,281.005859,0,0
4017,2024 10 07,05:24:43.465,-0.811592,-0.553678,0.171732,0.072578,-1.519089,3.390728,-1.360393,38.696289,88.378906,281.005859,0,0
4018,2024 10 07,05:24:43.473,-0.810893,-0.554487,0.181363,0.045883,-0.894559,1.731986,-0.939482,78.24707,92.285156,297.851563,0,0
4019,2024 10 07,05:24:43.481,-0.81078,-0.552869,0.191088,0.021397,0.676778,1.275918,-2.223701,24.597168,41.625977,288.696289,0,0
4020,2024 10 07,05:24:43.490,-0.810789,-0.546461,0.209749,0.002549,0.471694,1.59624,-1.311563,-36.92627,-79.528809,317.016602,0,0
4021,2024 10 07,05:24:43.498,-0.810934,-0.535111,0.236296,-0.014331,-0.157231,1.804743,-1.293008,-79.589844,-160.766602,360.229492,0,0
4022,2024 10 07,05:24:43.506,-0.809554,-0.520111,0.270443,-0.031113,-0.889187,2.035707,-0.421888,-94.299316,-222.045898,414.916992,0,0
4023,2024 10 07,05:24:43.515,-0.809554,-0.520111,0.270443,-0.031113,-0.889187,2.035707,-0.421888,-94.299316,-222.045898,414.916992,0,0
4024,2024 10 07,05:24:43.523,-0.807072,-0.502431,0.305611,-0.052915,-1.423383,1.958068,-0.178228,-89.904785,-182.067871,471.191406,0,0
4025,2024 10 07,05:24:43.531,-0.803456,-0.482836,0.33901,-0.080002,-1.532273,1.696829,0.034181,-80.200195,-142.63916,510.498047,0,0
4026,2024 10 07,05:24:43.540,-0.798403,-0.462053,0.370011,-0.110234,-1.476119,1.365764,0.020997,-68.664551,-108.642578,526.611328,0,0
4027,2024 10 07,05:24:43.548,-0.791601,-0.440788,0.399119,-0.140632,-1.416059,1.014679,-0.075686,-63.964844,-107.666016,517.63916,0,0
4028,2024 10 07,05:24:43.556,-0.782765,-0.419552,0.427624,-0.168503,-1.392132,0.771996,-0.133793,-66.52832,-126.464844,493.835449,0,0
4029,2024 10 07,05:24:43.565,-0.782765,-0.419552,0.427624,-0.168503,-1.392132,0.771996,-0.133793,-66.52832,-126.464844,493.835449,0,0
4030,2024 10 07,05:24:43.573,-0.771738,-0.39827,0.456666,-0.193022,-1.511765,0.700705,-0.211432,-76.293945,-163.818359,474.182129,0,0
4031,2024 10 07,05:24:43.581,-0.757975,-0.376455,0.487441,-0.214843,-1.94293,0.761254,-0.072268,-87.524414,-200.317383,472.473145,0,0
4032,2024 10 07,05:24:43.590,-0.742018,-0.353171,0.518603,-0.236073,-2.332591,0.894559,-0.133305,-90.942383,-212.219238,484.313965,0,0
4033,2024 10 07,05:24:43.598,-0.723306,-0.328524,0.550243,-0.257161,-2.844325,0.821802,0.106937,-92.651367,-226.68457,500.12207,0,0
4034,2024 10 07,05:24:43.606,-0.702555,-0.302998,0.580668,-0.278267,-3.265725,0.832545,0.013672,-88.562012,-227.355957,504.882813,0,0
4035,2024 10 07,05:24:43.615,-0.702555,-0.302998,0.580668,-0.278267,-3.265725,0.832545,0.013672,-88.562012,-227.355957,504.882813,0,0
4036,2024 10 07,05:24:43.623,-0.678952,-0.278154,0.610389,-0.298463,-3.810663,0.653829,0.102542,-74.462891,-252.197266,498.962402,0,0
4037,2024 10 07,05:24:43.631,-0.652806,-0.254551,0.638841,-0.317694,-3.997681,-0.193854,0.194342,-59.448242,-262.878418,490.112305,0,0
4038,2024 10 07,05:24:43.640,-0.624021,-0.233262,0.666382,-0.334845,-4.391736,-1.523484,-0.055177,-47.363281,-303.588867,467.285156,0,0
4039,2024 10 07,05:24:43.648,-0.592406,-0.216481,0.693493,-0.348221,-5.10123,-2.890225,0.202643,-34.240723,-339.96582,417.907715,0,0
4040,2024 10 07,05:24:43.656,-0.562666,-0.203801,0.716904,-0.357661,-4.936186,-4.14124,0.594256,-29.602051,-317.993164,346.862793,0,0
4041,2024 10 07,05:24:43.665,-0.562666,-0.203801,0.716904,-0.357661,-4.936186,-4.14124,0.594256,-29.602051,-317.993164,346.862793,0,0
4042,2024 10 07,05:24:43.673,-0.536623,-0.195593,0.736376,-0.36267,-3.449812,-4.755028,1.749565,-29.23584,-297.607422,258.239746,0,0
4043,2024 10 07,05:24:43.681,-0.512353,-0.194824,0.753304,-0.363415,-2.340892,-5.496262,2.900479,-7.019043,-328.796387,152.46582,0,0
4044,2024 10 07,05:24:43.690,-0.488841,-0.202717,0.767415,-0.361959,-3.638783,-6.840541,4.086062,39.855957,-332.275391,69.824219,0,0
4045,2024 10 07,05:24:43.698,-0.474519,-0.211039,0.774885,-0.360344,-4.160283,-6.850307,3.488388,44.067383,-192.993164,24.169922,0,0
4046,2024 10 07,05:24:43.706,-0.473592,-0.216398,0.774135,-0.359996,-2.821375,-7.298074,2.889737,24.414063,-3.234863,-17.028809,0,0
4047,2024 10 07,05:24:43.715,-0.473592,-0.216398,0.774135,-0.359996,-2.821375,-7.298074,2.889737,24.414063,-3.234863,-17.028809,0,0
4048,2024 10 07,05:24:43.723,-0.477043,-0.224803,0.781601,-0.333155,-7.816645,-7.401105,16.0,-430.847168,-279.663086,-306.274414,0,0
4049,2024 10 07,05:24:43.731,-0.527817,-0.238021,0.759131,-0.297442,-2.535722,-1.20658,-3.959593,-611.694336,638.48877,-552.612305,1,0
4050,2024 10 07,05:24:43.740,-0.56568,-0.253066,0.736651,-0.270755,-1.793512,1.116733,-2.096255,6.164551,167.907715,-421.386719,0,0
4051,2024 10 07,05:24:43.748,-0.58294,-0.275,0.722015,-0.251498,-3.272561,-0.682638,1.633839,-14.465332,229.614258,-406.555176,0,0
4052,2024 10 07,05:24:43.756,-0.610171,-0.292201,0.693702,-0.247159,-1.405316,-0.78811,0.50148,113.891602,307.983398,-305.480957,0,0
4053,2024 10 07,05:24:43.765,-0.610171,-0.292201,0.693702,-0.247159,-1.405316,-0.78811,0.50148,113.891602,307.983398,-305.480957,0,0
4054,2024 10 07,05:24:43.773,-0.625891,-0.305423,0.674411,-0.245249,-2.343822,-1.125034,0.096194,74.951172,206.970215,-193.603516,0,0
4055,2024 10 07,05:24:43.781,-0.640877,-0.310177,0.656221,-0.249882,-1.298868,0.218757,-0.533219,64.208984,257.507324,-82.519531,0,0
4056,2024 10 07,05:24:43.790,-0.648719,-0.315389,0.641355,-0.261452,-0.960967,-0.263192,-0.343272,160.644531,172.851563,-17.700195,0,0
4057,2024 10 07,05:24:43.798,-0.654195,-0.320325,0.62847,-0.272849,-1.032746,-0.250496,0.132817,133.544922,168.640137,-13.122559,0,0
4058,2024 10 07,05:24:43.806,-0.660891,-0.322442,0.615258,-0.284098,-1.02884,-0.123051,-0.387707,105.59082,181.762695,4.272461,0,0
4059,2024 10 07,05:24:43.815,-0.660891,-0.322442,0.615258,-0.284098,-1.02884,-0.123051,-0.387707,105.59082,181.762695,4.272461,0,0
4060,2024 10 07,05:24:43.823,-0.665546,-0.323957,0.604329,-0.294765,-0.903836,-0.206061,0.119633,104.858398,141.601563,16.662598,0,0
4061,2024 10 07,05:24:43.831,-0.66993,-0.324423,0.595261,-0.302667,-0.620136,-0.011231,0.384777,63.720703,119.018555,4.699707,0,0
4062,2024 10 07,05:24:43.840,-0.672711,-0.324757,0.589514,-0.307354,-0.953154,0.023438,-0.073733,34.301758,63.720703,1.403809,0,0
4063,2024 10 07,05:24:43.848,-0.674218,-0.325303,0.586005,-0.310172,-0.991241,-0.066408,0.253426,26.184082,45.593262,-1.831055,0,0
4064,2024 10 07,05:24:43.856,-0.676309,-0.325474,0.582581,-0.311885,-0.993194,0.02002,0.158208,19.65332,45.288086,-9.70459,0,0
4065,2024 10 07,05:24:43.865,-0.678161,-0.326122,0.579562,-0.312811,-0.967803,0.063967,0.100101,13.061523,31.860352,-17.578125,0,0
4066,2024 10 07,05:24:43.873,-0.678161,-0.326122,0.579562,-0.312811,-0.967803,0.063967,0.100101,13.061523,31.860352,-17.578125,0,0
4067,2024 10 07,05:24:43.881,-0.679476,-0.327265,0.57758,-0.312429,-1.0889,0.024903,0.038575,5.67627,15.869141,-25.634766,0,0
4068,2024 10 07,05:24:43.890,-0.680913,-0.328465,0.575853,-0.311226,-1.080111,-0.017579,-0.028321,1.220703,14.770508,-30.395508,0,0
4069,2024 10 07,05:24:43.898,-0.682605,-0.329462,0.574129,-0.309646,-1.083041,0.016602,0.006836,-3.601074,16.357422,-32.226563,0,0
4070,2024 10 07,05:24:43.906,-0.684389,-0.33044,0.572138,-0.308351,-1.112339,-0.020997,-0.053713,0.915527,21.057129,-30.639648,0,0
4071,2024 10 07,05:24:43.915,-0.686081,-0.331583,0.570079,-0.307175,-1.050325,0.07178,0.097659,3.234863,17.63916,-31.799316,0,0
4072,2024 10 07,05:24:43.923,-0.686081,-0.331583,0.570079,-0.307175,-1.050325,0.07178,0.097659,3.234863,17.63916,-31.799316,0,0
4073,2024 10 07,05:24:43.931,-0.687244,-0.333454,0.568083,-0.306246,-1.119663,0.000977,0.195807,12.512207,12.512207,-32.531738,0,0
4074,2024 10 07,05:24:43.940,-0.688545,-0.335577,0.565608,-0.305585,-1.110874,-0.004395,0.12891,18.737793,18.981934,-34.057617,0,0
4075,2024 10 07,05:24:43.948,-0.689894,-0.337949,0.563106,-0.304546,-1.112827,-0.009766,0.12891,14.099121,15.50293,-40.222168,0,0
4076,2024 10 07,05:24:43.956,-0.691523,-0.340262,0.560708,-0.302696,-1.284707,-0.029298,0.41261,4.699707,12.756348,-48.522949,0,0
4077,2024 10 07,05:24:43.965,-0.694501,-0.342263,0.557364,-0.299784,-1.027863,0.001953,0.138676,-2.929688,32.958984,-62.011719,0,0
