frame,date,time,quaternion_x,quaternion_y,quaternion_z,quaternion_w,accel_x,accel_y,accel_z,gyro_x,gyro_y,gyro_z,HS,TO
17780,2024 8 08,15:42:37.565,-0.663118,0.189973,0.682401,0.241896,-0.971274,-0.102489,-0.111825,0.098059,-0.635819,-0.79317,0,0
17781,2024 8 08,15:42:37.573,-0.663128,-0.2375,0.617677,-0.349757,-0.97205,-0.106638,-0.107716,-0.189599,-0.409183,-0.536876,0,0
17782,2024 8 08,15:42:37.582,-0.663142,-0.186688,0.67864,-0.25456,-0.973793,-0.10486,-0.109905,0.322166,-0.879909,-0.648473,0,0
17783,2024 8 08,15:42:37.590,-0.663169,-0.237402,0.617615,-0.349857,-0.972486,-0.169777,-0.067271,-0.191607,-0.65915,-0.417309,0,0
17784,2024 8 08,15:42:37.598,-0.663196,-0.237368,0.617568,-0.34991,-0.970674,-0.16464,-0.070656,0.062019,-0.915796,-0.375993,0,0
17785,2024 8 08,15:42:37.607,-0.663234,-0.237324,0.617519,-0.349956,-0.969551,-0.183718,-0.096905,0.012503,-0.866851,-0.416914,0,0
17786,2024 8 08,15:42:37.615,-0.663241,-0.237316,0.617509,-0.349965,-0.969328,-0.150701,-0.114765,0.002644,-0.857106,-0.425061,0,0
17787,2024 8 08,15:42:37.623,-0.663273,-0.237283,0.617474,-0.349987,-0.973845,-0.14988,-0.028365,0.000585,-0.807532,-0.236612,0,0
17788,2024 8 08,15:42:37.632,-0.663314,-0.237255,0.617411,-0.350039,-0.972577,-0.103891,-0.107858,0.09406,-1.031516,-0.289367,0,0
17789,2024 8 08,15:42:37.640,-0.663357,-0.23721,0.617365,-0.350071,-0.973402,-0.152914,-0.044057,-0.02385,-0.896935,-0.301386,0,0
17790,2024 8 08,15:42:37.648,-0.663396,-0.237166,0.617316,-0.350113,-0.970296,-0.103893,-0.112188,-0.005932,-0.865049,-0.350086,0,0
17791,2024 8 08,15:42:37.657,-0.663423,-0.237119,0.61729,-0.35014,-0.973521,-0.107241,-0.11409,-0.092164,-0.675938,-0.407377,0,0
17792,2024 8 08,15:42:37.665,-0.66343,-0.237107,0.617283,-0.350146,-0.974342,-0.108093,-0.114574,-0.114113,-0.627802,-0.421959,0,0
17793,2024 8 08,15:42:37.673,-0.663452,-0.237075,0.617249,-0.350187,-0.969597,-0.179978,-0.078981,-0.031318,-0.880847,-0.425795,0,0
17794,2024 8 08,15:42:37.682,-0.663472,-0.237033,0.617233,-0.350206,-0.970062,-0.11143,-0.118639,-0.227776,-0.467876,-0.339266,0,0
17795,2024 8 08,15:42:37.690,-0.663488,-0.236997,0.617212,-0.350235,-0.970884,-0.112399,-0.124193,-0.152791,-0.395758,-0.35838,0,0
17796,2024 8 08,15:42:37.698,-0.663495,-0.236968,0.617194,-0.350273,-0.969408,-0.104799,-0.122364,-0.002782,-0.289391,-0.449512,0,0
17797,2024 8 08,15:42:37.707,-0.663493,-0.236938,0.617205,-0.350279,-0.97541,-0.108993,-0.116742,-0.043204,0.080825,-0.307006,0,0
17798,2024 8 08,15:42:37.715,-0.663492,-0.236929,0.617208,-0.350281,-0.977227,-0.149889,-0.00647,-0.055443,0.192926,-0.263855,0,0
17799,2024 8 08,15:42:37.723,-0.663496,-0.23692,0.617186,-0.350319,-0.971491,-0.110657,-0.114511,0.106551,-0.394012,-0.291915,0,0
17800,2024 8 08,15:42:37.732,-0.663496,-0.23692,0.617186,-0.350319,-0.969013,-0.103892,-0.117296,0.322028,-0.375332,-0.259815,0,0
17801,2024 8 08,15:42:37.740,-0.663496,-0.23692,0.617186,-0.350319,-0.971455,-0.102021,-0.11398,0.594893,-0.247524,-0.330556,0,0
17802,2024 8 08,15:42:37.748,-0.663494,-0.236904,0.617102,-0.350483,-0.974341,-0.103592,-0.115666,0.365668,-0.34035,-0.52228,0,0
17803,2024 8 08,15:42:37.757,-0.66349,-0.236875,0.617094,-0.350524,-0.972987,-0.109749,-0.112912,0.049977,-0.211422,-0.54859,0,0
17804,2024 8 08,15:42:37.765,-0.66349,-0.236875,0.617094,-0.350524,-0.972698,-0.134308,-0.110173,0.002075,-0.184281,-0.549286,0,0
17805,2024 8 08,15:42:37.773,-0.663481,-0.23686,0.617075,-0.350583,-0.970294,-0.106853,-0.119885,0.299154,-0.282851,-0.549315,0,0
17806,2024 8 08,15:42:37.782,-0.663466,-0.236842,0.61708,-0.350615,-0.968615,-0.153135,-0.120632,-0.03134,0.187485,-0.401984,0,0
17807,2024 8 08,15:42:37.790,-0.663441,-0.236844,0.617083,-0.350656,-0.972965,-0.10451,-0.119919,0.563097,0.004994,-0.417582,0,0
17808,2024 8 08,15:42:37.798,-0.663426,-0.236836,0.617078,-0.350698,-0.974037,-0.187328,-0.082178,0.191301,-0.006981,-0.426318,0,0
17809,2024 8 08,15:42:37.807,-0.663412,-0.23683,0.617073,-0.350738,-0.972633,-0.106496,-0.116417,0.404516,-0.047805,-0.333053,0,0
17810,2024 8 08,15:42:37.815,-0.663408,-0.236829,0.617072,-0.350747,-0.97225,-0.106454,-0.11581,0.478146,-0.059434,-0.308549,0,0
17811,2024 8 08,15:42:37.823,-0.6634,-0.236824,0.61707,-0.35077,-0.966713,-0.154448,-0.092961,0.120823,-0.060822,-0.351388,0,0
17812,2024 8 08,15:42:37.832,-0.663382,-0.23681,0.61709,-0.350779,-0.972002,-0.111582,-0.109183,-0.072822,0.300183,-0.228622,0,0
17813,2024 8 08,15:42:37.840,-0.663371,-0.236821,0.617074,-0.350819,-0.970964,-0.170967,0.092434,0.464753,-0.305363,-0.234755,0,0
17814,2024 8 08,15:42:37.848,-0.663364,-0.236836,0.617055,-0.350856,-0.972475,-0.105861,-0.116323,0.461008,-0.112874,-0.110675,0,0
17815,2024 8 08,15:42:37.857,-0.663369,-0.236846,0.617032,-0.350881,-0.97062,-0.150226,-0.078522,0.172863,-0.280455,-0.026463,0,0
17816,2024 8 08,15:42:37.865,-0.663371,-0.236821,0.617074,-0.350819,-0.969919,-0.111919,-0.124519,0.082091,-0.350064,-0.004983,0,0
17817,2024 8 08,15:42:37.873,-0.663372,-0.236863,0.617,-0.350918,-0.973173,-0.109862,-0.1222,0.234432,-0.320701,-0.043293,0,0
17818,2024 8 08,15:42:37.882,-0.663374,-0.236878,0.616973,-0.350952,-0.972996,-0.106419,-0.118653,0.332204,-0.224857,-0.099114,0,0
17819,2024 8 08,15:42:37.890,-0.663382,-0.23681,0.61709,-0.350779,-0.972754,-0.108928,-0.115529,0.193733,-0.233481,-0.158325,0,0
17820,2024 8 08,15:42:37.898,-0.663389,-0.236867,0.616936,-0.350998,-0.972375,-0.110682,-0.113572,0.056862,-0.32324,-0.136699,0,0
17821,2024 8 08,15:42:37.907,-0.663399,-0.236865,0.616907,-0.351031,-0.970951,-0.107311,-0.116202,0.174572,-0.436577,-0.125537,0,0
17822,2024 8 08,15:42:37.915,-0.663403,-0.236865,0.616897,-0.351042,-0.970418,-0.105924,-0.117316,0.227025,-0.475561,-0.122923,0,0
17823,2024 8 08,15:42:37.923,-0.663419,-0.236851,0.61688,-0.351049,-0.970918,-0.10779,-0.118845,0.082456,-0.367047,-0.043626,0,0
17824,2024 8 08,15:42:37.932,-0.663436,-0.236848,0.61685,-0.351073,-0.972385,-0.108911,-0.117248,0.177227,-0.438104,-0.089245,0,0
17825,2024 8 08,15:42:37.940,-0.663456,-0.23684,0.616816,-0.351099,-0.971115,-0.204589,-0.007111,0.072225,-0.513068,-0.113145,0,0
17826,2024 8 08,15:42:37.948,-0.663474,-0.23681,0.616804,-0.351108,-0.9714,-0.186716,0.044031,-0.207739,-0.197202,-0.195561,0,0
17827,2024 8 08,15:42:37.957,-0.663488,-0.236997,0.617212,-0.350235,-0.97162,-0.105899,-0.114898,-0.019976,-0.470108,-0.342851,0,0
17828,2024 8 08,15:42:37.965,-0.663494,-0.236904,0.617102,-0.350483,-0.971683,-0.105942,-0.112731,0.080013,-0.611792,-0.402258,0,0
17829,2024 8 08,15:42:37.973,-0.6635,-0.236755,0.616768,-0.351159,-0.972289,-0.108307,-0.116801,0.18279,-0.432795,-0.309411,0,0
17830,2024 8 08,15:42:37.982,-0.663512,-0.236734,0.616748,-0.351185,-0.972272,-0.108218,-0.11846,0.04329,-0.381257,-0.228111,0,0
17831,2024 8 08,15:42:37.990,-0.663523,-0.236714,0.616731,-0.351208,-0.973084,-0.105709,-0.117488,0.080095,-0.335045,-0.233409,0,0
17832,2024 8 08,15:42:37.998,-0.663533,-0.236689,0.616712,-0.351238,-0.971766,-0.105416,-0.117528,0.037231,-0.42165,-0.311802,0,0
17833,2024 8 08,15:42:38.007,-0.663544,-0.23666,0.616697,-0.351264,-0.96995,-0.105735,-0.117347,0.118017,-0.395681,-0.312887,0,0
17834,2024 8 08,15:42:38.015,-0.663551,-0.236642,0.616687,-0.35128,-0.968788,-0.105959,-0.117192,0.182648,-0.366418,-0.30523,0,0
17835,2024 8 08,15:42:38.023,-0.663564,-0.23661,0.616669,-0.35131,-0.970689,-0.179772,-0.003643,0.004072,-0.306541,-0.364852,0,0
17836,2024 8 08,15:42:38.032,-0.663564,-0.23661,0.616669,-0.35131,-0.970731,-0.1084,-0.123046,0.000151,-0.305226,-0.366161,0,0
17837,2024 8 08,15:42:38.040,-0.663566,-0.236586,0.616663,-0.351333,-0.970733,-0.104696,-0.117029,0.115797,-0.131494,-0.308314,0,0
17838,2024 8 08,15:42:38.048,-0.663577,-0.236555,0.61665,-0.351355,-0.967995,-0.178381,-0.061307,-0.163561,-0.293819,-0.305381,0,0
17839,2024 8 08,15:42:38.057,-0.663583,-0.236536,0.616635,-0.351381,-0.970067,-0.146211,-0.019288,0.211964,-0.30428,-0.248974,0,0
17840,2024 8 08,15:42:38.065,-0.663602,-0.236494,0.616636,-0.351372,-0.965795,-0.164805,-0.105076,-0.756306,-0.194262,-0.133754,0,0
17841,2024 8 08,15:42:38.073,-0.663595,-0.236489,0.616641,-0.351381,-0.973712,-0.108316,-0.121818,0.248521,-0.129639,-0.123295,0,0
17842,2024 8 08,15:42:38.082,-0.663595,-0.236489,0.616641,-0.351381,-0.97453,-0.107961,-0.121613,0.35241,-0.122958,-0.122214,0,0
17843,2024 8 08,15:42:38.090,-0.663601,-0.236478,0.616619,-0.351416,-0.974625,-0.106644,-0.117338,0.205005,-0.122185,-0.175229,0,0
17844,2024 8 08,15:42:38.098,-0.663604,-0.236471,0.616608,-0.351434,-0.972121,-0.181284,0.000172,-0.075918,-0.174509,-0.129571,0,0
17845,2024 8 08,15:42:38.107,-0.663602,-0.236494,0.616636,-0.351372,-0.970531,-0.104798,-0.117036,0.247041,-0.13007,-0.174939,0,0
17846,2024 8 08,15:42:38.115,-0.663603,-0.236447,0.616592,-0.351479,-0.973967,-0.108629,-0.122066,0.040438,-0.072335,-0.181769,0,0
17847,2024 8 08,15:42:38.123,-0.663598,-0.236454,0.616576,-0.351514,-0.9717,-0.110054,-0.113205,0.258968,-0.163771,-0.233254,0,0
17848,2024 8 08,15:42:38.132,-0.663597,-0.236455,0.616573,-0.35152,-0.97131,-0.110299,-0.111678,0.296622,-0.179526,-0.242125,0,0
17849,2024 8 08,15:42:38.140,-0.663598,-0.236454,0.616576,-0.351514,-0.969667,-0.10563,-0.122007,0.008859,-0.182406,-0.145532,0,0
17850,2024 8 08,15:42:38.148,-0.663599,-0.236426,0.616574,-0.351534,-0.975945,-0.112488,-0.115853,-0.095168,0.204991,-0.126891,0,0
17851,2024 8 08,15:42:38.157,-0.663608,-0.23642,0.616544,-0.351572,-0.969556,-0.108515,-0.118819,0.218992,-0.482725,-0.2189,0,0
17852,2024 8 08,15:42:38.165,-0.663609,-0.236415,0.616522,-0.351612,-0.974253,-0.108427,-0.120964,0.333111,-0.345095,-0.285778,0,0
17853,2024 8 08,15:42:38.173,-0.663623,-0.236409,0.616491,-0.351646,-0.972305,-0.10953,-0.119196,0.264975,-0.408009,-0.113663,0,0
17854,2024 8 08,15:42:38.182,-0.663626,-0.236408,0.616484,-0.351654,-0.971854,-0.109785,-0.118787,0.249209,-0.422566,-0.073838,0,0
17855,2024 8 08,15:42:38.190,-0.663635,-0.236408,0.616456,-0.351682,-0.972111,-0.110941,-0.118324,0.154132,-0.426066,-0.109907,0,0
17856,2024 8 08,15:42:38.198,-0.663652,-0.236398,0.61643,-0.351704,-0.97398,-0.110869,-0.122539,-0.004906,-0.381825,-0.073784,0,0
17857,2024 8 08,15:42:38.207,-0.663669,-0.236399,0.616392,-0.351738,-0.973034,-0.160061,-0.131169,0.266249,-0.504202,-0.064469,0,0
17858,2024 8 08,15:42:38.215,-0.663693,-0.236398,0.616351,-0.351766,-0.971372,-0.108883,-0.118284,0.294368,-0.492702,-0.0179,0,0
17859,2024 8 08,15:42:38.223,-0.663723,-0.236396,0.616314,-0.351776,-0.973357,-0.147204,-0.032806,0.084119,-0.445951,0.082072,0,0
17860,2024 8 08,15:42:38.232,-0.663731,-0.236396,0.616303,-0.351779,-0.973918,-0.117388,-0.123545,0.024705,-0.43274,0.110323,0,0
17861,2024 8 08,15:42:38.240,-0.663742,-0.236412,0.61627,-0.351806,-0.973057,-0.112816,-0.123541,0.220628,-0.428902,0.033257,0,0
17862,2024 8 08,15:42:38.248,-0.663755,-0.23643,0.616235,-0.351831,-0.971114,-0.107067,-0.118816,0.32122,-0.427758,0.010278,0,0
17863,2024 8 08,15:42:38.257,-0.663765,-0.236428,0.616226,-0.351828,-0.968851,-0.110316,-0.115369,-0.232104,0.03151,0.003252,0,0
17864,2024 8 08,15:42:38.265,-0.663764,-0.236443,0.616222,-0.351828,-0.972105,-0.109682,-0.115611,0.089966,-0.237457,0.083605,0,0
17865,2024 8 08,15:42:38.273,-0.663766,-0.236459,0.616201,-0.351849,-0.97086,-0.174582,-0.002757,0.111449,-0.119403,-0.013182,0,0
17866,2024 8 08,15:42:38.282,-0.663768,-0.236466,0.616191,-0.351859,-0.970246,-0.107915,-0.121093,0.122046,-0.061168,-0.060926,0,0
17867,2024 8 08,15:42:38.290,-0.663768,-0.236466,0.616191,-0.351859,-0.973148,-0.166966,0.047232,0.12207,0.234683,-0.009787,0,0
17868,2024 8 08,15:42:38.298,-0.663772,-0.236466,0.616167,-0.351893,-0.971195,-0.108597,-0.117288,0.173131,-0.131446,-0.07071,0,0
17869,2024 8 08,15:42:38.307,-0.66377,-0.236469,0.616155,-0.351917,-0.971962,-0.172126,0.009836,0.232931,-0.122512,-0.111787,0,0
17870,2024 8 08,15:42:38.315,-0.663776,-0.236475,0.616142,-0.351924,-0.97139,-0.109736,-0.122715,0.243455,-0.536517,-0.183331,0,0
17871,2024 8 08,15:42:38.323,-0.66378,-0.23649,0.616119,-0.351944,-0.970843,-0.109527,-0.118997,0.146424,-0.197051,0.021015,0,0
17872,2024 8 08,15:42:38.332,-0.663781,-0.236493,0.616115,-0.351949,-0.970742,-0.109391,-0.118241,0.124216,-0.239992,0.001851,0,0
17873,2024 8 08,15:42:38.340,-0.663793,-0.327648,0.595005,-0.313042,-0.969215,-0.180583,-0.00535,0.027382,-0.338626,0.095092,0,0
17874,2024 8 08,15:42:38.348,-0.663798,-0.236492,0.6161,-0.351945,-0.969952,-0.110165,-0.108409,-0.043683,0.104831,0.21259,0,0
17875,2024 8 08,15:42:38.357,-0.66381,-0.236508,0.616068,-0.351965,-0.968731,-0.107862,-0.111979,0.494921,-0.465589,0.055583,0,0
17876,2024 8 08,15:42:38.365,-0.663826,-0.236536,0.616023,-0.351996,-0.969809,-0.107792,-0.118568,0.647114,-0.46099,0.189734,0,0
17877,2024 8 08,15:42:38.373,-0.663844,-0.236567,0.615977,-0.352021,-0.96982,-0.110051,-0.118868,0.577941,-0.34245,0.236029,0,0
17878,2024 8 08,15:42:38.382,-0.663849,-0.236576,0.615965,-0.352027,-0.969766,-0.110716,-0.11869,0.553905,-0.311152,0.24284,0,0
17879,2024 8 08,15:42:38.390,-0.663867,-0.236603,0.61593,-0.352037,-0.970108,-0.108022,-0.119712,0.37513,-0.393685,0.375147,0,0
17880,2024 8 08,15:42:38.398,-0.663888,-0.236641,0.615892,-0.352039,-0.969529,-0.112661,-0.121083,0.317902,-0.291599,0.460949,0,0
17881,2024 8 08,15:42:38.407,-0.663903,-0.236693,0.615846,-0.352055,-0.973411,-0.106162,-0.120466,0.563416,-0.253267,0.397761,0,0
17882,2024 8 08,15:42:38.415,-0.663913,-0.236748,0.615803,-0.352073,-0.97478,-0.106696,-0.11817,0.64953,-0.245988,0.414695,0,0
17883,2024 8 08,15:42:38.423,-0.663924,-0.236802,0.61576,-0.352093,-0.974056,-0.104277,-0.120392,0.583594,-0.244533,0.383005,0,0
17884,2024 8 08,15:42:38.432,-0.663934,-0.236847,0.615724,-0.352106,-0.974407,-0.152571,-0.011076,0.63906,-0.20316,0.32887,0,0
17885,2024 8 08,15:42:38.440,-0.663937,-0.236861,0.615713,-0.35211,-0.974585,-0.103094,-0.115657,0.663908,-0.187745,0.310657,0,0
17886,2024 8 08,15:42:38.448,-0.663949,-0.236883,0.615688,-0.352119,-0.973985,-0.156881,0.002382,0.268717,-0.264396,0.266407,0,0
17887,2024 8 08,15:42:38.457,-0.66396,-0.236905,0.615658,-0.352134,-0.973743,-0.104388,-0.117523,0.50899,-0.295002,0.091239,0,0
17888,2024 8 08,15:42:38.465,-0.663967,-0.236926,0.615627,-0.35216,-0.972117,-0.10437,-0.122142,0.511994,-0.263396,0.023561,0,0
17889,2024 8 08,15:42:38.473,-0.663981,-0.236912,0.615618,-0.352159,-0.970222,-0.110035,-0.129504,-0.356813,-0.133175,-0.109817,0,0
17890,2024 8 08,15:42:38.482,-0.663997,-0.236902,0.615609,-0.352153,-0.973203,-0.115758,-0.129198,-0.296702,-0.272183,0.066619,0,0
17891,2024 8 08,15:42:38.490,-0.664002,-0.236899,0.615605,-0.352151,-0.974582,-0.117835,-0.128642,-0.215288,-0.339572,0.150104,0,0
17892,2024 8 08,15:42:38.498,-0.664017,-0.236902,0.615577,-0.352171,-0.971377,-0.11692,-0.128187,-0.04285,-0.283637,0.06127,0,0
17893,2024 8 08,15:42:38.507,-0.664034,-0.236916,0.61554,-0.352193,-0.971083,-0.111098,-0.119722,0.177944,-0.403935,0.166307,0,0
17894,2024 8 08,15:42:38.515,-0.66406,-0.236934,0.615495,-0.352212,-0.969422,-0.106503,-0.118864,0.375925,-0.499001,0.29345,0,0
17895,2024 8 08,15:42:38.523,-0.664094,-0.236948,0.615446,-0.352223,-0.970963,-0.107977,-0.118767,0.41678,-0.605902,0.307151,0,0
17896,2024 8 08,15:42:38.532,-0.664131,-0.236965,0.615392,-0.352236,-0.972374,-0.186896,0.043291,0.209012,-0.650331,0.305811,0,0
17897,2024 8 08,15:42:38.540,-0.664147,-0.236973,0.615369,-0.352241,-0.972911,0.430888,0.244494,0.109673,-0.664466,0.305385,0,0
17898,2024 8 08,15:42:38.548,-0.664176,-0.236983,0.615325,-0.352255,-0.972525,-0.153661,-0.017509,0.182553,-0.73919,0.305246,0,0
17899,2024 8 08,15:42:38.557,-0.664196,-0.236991,0.615295,-0.352265,-0.972202,-0.102116,-0.118668,0.243338,-0.79275,0.305177,0,0
17900,2024 8 08,15:42:38.565,-0.664244,-0.236991,0.61524,-0.352272,-0.972198,-0.173345,-0.035645,0.362757,-0.734118,0.305176,0,0
17901,2024 8 08,15:42:38.573,-0.664286,-0.236989,0.615192,-0.352277,-0.973132,-0.108659,-0.119407,0.015502,-0.674067,0.188322,0,0
17902,2024 8 08,15:42:38.582,-0.664327,-0.23699,0.615139,-0.352292,-0.972251,-0.107035,-0.117778,0.116004,-0.786661,0.240963,0,0
17903,2024 8 08,15:42:38.590,-0.66437,-0.236993,0.615085,-0.352303,-0.97447,0.279455,-0.084987,0.121641,-0.736257,0.187196,0,0
17904,2024 8 08,15:42:38.598,-0.664373,-0.236994,0.615081,-0.352304,-0.974625,-0.106644,-0.117338,0.122034,-0.732744,0.183449,0,0
17905,2024 8 08,15:42:38.607,-0.664415,-0.236989,0.615027,-0.352323,-0.97067,0.156272,-0.129583,0.122067,-0.842672,0.183139,0,0
17906,2024 8 08,15:42:38.615,-0.664457,-0.236989,0.614965,-0.352352,-0.975073,-0.10608,-0.124933,0.393761,-0.853195,0.128771,0,0
17907,2024 8 08,15:42:38.623,-0.664497,-0.236965,0.614922,-0.352367,-0.969547,-0.106832,-0.126281,-0.273486,-0.693569,-0.091465,0,0
17908,2024 8 08,15:42:38.632,-0.664521,-0.236956,0.614889,-0.352387,-0.971843,-0.182077,-0.001056,0.016221,-0.462924,-0.012253,0,0
17909,2024 8 08,15:42:38.640,-0.664539,-0.236945,0.61486,-0.352409,-0.97298,-0.101928,-0.122279,0.210956,-0.432441,-0.053933,0,0
17910,2024 8 08,15:42:38.648,-0.664541,-0.236944,0.614856,-0.352413,-0.973144,-0.101211,-0.122106,0.238933,-0.428061,-0.059921,0,0
17911,2024 8 08,15:42:38.657,-0.664553,-0.236939,0.614834,-0.352432,-0.972357,-0.106788,-0.124517,0.192482,-0.325814,-0.060848,0,0
17912,2024 8 08,15:42:38.665,-0.664563,-0.236944,0.614808,-0.352455,-0.974231,-0.106509,-0.120505,0.385296,-0.308864,-0.010873,0,0
17913,2024 8 08,15:42:38.673,-0.66457,-0.236937,0.614793,-0.352472,-0.973374,-0.099333,-0.128508,-0.075586,-0.157404,-0.200016,0,0
17914,2024 8 08,15:42:38.682,-0.664577,-0.236916,0.614805,-0.352452,-0.980251,-0.104248,-0.123357,-0.015069,0.066353,-0.039876,0,0
17915,2024 8 08,15:42:38.690,-0.664599,-0.236914,0.614765,-0.352483,-0.96925,-0.176878,-0.063845,0.527699,-0.516965,-0.056606,0,0
17916,2024 8 08,15:42:38.698,-0.664603,-0.236914,0.614756,-0.35249,-0.966976,-0.101689,-0.120269,0.639916,-0.637564,-0.060065,0,0
17917,2024 8 08,15:42:38.707,-0.664602,-0.236919,0.614746,-0.352507,-0.972135,-0.166707,0.032372,0.334574,-0.239859,-0.107902,0,0
17918,2024 8 08,15:42:38.715,-0.664606,-0.23692,0.614729,-0.352528,-0.972927,-0.177889,-0.039,0.26564,-0.243123,-0.072177,0,0
17919,2024 8 08,15:42:38.723,-0.664614,-0.236913,0.614715,-0.352542,-0.973481,-0.102318,-0.119872,0.29542,-0.243889,-0.201706,0,0
17920,2024 8 08,15:42:38.732,-0.664622,-0.236914,0.61469,-0.352571,-0.972162,-0.102485,-0.121511,0.211811,-0.334948,-0.142424,0,0
17921,2024 8 08,15:42:38.740,-0.664637,-0.236897,0.614666,-0.352595,-0.972548,-0.102527,-0.120848,0.370329,-0.402861,-0.217268,0,0
17922,2024 8 08,15:42:38.748,-0.664641,-0.236893,0.61466,-0.352601,-0.972648,-0.102538,-0.120674,0.41173,-0.420599,-0.236815,0,0
17923,2024 8 08,15:42:38.757,-0.664653,-0.23687,0.614646,-0.352617,-0.973378,-0.106755,-0.129407,-0.103846,-0.425379,-0.285978,0,0
17924,2024 8 08,15:42:38.765,-0.664668,-0.236844,0.614633,-0.35263,-0.972886,-0.112787,-0.130095,-0.203613,-0.296495,-0.169419,0,0
17925,2024 8 08,15:42:38.773,-0.664684,-0.236832,0.614602,-0.352662,-0.971028,-0.107643,-0.126515,-0.017495,-0.431372,-0.13612,0,0
17926,2024 8 08,15:42:38.782,-0.664695,-0.23682,0.614579,-0.35269,-0.972521,-0.10919,-0.121728,0.037129,-0.386047,-0.168802,0,0
17927,2024 8 08,15:42:38.790,-0.664709,-0.236806,0.614549,-0.352724,-0.970619,-0.203198,-0.023679,0.179564,-0.498385,-0.178644,0,0
17928,2024 8 08,15:42:38.798,-0.664713,-0.236802,0.61454,-0.352735,-0.970031,-0.102325,-0.118962,0.223521,-0.533053,-0.181681,0,0
17929,2024 8 08,15:42:38.807,-0.664726,-0.236784,0.614524,-0.35275,-0.970504,-0.105431,-0.121716,0.196302,-0.461794,-0.223746,0,0
17930,2024 8 08,15:42:38.815,-0.664739,-0.236781,0.614493,-0.352782,-0.973585,-0.106109,-0.122931,0.146832,-0.43877,-0.196662,0,0
17931,2024 8 08,15:42:38.823,-0.664757,-0.236764,0.614454,-0.352829,-0.970927,-0.103096,-0.125628,-0.034752,-0.374999,-0.287904,0,0
17932,2024 8 08,15:42:38.832,-0.664758,-0.236737,0.614446,-0.352858,-0.97191,-0.098432,-0.117726,0.19728,-0.160261,-0.356308,0,0
17933,2024 8 08,15:42:38.840,-0.664742,-0.236683,0.61448,-0.352865,-0.976654,-0.105811,-0.118709,-0.366776,0.333307,-0.619632,0,0
17934,2024 8 08,15:42:38.848,-0.664736,-0.236655,0.61447,-0.352911,-0.96792,-0.10374,-0.121122,0.168168,-0.477772,-0.568654,0,0
17935,2024 8 08,15:42:38.857,-0.664736,-0.236655,0.61447,-0.352911,-0.965988,-0.179036,-0.06703,0.296059,-0.658504,-0.550603,0,0
17936,2024 8 08,15:42:38.865,-0.664721,-0.236631,0.614478,-0.352943,-0.970523,-0.148316,0.038483,0.158773,-0.13622,-0.452304,0,0
17937,2024 8 08,15:42:38.873,-0.664714,-0.236604,0.614478,-0.352974,-0.970067,-0.146211,-0.019288,0.173355,-0.108421,-0.525311,0,0
17938,2024 8 08,15:42:38.882,-0.664697,-0.236561,0.614503,-0.35299,-0.970167,-0.107859,-0.112355,-0.242661,0.209724,-0.64116,0,0
17939,2024 8 08,15:42:38.890,-0.664677,-0.236553,0.614508,-0.353026,-0.971725,-0.10814,-0.111767,0.206867,-0.124963,-0.435118,0,0
17940,2024 8 08,15:42:38.898,-0.664656,-0.236558,0.614508,-0.353062,-0.971034,-0.105005,-0.11879,0.253636,0.046808,-0.329291,0,0
17941,2024 8 08,15:42:38.907,-0.66465,-0.23656,0.614509,-0.353071,-0.970776,-0.104149,-0.12077,0.24549,0.111377,-0.308602,0,0
17942,2024 8 08,15:42:38.915,-0.664639,-0.236554,0.614512,-0.353089,-0.970382,-0.107603,-0.130341,0.199667,0.031068,-0.350382,0,0
17943,2024 8 08,15:42:38.923,-0.664632,-0.23654,0.614513,-0.353109,-0.971678,-0.112559,-0.13393,-0.034637,-0.083074,-0.319512,0,0
17944,2024 8 08,15:42:38.932,-0.664628,-0.236532,0.614495,-0.353155,-0.971758,-0.111177,-0.1294,0.11088,-0.202273,-0.351213,0,0
17945,2024 8 08,15:42:38.940,-0.66462,-0.236515,0.614493,-0.353185,-0.972062,-0.113601,-0.12334,-0.131085,-0.021527,-0.320456,0,0
17946,2024 8 08,15:42:38.948,-0.664606,-0.23692,0.614729,-0.352528,-0.971492,-0.106718,-0.119162,0.117429,-0.209705,-0.477865,0,0
17947,2024 8 08,15:42:38.957,-0.664601,-0.2365,0.614481,-0.353252,-0.971277,-0.104179,-0.117985,0.217999,-0.28548,-0.534576,0,0
17948,2024 8 08,15:42:38.965,-0.664607,-0.23646,0.614488,-0.353255,-0.971233,-0.107634,-0.119401,-0.299407,-0.052659,-0.422001,0,0
17949,2024 8 08,15:42:38.973,-0.664607,-0.23646,0.614488,-0.353255,-0.971224,-0.109312,-0.122901,-0.125071,-0.332476,-0.378799,0,0
17950,2024 8 08,15:42:38.982,-0.664609,-0.236417,0.614467,-0.353316,-0.971868,-0.110059,-0.122198,0.172523,-0.370913,-0.40955,0,0
17951,2024 8 08,15:42:38.990,-0.664617,-0.236398,0.614447,-0.353347,-0.97084,-0.112837,-0.123012,-0.006508,-0.447162,-0.343124,0,0
17952,2024 8 08,15:42:38.998,-0.664629,-0.236358,0.614436,-0.353371,-0.968818,-0.112639,-0.126245,-0.487173,-0.359582,-0.433073,0,0
17953,2024 8 08,15:42:39.007,-0.664633,-0.236343,0.614433,-0.353379,-0.968068,-0.112395,-0.127492,-0.668268,-0.319408,-0.473839,0,0
17954,2024 8 08,15:42:39.015,-0.664641,-0.236893,0.61466,-0.352601,-0.967875,-0.153153,-0.098074,0.171048,-0.617244,-0.407325,0,0
17955,2024 8 08,15:42:39.023,-0.664653,-0.23687,0.614646,-0.352617,-0.971175,-0.218548,-0.027797,0.189304,-0.439682,-0.415746,0,0
17956,2024 8 08,15:42:39.032,-0.664669,-0.236264,0.614365,-0.353482,-0.974108,-0.112246,-0.128026,-0.423626,-0.381367,-0.386288,0,0
17957,2024 8 08,15:42:39.040,-0.664679,-0.236232,0.614342,-0.353525,-0.97398,-0.110869,-0.122539,-0.088663,-0.556901,-0.55835,0,0
17958,2024 8 08,15:42:39.048,-0.664695,-0.23682,0.614579,-0.35269,-0.972285,-0.116498,-0.12546,-0.193692,-0.378941,-0.379379,0,0
17959,2024 8 08,15:42:39.057,-0.664701,-0.236179,0.614317,-0.353562,-0.97155,-0.120347,-0.12346,-0.270653,-0.285884,-0.28602,0,0
17960,2024 8 08,15:42:39.065,-0.664713,-0.236802,0.61454,-0.352735,-0.971902,-0.154263,-0.012202,0.030187,-0.617839,-0.185327,0,0
17961,2024 8 08,15:42:39.073,-0.664731,-0.236154,0.614256,-0.353629,-0.972958,-0.224651,-0.154934,-0.217548,-0.349778,-0.17825,0,0
17962,2024 8 08,15:42:39.082,-0.664744,-0.236124,0.614236,-0.35366,-0.970606,-0.108326,-0.123341,-0.146014,-0.268117,-0.252073,0,0
17963,2024 8 08,15:42:39.090,-0.664752,-0.236105,0.614223,-0.35368,-0.968786,-0.106455,-0.115267,-0.06134,-0.244227,-0.304985,0,0
17964,2024 8 08,15:42:39.098,-0.664775,-0.236071,0.614191,-0.353715,-0.96878,-0.166771,-0.073981,0.537742,-0.842925,-0.36505,0,0
17965,2024 8 08,15:42:39.107,-0.664796,-0.236043,0.614156,-0.353755,-0.973969,-0.18426,-0.086583,-0.276639,-0.323381,-0.307203,0,0
17966,2024 8 08,15:42:39.115,-0.664797,-0.236042,0.614155,-0.353756,-0.974142,-0.110348,-0.123046,-0.303797,-0.306055,-0.305274,0,0
17967,2024 8 08,15:42:39.123,-0.664813,-0.236025,0.614115,-0.353807,-0.975524,-0.107149,-0.123966,0.496135,-0.820304,-0.362412,0,0
17968,2024 8 08,15:42:39.132,-0.66485,-0.235989,0.614065,-0.353847,-0.96478,-0.154063,-0.118334,0.094085,-0.795496,-0.253124,0,0
17969,2024 8 08,15:42:39.140,-0.664873,-0.235972,0.614018,-0.353895,-0.966199,-0.175263,-0.06543,0.675489,-1.016005,-0.411716,0,0
17970,2024 8 08,15:42:39.148,-0.664891,-0.235916,0.614022,-0.353892,-0.975532,-0.118086,-0.130996,-0.424328,-0.103681,-0.370855,0,0
17971,2024 8 08,15:42:39.157,-0.664924,-0.235883,0.613973,-0.353939,-0.969553,-0.111241,-0.124825,0.059482,-0.93062,-0.258655,0,0
17972,2024 8 08,15:42:39.165,-0.664928,-0.235879,0.613967,-0.353945,-0.968878,-0.110467,-0.124128,0.11414,-1.024043,-0.24598,0,0
17973,2024 8 08,15:42:39.173,-0.664944,-0.235841,0.613953,-0.353963,-0.976365,-0.114998,-0.127406,-0.299668,-0.40476,-0.296975,0,0
17974,2024 8 08,15:42:39.182,-0.664963,-0.235816,0.613916,-0.354009,-0.971993,-0.105656,-0.119139,0.266302,-0.683259,-0.355823,0,0
17975,2024 8 08,15:42:39.190,-0.664986,-0.235763,0.6139,-0.354028,-0.970526,-0.153797,-0.022937,-0.315413,-0.417334,-0.466923,0,0
17976,2024 8 08,15:42:39.198,-0.664999,-0.235745,0.613881,-0.354049,-0.983228,-0.113689,-0.147111,0.097279,-0.526594,-0.080387,0,0
17977,2024 8 08,15:42:39.207,-0.66504,-0.235712,0.613811,-0.354115,-0.968628,-0.113359,-0.137425,0.06766,-0.844431,-0.313963,0,0
17978,2024 8 08,15:42:39.215,-0.665063,-0.235685,0.613774,-0.354154,-0.969144,-0.112905,-0.125039,0.062315,-0.901794,-0.356118,0,0
17979,2024 8 08,15:42:39.223,-0.665068,-0.235679,0.613767,-0.354161,-0.969243,-0.166403,-0.100034,-0.279105,-0.718222,-0.218274,0,0
17980,2024 8 08,15:42:39.232,-0.665089,-0.235662,0.613727,-0.354203,-0.973105,-0.105117,-0.122971,0.324732,-0.777422,-0.286655,0,0
17981,2024 8 08,15:42:39.240,-0.665119,-0.235644,0.61368,-0.35424,-0.97202,-0.1405,-0.094019,0.309532,-0.789885,-0.15873,0,0
17982,2024 8 08,15:42:39.248,-0.665142,-0.235636,0.613631,-0.354286,-0.968407,-0.236705,0.016759,0.353054,-0.698893,-0.177447,0,0
17983,2024 8 08,15:42:39.257,-0.665164,-0.235591,0.61362,-0.354295,-0.96906,-0.1646,-0.058127,-0.424208,-0.214939,-0.274357,0,0
17984,2024 8 08,15:42:39.265,-0.665186,-0.235573,0.613585,-0.354325,-0.971046,-0.214383,0.036618,0.259954,-0.740223,-0.205939,0,0
17985,2024 8 08,15:42:39.273,-0.665191,-0.235569,0.613577,-0.354332,-0.971538,-0.108392,-0.131086,0.429154,-0.870131,-0.189018,0,0
17986,2024 8 08,15:42:39.282,-0.665209,-0.235563,0.613539,-0.354369,-0.972379,-0.149323,-0.030341,0.338339,-0.545715,-0.184687,0,0
17987,2024 8 08,15:42:39.290,-0.665235,-0.235546,0.613499,-0.3544,-0.971894,-0.15025,-0.043178,0.358523,-0.725122,-0.139342,0,0
17988,2024 8 08,15:42:39.298,-0.665266,-0.23554,0.613438,-0.354451,-0.967916,-0.108559,-0.120686,0.232921,-0.905157,-0.258082,0,0
17989,2024 8 08,15:42:39.307,-0.665304,-0.235507,0.613398,-0.354472,-0.968527,-0.170942,-0.088598,-0.191292,-0.826068,-0.204995,0,0
17990,2024 8 08,15:42:39.315,-0.665328,-0.235474,0.613382,-0.354476,-0.975543,-0.100465,-0.104951,-0.228299,-0.375832,-0.189667,0,0
17991,2024 8 08,15:42:39.323,-0.665335,-0.235464,0.613377,-0.354477,-0.977623,-0.115594,-0.127423,-0.239271,-0.242344,-0.185122,0,0
17992,2024 8 08,15:42:39.332,-0.665365,-0.235438,0.613333,-0.354515,-0.967883,-0.173164,0.086904,-0.075331,-0.829045,-0.18374,0,0
17993,2024 8 08,15:42:39.340,-0.665401,-0.235413,0.613286,-0.354545,-0.970146,-0.185371,-0.01578,0.182602,-0.804921,-0.141936,0,0
17994,2024 8 08,15:42:39.348,-0.665438,-0.235384,0.613231,-0.354589,-0.968574,-0.108895,-0.128501,0.18294,-0.960981,-0.251424,0,0
17995,2024 8 08,15:42:39.357,-0.665474,-0.235351,0.613181,-0.354631,-0.966766,-0.107595,-0.128449,0.021009,-0.768772,-0.2871,0,0
17996,2024 8 08,15:42:39.365,-0.66551,-0.235293,0.613148,-0.354659,-0.967528,-0.109027,-0.125092,-0.163915,-0.360619,-0.304917,0,0
17997,2024 8 08,15:42:39.373,-0.665513,-0.235285,0.613146,-0.354661,-0.967795,-0.109368,-0.124532,-0.182542,-0.306803,-0.305168,0,0
17998,2024 8 08,15:42:39.382,-0.665522,-0.235242,0.613156,-0.354656,-0.975877,-0.113415,-0.12169,-0.435396,-0.103395,-0.254712,0,0
17999,2024 8 08,15:42:39.390,-0.66554,-0.235211,0.613128,-0.354693,-0.967129,-0.109439,-0.124712,-0.087482,-0.660086,-0.344186,0,0
18000,2024 8 08,15:42:39.398,-0.665544,-0.235192,0.613108,-0.354732,-0.970914,-0.106517,-0.126612,0.53261,-0.391952,-0.364629,0,0
18001,2024 8 08,15:42:39.407,-0.665557,-0.235166,0.613078,-0.354775,-0.970543,-0.113347,-0.130404,0.176706,-0.457426,-0.414362,0,0
18002,2024 8 08,15:42:39.415,-0.665569,-0.235143,0.613055,-0.354808,-0.969893,-0.114671,-0.130497,0.024788,-0.437651,-0.330779,0,0
18003,2024 8 08,15:42:39.423,-0.665572,-0.235138,0.61305,-0.354815,-0.969771,-0.114741,-0.130389,0.002746,-0.428399,-0.308012,0,0
18004,2024 8 08,15:42:39.431,-0.665576,-0.235132,0.613031,-0.354845,-0.966795,-0.114008,-0.123341,0.046627,-0.381099,-0.259236,0,0
18005,2024 8 08,15:42:39.440,-0.665579,-0.235121,0.613027,-0.354853,-0.965612,-0.108325,-0.136012,0.013431,-0.276902,-0.063541,0,0
18006,2024 8 08,15:42:39.448,-0.665583,-0.235095,0.613026,-0.354864,-0.971885,-0.117175,-0.144638,-0.268312,0.111432,-0.099406,0,0
18007,2024 8 08,15:42:39.456,-0.665587,-0.235092,0.612991,-0.354919,-0.970237,-0.136307,-0.111985,0.049296,-0.310212,-0.251844,0,0
18008,2024 8 08,15:42:39.465,-0.665581,-0.235092,0.612976,-0.354957,-0.971888,-0.110843,-0.127208,-0.146576,-0.063387,-0.208431,0,0
18009,2024 8 08,15:42:39.473,-0.665578,-0.235092,0.612973,-0.354966,-0.972543,-0.110042,-0.124999,-0.22662,0.038691,-0.187653,0,0
18010,2024 8 08,15:42:39.481,-0.665564,-0.235084,0.612977,-0.354992,-0.969922,-0.162066,-0.072248,0.272217,0.014037,-0.397731,0,0
18011,2024 8 08,15:42:39.490,-0.665543,-0.235062,0.612995,-0.355014,-0.972386,-0.155405,-0.084386,-0.01934,0.298314,-0.512367,0,0
18012,2024 8 08,15:42:39.498,-0.665516,-0.235048,0.613005,-0.355057,-0.97206,-0.111599,-0.132069,-0.02362,0.108318,-0.624933,0,0
18013,2024 8 08,15:42:39.506,-0.665497,-0.235022,0.613024,-0.355079,-0.96948,-0.114685,-0.127505,-0.293447,0.188529,-0.455278,0,0
18014,2024 8 08,15:42:39.515,-0.665474,-0.235351,0.613181,-0.354631,-0.968889,-0.112935,-0.12693,-0.111806,0.027988,-0.427313,0,0
18015,2024 8 08,15:42:39.523,-0.665467,-0.235,0.61304,-0.355121,-0.968806,-0.163271,-0.071266,-0.026667,-0.039802,-0.427262,0,0
18016,2024 8 08,15:42:39.531,-0.665456,-0.234984,0.613051,-0.355134,-0.968468,-0.110932,-0.128544,-0.0066,0.103092,-0.347814,0,0
18017,2024 8 08,15:42:39.540,-0.665434,-0.23498,0.613064,-0.355154,-0.972105,-0.109682,-0.115611,0.076815,0.20185,-0.355358,0,0
18018,2024 8 08,15:42:39.548,-0.665414,-0.234972,0.613073,-0.355181,-0.970194,-0.199475,-0.073497,-0.045118,0.232938,-0.363336,0,0
18019,2024 8 08,15:42:39.556,-0.665408,-0.234952,0.613079,-0.355196,-0.970394,-0.106783,-0.119111,-0.024325,-0.180845,-0.480495,0,0
18020,2024 8 08,15:42:39.565,-0.665399,-0.234916,0.613096,-0.355207,-0.977615,-0.109434,-0.116499,-0.196465,-0.054493,-0.492019,0,0
18021,2024 8 08,15:42:39.573,-0.665395,-0.234902,0.613104,-0.355211,-0.980705,-0.110782,-0.115256,-0.2737,0.027585,-0.489363,0,0
18022,2024 8 08,15:42:39.581,-0.665402,-0.23487,0.613088,-0.355245,-0.976545,-0.110871,-0.118461,0.037956,-0.542283,-0.525689,0,0
18023,2024 8 08,15:42:39.590,-0.665425,-0.234826,0.613055,-0.355288,-0.971021,-0.104201,-0.112124,-0.075522,-0.728304,-0.468747,0,0
18024,2024 8 08,15:42:39.598,-0.66545,-0.234787,0.613012,-0.355343,-0.971421,-0.108508,-0.125993,0.249647,-0.84566,-0.476502,0,0
18025,2024 8 08,15:42:39.606,-0.665486,-0.234737,0.612961,-0.355395,-0.96678,-0.107107,-0.130184,-0.054713,-0.964968,-0.484513,0,0
18026,2024 8 08,15:42:39.615,-0.665512,-0.234673,0.612934,-0.355435,-0.964511,-0.154594,-0.119082,-0.08118,-0.623158,-0.593598,0,0
18027,2024 8 08,15:42:39.623,-0.665549,-0.234609,0.612885,-0.355493,-0.960403,-0.100491,-0.096233,-0.067767,-0.452072,-0.645393,0,0
18028,2024 8 08,15:42:39.631,-0.665574,-0.234567,0.612851,-0.355532,-0.957576,-0.09817,-0.086523,-0.0611,-0.367038,-0.671136,0,0
18029,2024 8 08,15:42:39.640,-0.665574,-0.234567,0.612851,-0.355532,-0.957549,-0.098148,-0.086431,0.296089,-1.854254,-1.32611,0,0
18030,2024 8 08,15:42:39.648,-0.665555,-0.234454,0.612909,-0.35554,-0.97115,-0.113155,-0.121603,-0.809005,-0.073307,-1.400737,0,0
18031,2024 8 08,15:42:39.656,-0.665552,-0.234342,0.612937,-0.355573,-0.967983,-0.11374,-0.136833,-0.563293,-0.177196,-1.172642,0,0
18032,2024 8 08,15:42:39.665,-0.665527,-0.234246,0.612991,-0.355591,-0.989667,-0.109218,-0.144925,-1.176204,0.50014,-0.932931,0,0
18033,2024 8 08,15:42:39.673,-0.665526,-0.234155,0.613005,-0.355629,-0.965539,-0.112506,-0.125723,-0.600192,-0.295902,-1.309512,0,0
18034,2024 8 08,15:42:39.681,-0.665492,-0.23409,0.613059,-0.355641,-0.96582,-0.170188,-0.017331,-0.277695,0.359097,-0.897373,0,0
18035,2024 8 08,15:42:39.690,-0.665489,-0.234084,0.613064,-0.355642,-0.965847,-0.186526,-0.075686,-0.247729,0.419957,-0.859079,0,0
18036,2024 8 08,15:42:39.698,-0.66547,-0.234058,0.61308,-0.355668,-0.962409,-0.189459,-0.091367,0.131699,0.050109,-0.532525,0,0
18037,2024 8 08,15:42:39.706,-0.665447,-0.23405,0.613096,-0.355688,-0.96455,-0.123817,-0.131045,-0.088739,0.377711,-0.282019,0,0
18038,2024 8 08,15:42:39.715,-0.665419,-0.123338,0.692863,-0.24889,-0.967756,-0.179115,-0.00512,0.248827,0.158639,-0.040342,0,0
18039,2024 8 08,15:42:39.723,-0.665404,-0.234108,0.613096,-0.355731,-0.967383,-0.113363,-0.128634,0.193255,0.127718,-0.00623,0,0
18040,2024 8 08,15:42:39.731,-0.66539,-0.234154,0.613075,-0.355762,-0.968956,-0.110445,-0.121938,0.897832,0.021141,0.100832,0,0
18041,2024 8 08,15:42:39.740,-0.665388,-0.234161,0.613072,-0.355767,-0.969213,-0.159639,-0.037641,1.012952,0.003728,0.118325,0,0
18042,2024 8 08,15:42:39.748,-0.665377,-0.234187,0.613072,-0.35577,-0.969655,-0.113062,-0.12105,0.090026,0.298475,0.171,0,0
18043,2024 8 08,15:42:39.756,-0.665354,-0.234229,0.613063,-0.355801,-0.972088,-0.106184,-0.125793,0.850804,0.058838,-0.015294,0,0
18044,2024 8 08,15:42:39.765,-0.665328,-0.235474,0.613382,-0.354476,-0.974111,-0.101361,-0.125167,0.660158,0.302543,-0.196738,0,0
18045,2024 8 08,15:42:39.773,-0.665306,0.156374,0.673275,0.282147,-0.970701,-0.109934,-0.127716,-0.191392,0.400198,-0.425047,0,0
18046,2024 8 08,15:42:39.781,-0.665276,-0.234215,0.613131,-0.355841,-0.972236,-0.110637,-0.124485,-0.232197,0.515553,-0.521179,0,0
18047,2024 8 08,15:42:39.790,-0.665269,-0.234208,0.61314,-0.355841,-0.97258,-0.151206,-0.083295,-0.241325,0.541358,-0.542684,0,0
18048,2024 8 08,15:42:39.798,-0.665242,-0.234202,0.613149,-0.35588,-0.969341,-0.110463,-0.121381,0.171398,0.132518,-0.685976,0,0
18049,2024 8 08,15:42:39.806,-0.665203,-0.234183,0.61318,-0.355913,-0.974753,-0.108196,-0.124085,-0.093186,0.489149,-0.675087,0,0
18050,2024 8 08,15:42:39.815,-0.665169,-0.234138,0.613216,-0.355944,-0.971067,-0.111229,-0.121881,-0.114494,0.263382,-0.852459,0,0
18051,2024 8 08,15:42:39.823,-0.665124,-0.234118,0.613254,-0.355976,-0.972604,-0.164116,-0.106319,0.236054,0.29386,-0.720414,0,0
18052,2024 8 08,15:42:39.831,-0.665081,-0.23406,0.613293,-0.356026,-0.972663,-0.118175,-0.154552,-0.814228,0.830074,-0.993099,0,0
18053,2024 8 08,15:42:39.840,-0.665069,-0.234044,0.613304,-0.35604,-0.972679,-0.120954,-0.155766,-1.104001,0.978016,-1.068333,0,0
18054,2024 8 08,15:42:39.848,-0.665003,-0.233995,0.61337,-0.356081,-0.97234,-0.226199,0.026564,-0.799012,1.06305,-1.175753,0,0
18055,2024 8 08,15:42:39.856,-0.664916,-0.233954,0.613458,-0.35612,-0.98654,-0.11019,-0.160833,-0.41212,1.002745,-1.036865,0,0
18056,2024 8 08,15:42:39.865,-0.664829,-0.233844,0.613556,-0.356186,-0.973954,-0.114008,-0.138816,-1.390765,1.489841,-1.795101,0,0
18057,2024 8 08,15:42:39.873,-0.664685,-0.233731,0.613739,-0.356214,-0.999409,-0.109183,-0.150714,-1.191441,1.972521,-1.986211,0,0
18058,2024 8 08,15:42:39.881,-0.664551,-0.233589,0.613873,-0.356327,-0.975106,-0.108656,-0.119184,-0.922776,1.464995,-3.158754,0,0
18059,2024 8 08,15:42:39.890,-0.664507,-0.233543,0.613916,-0.356363,-0.967292,-0.166492,-0.066635,-0.836394,1.301814,-3.535753,0,0
18060,2024 8 08,15:42:39.898,-0.664282,-0.233383,0.614203,-0.356394,-0.996203,-0.094535,-0.160759,-0.898715,2.79682,-3.144463,0,0
18061,2024 8 08,15:42:39.906,-0.664047,-0.233143,0.614487,-0.356499,-1.01049,-0.09909,0.0659,-2.621782,3.512037,-4.191362,0,0
18062,2024 8 08,15:42:39.915,-0.663685,-0.232779,0.614956,-0.356603,-1.00851,-0.089467,-0.129504,-4.650522,5.278658,-6.984859,0,0
18063,2024 8 08,15:42:39.923,-0.663159,-0.232246,0.615682,-0.356677,-1.050421,-0.065833,-0.15489,-5.188019,7.203997,-9.387901,0,0
18064,2024 8 08,15:42:39.931,-0.662519,-0.231515,0.616479,-0.356963,-1.048738,-0.073601,-0.102275,-4.899133,7.495792,-13.70384,0,0
18065,2024 8 08,15:42:39.940,-0.662396,-0.231372,0.616631,-0.357023,-1.047048,-0.075976,-0.089903,-4.82774,7.506435,-14.575624,0,0
18066,2024 8 08,15:42:39.948,-0.661635,-0.230598,0.617469,-0.357485,-1.054219,0.116715,0.005855,-4.630248,8.467585,-18.57926,0,0
18067,2024 8 08,15:42:39.956,-0.660597,-0.229544,0.618453,-0.358379,-1.049165,-0.102224,-0.117698,-3.068181,8.275112,-22.856375,0,0
18068,2024 8 08,15:42:39.965,-0.659368,-0.228329,0.619477,-0.359648,-1.06702,-0.092912,-0.122735,-1.135292,8.423262,-27.770134,0,0
18069,2024 8 08,15:42:39.973,-0.657922,-0.226946,0.620589,-0.361249,-1.092309,-0.08766,-0.127972,0.657817,9.028645,-32.855717,0,0
18070,2024 8 08,15:42:39.981,-0.656238,-0.225334,0.62181,-0.363216,-1.085539,-0.091687,-0.106671,0.726305,9.689734,-38.914417,0,0
18071,2024 8 08,15:42:39.990,-0.655801,-0.224917,0.622124,-0.363728,-1.082589,-0.093026,-0.100264,0.679679,9.857804,-40.491081,0,0
18072,2024 8 08,15:42:39.998,-0.654312,-0.223386,0.62317,-0.365555,-1.109745,-0.093226,-0.10037,1.468735,9.396401,-44.750248,0,0
18073,2024 8 08,15:42:40.006,-0.652329,-0.221145,0.624564,-0.368069,-1.11835,-0.100591,-0.091821,-0.115319,9.116534,-50.810604,0,0
18074,2024 8 08,15:42:40.015,-0.650137,-0.218421,0.626087,-0.370972,-1.115339,-0.111943,-0.084877,-0.711984,7.88515,-57.363014,0,0
18075,2024 8 08,15:42:40.023,-0.647786,-0.215261,0.627697,-0.374194,-1.119547,-0.136827,-0.08366,-1.93292,7.141913,-63.501232,0,0
18076,2024 8 08,15:42:40.031,-0.645266,-0.211752,0.62934,-0.377768,-1.111111,-0.161038,-0.066055,-0.951318,6.27482,-69.276405,0,0
18077,2024 8 08,15:42:40.040,-0.644479,-0.210653,0.62985,-0.378889,-1.107854,-0.168409,-0.059808,-0.539367,5.996233,-71.050377,0,0
18078,2024 8 08,15:42:40.048,-0.642345,-0.207889,0.631123,-0.3819,-1.111756,-0.196197,-0.028978,1.187035,6.920966,-74.335106,0,0
18079,2024 8 08,15:42:40.056,-0.639509,-0.204383,0.632632,-0.386023,-1.075103,-0.237482,0.012837,5.546544,5.819504,-77.817886,0,0
18080,2024 8 08,15:42:40.065,-0.636331,-0.200873,0.634042,-0.390768,-1.0406,0.073394,-0.083479,11.846075,6.461035,-80.216118,0,0
18081,2024 8 08,15:42:40.073,-0.632761,-0.197655,0.635415,-0.395936,-1.035873,-0.298932,0.063787,17.956802,9.79229,-81.811638,0,0
18082,2024 8 08,15:42:40.081,-0.628906,-0.194836,0.636634,-0.401475,-1.025098,-0.321781,0.088901,24.994822,10.84847,-82.218475,0,0
18083,2024 8 08,15:42:40.090,-0.624867,-0.407917,0.535851,-0.394979,-1.02378,0.111239,-0.123086,32.15892,12.049005,-81.764023,0,0
18084,2024 8 08,15:42:40.098,-0.623387,-0.191555,0.637966,-0.40949,-1.023908,-0.34181,0.103245,34.768993,12.516593,-81.559937,0,0
18085,2024 8 08,15:42:40.106,-0.62025,-0.190267,0.638515,-0.413963,-0.993434,-0.351663,0.124076,39.711452,14.154735,-79.691788,0,0
18086,2024 8 08,15:42:40.115,-0.616123,-0.189138,0.639047,-0.419768,-0.969087,-0.345887,0.155127,45.901028,16.716251,-76.496094,0,0
18087,2024 8 08,15:42:40.123,-0.611579,-0.188628,0.639464,-0.425954,-0.979829,-0.328806,0.17078,53.13364,20.515743,-71.804482,0,0
18088,2024 8 08,15:42:40.131,-0.606923,-0.188927,0.63956,-0.432284,-0.974641,-0.247655,0.192006,62.234329,21.59816,-65.063759,0,0
18089,2024 8 08,15:42:40.140,-0.602475,-0.190211,0.639071,-0.438615,-0.964359,-0.146454,0.16656,71.062241,20.445368,-54.568069,0,0
18090,2024 8 08,15:42:40.148,-0.600687,-0.190786,0.63884,-0.44118,-0.960077,-0.104809,0.153297,74.605461,19.867609,-50.101925,0,0
18091,2024 8 08,15:42:40.156,-0.597858,-0.192715,0.637797,-0.44566,-0.902398,-0.013409,0.152458,81.467026,18.126791,-41.743027,0,0
18092,2024 8 08,15:42:40.165,-0.59594,-0.194072,0.637058,-0.44872,-0.860871,0.049799,0.152837,86.181076,16.906885,-36.011429,0,0
18093,2024 8 08,15:42:40.173,-0.592166,-0.198013,0.635191,-0.4546,-0.797897,0.095471,0.138416,89.906799,23.035248,-26.517576,0,0
18094,2024 8 08,15:42:40.181,-0.588411,-0.202961,0.633382,-0.459788,-0.813024,0.131674,0.1079,91.265701,29.933645,-13.059045,0,0
18095,2024 8 08,15:42:40.190,-0.584969,-0.209131,0.631348,-0.46419,-0.871295,0.22042,0.096723,93.463005,33.463474,2.382678,0,0
18096,2024 8 08,15:42:40.198,-0.581864,-0.215733,0.629174,-0.468006,-0.851378,0.239986,0.070042,92.182709,33.390808,9.672555,0,0
18097,2024 8 08,15:42:40.206,-0.581683,-0.216118,0.629047,-0.468229,-0.850215,0.241128,0.068484,92.107941,33.386566,10.098318,0,0
18098,2024 8 08,15:42:40.215,-0.578963,-0.222361,0.62697,-0.471445,-0.798377,0.234964,0.043833,89.648758,33.720867,13.251963,0,0
18099,2024 8 08,15:42:40.223,-0.575975,-0.229237,0.625001,-0.474414,-0.800125,0.239278,0.0325,85.975906,39.796944,17.478701,0,0
18100,2024 8 08,15:42:40.231,-0.572935,-0.236433,0.623312,-0.476778,-0.834992,0.249675,0.003634,81.659142,44.565701,22.988091,0,0
18101,2024 8 08,15:42:40.240,-0.570096,-0.243754,0.621786,-0.478482,-0.869205,0.252105,-0.021363,75.783234,46.267765,28.888578,0,0
18102,2024 8 08,15:42:40.248,-0.567549,-0.251039,0.620427,-0.479507,-0.876345,0.237213,-0.037501,68.682976,46.792454,34.093273,0,0
18103,2024 8 08,15:42:40.256,-0.567207,-0.252016,0.620245,-0.479644,-0.877302,0.235216,-0.039666,67.730705,46.862823,34.791317,0,0
18104,2024 8 08,15:42:40.265,-0.565255,-0.258269,0.619229,-0.479928,-0.869227,0.21562,-0.058054,61.379555,47.437843,38.230236,0,0
18105,2024 8 08,15:42:40.273,-0.563154,-0.265217,0.618357,-0.479728,-0.876069,0.190252,-0.058909,55.063526,50.517673,41.302841,0,0
18106,2024 8 08,15:42:40.281,-0.561073,-0.272219,0.617773,-0.478996,-0.899625,0.165191,-0.067056,48.85297,53.134655,43.768551,0,0
18107,2024 8 08,15:42:40.290,-0.559069,-0.279169,0.617409,-0.477805,-0.912119,0.135441,-0.069297,43.943851,55.082451,46.13385,0,0
18108,2024 8 08,15:42:40.298,-0.557124,-0.286085,0.617234,-0.476208,-0.925008,0.107986,-0.066989,39.897629,56.961277,48.43272,0,0
18109,2024 8 08,15:42:40.306,-0.556737,-0.287459,0.617199,-0.475891,-0.927567,0.102535,-0.066531,39.094208,57.334335,48.889187,0,0
18110,2024 8 08,15:42:40.315,-0.55515,-0.29323,0.617211,-0.474197,-0.937234,0.072096,-0.074427,36.120228,59.219688,50.887058,0,0
18111,2024 8 08,15:42:40.323,-0.553321,-0.300006,0.6173,-0.471969,-0.95701,0.045911,-0.0769,34.297188,61.416363,53.625175,0,0
18112,2024 8 08,15:42:40.331,-0.551471,-0.307104,0.617407,-0.469416,-0.986394,0.021015,-0.084891,33.139889,62.705025,56.569145,0,0
18113,2024 8 08,15:42:40.340,-0.549681,-0.314354,0.617442,-0.466659,-1.006923,-0.002858,-0.082009,32.68272,62.872078,59.284058,0,0
18114,2024 8 08,15:42:40.348,-0.548009,-0.321679,0.617346,-0.46375,-1.015951,-0.027218,-0.078762,32.434509,61.915443,61.900097,0,0
18115,2024 8 08,15:42:40.356,-0.547584,-0.323539,0.617321,-0.46301,-1.018245,-0.033407,-0.077937,32.371445,61.672386,62.56477,0,0
18116,2024 8 08,15:42:40.365,-0.546357,-0.329479,0.617083,-0.460573,-1.016011,-0.050985,-0.074885,32.576439,60.500778,64.644691,0,0
18117,2024 8 08,15:42:40.373,-0.545003,-0.336567,0.616663,-0.457594,-1.024869,-0.071169,-0.075109,32.851032,60.139565,67.442543,0,0
18118,2024 8 08,15:42:40.381,-0.543648,-0.344081,0.616094,-0.454363,-1.050216,-0.091705,-0.074825,33.404205,59.908802,70.389397,0,0
18119,2024 8 08,15:42:40.390,-0.542402,-0.351718,0.615312,-0.451048,-1.059547,-0.119878,-0.0792,33.90572,57.743198,72.520485,0,0
18120,2024 8 08,15:42:40.398,-0.541263,-0.359336,0.614322,-0.447746,-1.055178,-0.146152,-0.076082,34.265442,55.579247,73.487709,0,0
18121,2024 8 08,15:42:40.406,-0.540919,-0.36164,0.614022,-0.446748,-1.053857,0.121128,-0.014357,34.374222,54.924873,73.780197,0,0
18122,2024 8 08,15:42:40.415,-0.540068,-0.367588,0.613051,-0.444239,-1.053448,-0.173147,-0.061244,35.942371,53.063255,73.912292,0,0
18123,2024 8 08,15:42:40.423,-0.539048,-0.374517,0.611806,-0.441385,-1.05299,-0.21136,-0.065044,36.685902,51.61116,72.353897,0,0
18124,2024 8 08,15:42:40.431,-0.537866,-0.381698,0.61045,-0.438536,-1.064211,-0.24779,-0.071149,38.023323,50.612411,70.467995,0,0
18125,2024 8 08,15:42:40.440,-0.536162,-0.391466,0.608397,-0.434888,-1.070213,-0.293905,-0.065417,40.046299,47.505047,67.963226,0,0
18126,2024 8 08,15:42:40.448,-0.534802,-0.398454,0.606734,-0.432534,-1.076922,-0.326264,-0.06565,41.562199,45.219109,64.867798,0,0
18127,2024 8 08,15:42:40.456,-0.534587,-0.399547,0.606472,-0.43217,-1.078107,-0.331338,-0.065909,41.799023,44.875439,64.352928,0,0
18128,2024 8 08,15:42:40.465,-0.533335,-0.405112,0.605005,-0.43058,-1.065386,-0.354686,-0.056342,43.654064,42.567192,60.292034,0,0
18129,2024 8 08,15:42:40.473,-0.5317,-0.411405,0.603337,-0.428972,-1.072952,-0.396872,-0.037047,43.940636,40.909023,54.63287,0,0
18130,2024 8 08,15:42:40.481,-0.529896,-0.41742,0.601647,-0.427764,-1.053727,-0.431455,-0.019509,46.512253,37.805233,49.534626,0,0
18131,2024 8 08,15:42:40.490,-0.527977,-0.423258,0.599857,-0.426913,-1.016793,-0.45316,-0.013703,48.596798,36.069962,46.742157,0,0
18132,2024 8 08,15:42:40.498,-0.525839,-0.429039,0.598101,-0.426244,-0.995191,-0.286403,0.01238,50.245033,36.921963,43.947422,0,0
18133,2024 8 08,15:42:40.506,-0.523404,-0.434681,0.596427,-0.425868,-0.988629,-0.461696,-0.024618,52.373699,37.054909,38.704666,0,0
18134,2024 8 08,15:42:40.515,-0.522816,-0.436019,0.596032,-0.425788,-0.987506,-0.461474,-0.02656,52.898476,37.04921,37.373455,0,0
18135,2024 8 08,15:42:40.523,-0.520639,-0.440091,0.594843,-0.42592,-0.998926,-0.469397,-0.039826,54.457958,35.421951,30.874325,0,0
18136,2024 8 08,15:42:40.531,-0.517755,-0.444693,0.593434,-0.426619,-1.007683,-0.500282,-0.052279,56.380764,31.551622,21.9757,0,0
18137,2024 8 08,15:42:40.540,-0.514594,-0.448906,0.591939,-0.428105,-1.010204,-0.52878,-0.064661,60.334377,25.375683,12.711617,0,0
18138,2024 8 08,15:42:40.548,-0.511197,-0.452619,0.590245,-0.430594,-0.957862,-0.558686,-0.070887,67.028893,18.108242,3.014946,0,0
18139,2024 8 08,15:42:40.556,-0.507375,-0.455998,0.588385,-0.434078,-0.885673,-0.572153,-0.087154,75.010925,14.191371,-6.083376,0,0
18140,2024 8 08,15:42:40.565,-0.506228,-0.456984,0.587829,-0.435146,-0.863819,-0.57539,-0.092446,77.410576,13.187306,-8.742908,0,0
18141,2024 8 08,15:42:40.573,-0.502694,-0.45939,0.586429,-0.438573,-0.859547,-0.566993,-0.103515,83.816124,14.119747,-16.118992,0,0
18142,2024 8 08,15:42:40.581,-0.497683,-0.462321,0.584759,-0.443398,-0.861972,-0.547026,-0.120882,90.219063,15.683043,-24.721432,0,0
18143,2024 8 08,15:42:40.590,-0.491986,-0.465192,0.583133,-0.448851,-0.875405,-0.506192,-0.133562,93.708656,16.326567,-31.867117,0,0
18144,2024 8 08,15:42:40.598,-0.485982,-0.467752,0.581673,-0.454584,-0.880658,-0.463088,-0.158423,92.784447,15.804826,-37.97393,0,0
18145,2024 8 08,15:42:40.606,-0.479974,-0.469834,0.580476,-0.460313,-0.868236,-0.415768,-0.178303,87.690056,15.019547,-42.421623,0,0
18146,2024 8 08,15:42:40.615,-0.477902,-0.47053,0.580076,-0.462288,-0.863105,-0.399214,-0.184801,85.746201,14.742842,-43.87627,0,0
18147,2024 8 08,15:42:40.623,-0.473759,-0.471512,0.579571,-0.466161,-0.873641,-0.36611,-0.199816,77.244156,14.089776,-45.409008,0,0
18148,2024 8 08,15:42:40.631,-0.469342,-0.472904,0.579782,-0.46895,-2.046012,0.573585,-0.832453,40.80151,35.287079,-18.493347,0,0
18149,2024 8 08,15:42:40.640,-0.470984,-0.472787,0.575859,-0.472239,-1.33855,0.162403,-0.371574,-14.303123,-76.415588,-0.518106,0,0
18150,2024 8 08,15:42:40.648,-0.474465,-0.471416,0.572819,-0.473824,-1.193339,0.199159,-0.000796,-9.974039,-50.974689,10.496045,0,0
18151,2024 8 08,15:42:40.656,-0.47881,-0.468714,0.571333,-0.473927,-1.062755,0.115653,0.191873,-32.302353,-51.692993,5.896043,0,0
18152,2024 8 08,15:42:40.665,-0.480539,-0.467596,0.570834,-0.473896,-1.005113,0.070123,0.258563,-43.091766,-54.927032,3.234354,0,0
18153,2024 8 08,15:42:40.673,-0.483497,-0.464845,0.571298,-0.473028,-1.023024,-0.020359,0.29458,-54.622185,-38.548515,0.107853,0,0
18154,2024 8 08,15:42:40.681,-0.486805,-0.461294,0.572552,-0.471586,-0.978422,-0.101812,0.286832,-58.120224,-30.503273,-5.35174,0,0
18155,2024 8 08,15:42:40.690,-0.489714,-0.457756,0.57405,-0.470197,-1.003629,-0.121959,0.148377,-51.646755,-23.932281,-8.031654,0,0
18156,2024 8 08,15:42:40.698,-0.492079,-0.454541,0.574991,-0.469702,-1.012669,-0.077843,-0.082748,-36.233101,-27.786083,-11.375097,0,0
18157,2024 8 08,15:42:40.706,-0.493526,-0.45254,0.57553,-0.469473,-1.015638,-0.044642,-0.235868,-25.761148,-31.228518,-13.596975,0,0
18158,2024 8 08,15:42:40.715,-0.49582,-0.44845,0.575395,-0.471144,-0.885693,-0.038706,-0.097285,-25.040245,-48.68882,-29.078949,0,0
18159,2024 8 08,15:42:40.723,-0.495868,-0.448363,0.575392,-0.471179,-0.882943,-0.03858,-0.094352,-25.024988,-49.058342,-29.406599,0,0
18160,2024 8 08,15:42:40.731,-0.498281,-0.443558,0.575786,-0.472694,-0.937079,0.186251,-0.489472,-33.773533,-51.215378,-28.201559,0,0
18161,2024 8 08,15:42:40.740,-0.5004,-0.439615,0.575245,-0.474794,-0.900048,-0.082553,-0.270812,-15.256966,-46.07093,-22.889179,0,0
18162,2024 8 08,15:42:40.748,-0.502001,-0.436021,0.574958,-0.476762,-0.913442,-0.342946,-0.179984,-14.245935,-39.329308,-26.320227,0,0
18163,2024 8 08,15:42:40.756,-0.502941,-0.433123,0.574804,-0.478595,-0.924679,-0.098691,-0.105717,-5.738368,-27.88435,-22.369915,0,0
18164,2024 8 08,15:42:40.765,-0.503506,-0.430902,0.575034,-0.479729,-0.957624,-0.090768,0.006047,-13.009464,-18.104965,-19.444218,0,0
18165,2024 8 08,15:42:40.773,-0.503564,-0.430674,0.575058,-0.479845,-0.961008,-0.089954,0.017528,-13.756383,-17.100384,-19.143677,0,0
18166,2024 8 08,15:42:40.781,-0.50391,-0.428448,0.575879,-0.480488,-0.966928,-0.143405,0.07127,-16.288534,-14.219522,-23.735703,0,0
18167,2024 8 08,15:42:40.790,-0.504115,-0.426386,0.576704,-0.481118,-0.96768,-0.179926,-0.002666,-12.203354,-10.024105,-19.17762,0,0
18168,2024 8 08,15:42:40.798,-0.504193,-0.425065,0.577153,-0.481668,-0.971097,-0.138402,0.014352,-4.649331,-7.061553,-12.127422,0,0
18169,2024 8 08,15:42:40.806,-0.504359,-0.424372,0.577164,-0.482091,-0.970792,-0.156295,-0.1098,-1.422355,-6.974896,-4.787412,0,0
18170,2024 8 08,15:42:40.815,-0.504451,-0.424194,0.57676,-0.482635,-0.979213,-0.092786,-0.084236,4.945498,-6.557611,-0.53036,0,0
18171,2024 8 08,15:42:40.823,-0.504467,-0.424163,0.576691,-0.482728,-0.98066,-0.138622,0.049279,6.039106,-6.485946,0.200741,0,0
18172,2024 8 08,15:42:40.831,-0.50461,-0.424187,0.57617,-0.483179,-0.976206,-0.171527,0.055973,5.943542,-7.111716,1.51334,0,0
18173,2024 8 08,15:42:40.840,-0.504738,-0.424367,0.575518,-0.483664,-0.973019,-0.121936,0.007608,7.963263,-5.776347,2.687944,0,0
18174,2024 8 08,15:42:40.848,-0.504849,-0.424662,0.574859,-0.484073,-0.977742,-0.099805,-0.004118,7.125966,-4.547503,3.64461,0,0
18175,2024 8 08,15:42:40.856,-0.505001,-0.424869,0.574392,-0.484288,-0.981017,-0.092459,0.01309,3.586989,-3.103243,2.853353,0,0
18176,2024 8 08,15:42:40.865,-0.505081,-0.424943,0.574204,-0.484361,-0.998955,-0.091954,0.031872,0.510787,-1.099337,0.760307,0,0
18177,2024 8 08,15:42:40.873,-0.5051,-0.42496,0.574161,-0.484378,-1.003097,-0.091837,0.036208,-0.199493,-0.636645,0.277033,0,0
18178,2024 8 08,15:42:40.881,-0.505169,-0.424817,0.574256,-0.48432,-0.997879,-0.114098,0.031768,-2.607858,-0.388609,-1.026402,0,0
18179,2024 8 08,15:42:40.890,-0.505207,-0.424608,0.5744,-0.484292,-0.99297,-0.113496,0.055582,-1.988198,-0.462326,-2.027789,0,0
18180,2024 8 08,15:42:40.898,-0.505275,-0.213256,0.608742,0.57311,-0.988493,-0.110129,0.068495,-1.873312,-1.239882,-1.303867,0,0
18181,2024 8 08,15:42:40.906,-0.505403,-0.424189,0.574532,-0.484298,-0.990126,-0.119469,0.058163,-1.975115,-2.505365,-0.758488,0,0
18182,2024 8 08,15:42:40.915,-0.505528,-0.424056,0.574422,-0.484414,-0.981501,-0.108768,0.033346,0.526924,-3.113952,-0.129183,0,0
18183,2024 8 08,15:42:40.923,-0.505654,-0.423907,0.574295,-0.484564,-0.973546,-0.120587,0.019442,-0.018007,-3.069998,-0.555507,0,0
18184,2024 8 08,15:42:40.931,-0.50569,-0.423864,0.574259,-0.484607,-0.971238,-0.124016,0.015409,-0.176065,-3.057249,-0.679164,0,0
18185,2024 8 08,15:42:40.940,-0.505731,-0.423796,0.574148,-0.484754,-0.970551,-0.172374,-0.059614,1.211583,-2.420491,-0.673787,0,0
18186,2024 8 08,15:42:40.948,-0.505713,-0.52353,0.480814,-0.488865,-0.977355,-0.110389,0.021653,0.090739,-1.015508,-1.214814,0,0
18187,2024 8 08,15:42:40.956,-0.505579,-0.423735,0.574106,-0.485015,-0.988733,-0.104088,0.019227,2.507323,0.538934,-1.879594,0,0
18188,2024 8 08,15:42:40.965,-0.505382,-0.423786,0.574138,-0.485138,-0.989759,-0.117765,0.024008,1.318969,1.322321,-1.88796,0,0
18189,2024 8 08,15:42:40.973,-0.504998,-0.42394,0.574128,-0.485416,-0.986469,-0.115651,0.039436,4.949788,1.655722,-1.786671,0,0
18190,2024 8 08,15:42:40.981,-0.504953,-0.423961,0.574124,-0.485449,-0.98588,-0.114285,0.04147,5.604008,1.64808,-1.770301,0,0
18191,2024 8 08,15:42:40.990,-0.504659,-0.424136,0.57402,-0.485727,-0.988732,-0.111809,0.050498,5.257162,0.728115,-2.229948,0,0
18192,2024 8 08,15:42:40.998,-0.504358,-0.424278,0.573881,-0.486077,-0.985638,-0.11377,0.046126,5.795227,-0.096765,-2.113849,0,0
18193,2024 8 08,15:42:41.006,-0.50402,-0.424426,0.573681,-0.486535,-0.988112,-0.107487,0.039838,6.706325,-0.582381,-2.920604,0,0
18194,2024 8 08,15:42:41.015,-0.503671,-0.424532,0.573493,-0.487025,-0.988749,-0.108419,0.039842,6.833973,-0.811402,-3.440644,0,0
18195,2024 8 08,15:42:41.023,-0.503344,-0.424594,0.573317,-0.487516,-0.982629,-0.113473,0.035399,6.113223,-1.043405,-3.627692,0,0
18196,2024 8 08,15:42:41.031,-0.503277,-0.424606,0.57328,-0.487618,-0.981152,-0.114622,0.034303,5.93975,-1.093093,-3.658657,0,0
18197,2024 8 08,15:42:41.040,-0.503039,-0.424655,0.57315,-0.487973,-0.979882,-0.118856,0.028575,5.922593,-0.817052,-2.912505,0,0
18198,2024 8 08,15:42:41.048,-0.502761,-0.424739,0.572978,-0.488389,-0.979937,-0.12181,0.02781,5.59741,-0.743005,-2.713928,0,0
18199,2024 8 08,15:42:41.056,-0.502495,-0.424828,0.572808,-0.488785,-0.985467,-0.125375,0.013616,5.552993,-0.55165,-2.416101,0,0
18200,2024 8 08,15:42:41.065,-0.502262,-0.424908,0.572659,-0.489129,-0.982023,-0.12343,0.012023,4.520275,-0.317908,-1.929195,0,0
18201,2024 8 08,15:42:41.073,-0.502056,-0.424997,0.572531,-0.489414,-0.975775,-0.202839,0.042645,4.032064,-0.078516,-1.529334,0,0
18202,2024 8 08,15:42:41.081,-0.502001,-0.436021,0.574958,-0.476762,-0.974023,-0.121189,0.01453,3.927724,-0.013401,-1.425233,0,0
18203,2024 8 08,15:42:41.090,-0.501862,-0.425105,0.572422,-0.489646,-0.975111,-0.147725,-0.038284,3.391623,0.343251,-1.062013,0,0
18204,2024 8 08,15:42:41.098,-0.501689,-0.425223,0.572357,-0.489798,-0.973812,-0.097271,-0.106636,2.916964,0.844421,-0.772972,0,0
18205,2024 8 08,15:42:41.106,-0.501513,-0.425371,0.572294,-0.489923,-0.97701,-0.125991,0.01625,2.780982,1.167099,-0.35489,0,0
18206,2024 8 08,15:42:41.115,-0.501327,-0.425572,0.572201,-0.490047,-0.977222,-0.124142,0.024307,3.585945,1.299063,0.113344,0,0
18207,2024 8 08,15:42:41.123,-0.501116,-0.425829,0.572082,-0.490179,-0.975797,-0.121648,0.027432,4.170506,1.579662,0.385982,0,0
18208,2024 8 08,15:42:41.131,-0.501046,-0.425914,0.572042,-0.490222,-0.975282,-0.120849,0.028116,4.342816,1.679131,0.464666,0,0
18209,2024 8 08,15:42:41.140,-0.500872,-0.426131,0.571947,-0.490322,-0.979978,-0.121629,0.032444,4.382118,1.782044,0.522725,0,0
18210,2024 8 08,15:42:41.148,-0.50064,-0.426424,0.571809,-0.490466,-0.979616,-0.12228,0.031895,4.986028,1.739572,0.542695,0,0
18211,2024 8 08,15:42:41.156,-0.500377,-0.426749,0.571638,-0.490651,-0.979184,-0.121863,0.033298,5.579123,1.716869,0.390903,0,0
18212,2024 8 08,15:42:41.165,-0.500091,-0.427094,0.571435,-0.490879,-0.980623,-0.122279,0.032706,6.210708,1.440011,0.405457,0,0
18213,2024 8 08,15:42:41.173,-0.499806,-0.427425,0.571206,-0.491147,-0.982466,-0.119116,0.037872,6.442843,1.057233,0.114995,0,0
18214,2024 8 08,15:42:41.181,-0.4997,-0.427547,0.571121,-0.491248,-0.983156,-0.117735,0.040127,6.505892,0.911842,-0.011241,0,0
18215,2024 8 08,15:42:41.190,-0.499465,-0.427784,0.570938,-0.491493,-0.982152,-0.11705,0.032374,7.122403,0.796314,-0.420848,0,0
18216,2024 8 08,15:42:41.198,-0.499169,-0.428066,0.570685,-0.491842,-0.979604,-0.118583,0.034177,7.42937,0.307302,-0.707605,0,0
18217,2024 8 08,15:42:41.206,-0.498852,-0.428341,0.570412,-0.49224,-0.980874,-0.118432,0.034656,7.489169,-0.015703,-1.102402,0,0
18218,2024 8 08,15:42:41.215,-0.498545,-0.428545,0.570175,-0.492648,-0.981332,-0.128972,0.025682,6.378857,-0.275445,-1.810616,0,0
18219,2024 8 08,15:42:41.223,-0.498204,-0.428784,0.569878,-0.493128,-0.977989,-0.119569,0.0238,8.404526,-0.414329,-1.577053,0,0
18220,2024 8 08,15:42:41.231,-0.498062,-0.428885,0.569753,-0.493329,-0.976395,-0.114364,0.023557,9.441754,-0.464002,-1.41969,0,0
18221,2024 8 08,15:42:41.240,-0.497802,-0.429075,0.569519,-0.493697,-0.975877,-0.113415,-0.12169,8.936734,-0.48014,-1.64923,0,0
18222,2024 8 08,15:42:41.248,-0.497622,-0.429206,0.569357,-0.49395,-0.975619,-0.153492,-0.051125,8.489416,-0.488182,-1.828835,0,0
18223,2024 8 08,15:42:41.256,-0.4972,-0.42953,0.568991,-0.494515,-0.976566,-0.115187,0.02018,9.671398,-0.369542,-1.474786,0,0
18224,2024 8 08,15:42:41.265,-0.496802,-0.429809,0.568648,-0.495066,-0.981737,-0.127867,0.03219,9.527776,-0.424825,-2.108474,0,0
18225,2024 8 08,15:42:41.273,-0.496377,-0.430096,0.568302,-0.495641,-0.98149,-0.12286,0.031765,9.060987,-0.542323,-2.192277,0,0
18226,2024 8 08,15:42:41.281,-0.495936,-0.430346,0.567959,-0.496258,-0.985563,-0.114863,0.034012,10.283957,-0.832647,-2.991613,0,0
18227,2024 8 08,15:42:41.290,-0.495905,-0.430364,0.567936,-0.496301,-0.985844,-0.114311,0.034167,10.368304,-0.852671,-3.046743,0,0
18228,2024 8 08,15:42:41.298,-0.495524,-0.430536,0.567641,-0.496869,-0.982779,-0.123532,0.034621,8.555242,-1.185225,-3.216728,0,0
18229,2024 8 08,15:42:41.306,-0.495117,-0.430668,0.56734,-0.497503,-0.985098,-0.118753,0.027703,8.709184,-1.597486,-3.667917,0,0
18230,2024 8 08,15:42:41.315,-0.49474,-0.430744,0.567034,-0.498161,-0.983202,-0.128536,0.032107,8.350346,-2.285358,-4.038209,0,0
18231,2024 8 08,15:42:41.323,-0.494379,-0.430809,0.566686,-0.498859,-0.982129,-0.17784,-0.03747,8.67767,-2.949571,-3.765153,0,0
18232,2024 8 08,15:42:41.331,-0.49408,-0.430844,0.56629,-0.499573,-0.980735,-0.175458,-0.001576,9.086029,-3.924107,-3.520491,0,0
18233,2024 8 08,15:42:41.340,-0.493801,-0.430919,0.565829,-0.500306,-0.980948,-0.122836,0.032161,8.938473,-4.218005,-3.073537,0,0
18234,2024 8 08,15:42:41.348,-0.493758,-0.430931,0.565758,-0.500419,-0.98098,-0.121388,0.032623,8.915709,-4.263347,-3.004583,0,0
18235,2024 8 08,15:42:41.356,-0.493573,-0.430925,0.565387,-0.501026,-0.983394,-0.124761,0.026278,8.460478,-4.77247,-3.294172,0,0
18236,2024 8 08,15:42:41.365,-0.493358,-0.430918,0.564931,-0.501757,-0.980252,-0.118223,0.022785,8.776612,-5.159142,-3.54319,0,0
18237,2024 8 08,15:42:41.373,-0.493166,-0.430856,0.564487,-0.502499,-0.9871,-0.120135,0.026829,8.101991,-5.475651,-3.834064,0,0
18238,2024 8 08,15:42:41.381,-0.492988,-0.430736,0.564052,-0.503264,-0.990377,-0.114715,0.027623,7.631486,-6.020714,-4.422384,0,0
18239,2024 8 08,15:42:41.390,-0.492842,-0.430522,0.563652,-0.504038,-0.980368,-0.124664,0.018629,6.723586,-6.657801,-4.8776,0,0
18240,2024 8 08,15:42:41.398,-0.49281,-0.430475,0.563566,-0.504205,-0.978207,-0.126235,-0.016279,6.527606,-6.795323,-4.975863,0,0
18241,2024 8 08,15:42:41.406,-0.492732,-0.430244,0.56328,-0.504798,-0.976603,-0.123198,0.022581,5.412709,-6.733193,-4.904889,0,0
18242,2024 8 08,15:42:41.415,-0.492617,-0.429968,0.562983,-0.505477,-0.981747,-0.127871,0.017339,6.071384,-6.350605,-5.164266,0,0
18243,2024 8 08,15:42:41.423,-0.492483,-0.429742,0.56259,-0.506236,-0.976453,-0.175632,-0.070143,7.050063,-6.530264,-4.727296,0,0
18244,2024 8 08,15:42:41.431,-0.492348,-0.429503,0.562203,-0.506999,-0.979072,-0.12769,0.016938,6.398095,-6.485693,-5.021548,0,0
18245,2024 8 08,15:42:41.440,-0.492234,-0.429239,0.561852,-0.507722,-0.974779,-0.152132,-0.029747,5.872724,-6.474072,-4.7873,0,0
18246,2024 8 08,15:42:41.448,-0.492204,-0.429168,0.561757,-0.507916,-0.973624,-0.134229,0.010764,5.731355,-6.470945,-4.724268,0,0
18247,2024 8 08,15:42:41.456,-0.492136,-0.428938,0.561502,-0.508458,-0.977821,-0.139131,0.009706,5.084142,-6.339789,-4.489643,0,0
18248,2024 8 08,15:42:41.465,-0.492059,-0.428673,0.561174,-0.509118,-0.975238,-0.085794,0.002722,5.58671,-6.731869,-4.637461,0,0
18249,2024 8 08,15:42:41.473,-0.491993,-0.42839,0.560811,-0.509819,-0.975841,-0.138979,0.010178,5.521604,-6.889257,-4.425907,0,0
18250,2024 8 08,15:42:41.481,-0.491955,-0.428111,0.560402,-0.51054,-0.971316,-0.138434,0.009222,5.922221,-7.398805,-4.194208,0,0
18251,2024 8 08,15:42:41.490,-0.491947,-0.427818,0.55998,-0.511256,-0.977903,-0.138932,0.011588,5.297441,-7.846843,-3.914947,0,0
18252,2024 8 08,15:42:41.498,-0.491945,-0.427725,0.559847,-0.511482,-0.979981,-0.139088,0.012334,5.100297,-7.988218,-3.826828,0,0
18253,2024 8 08,15:42:41.506,-0.491928,-0.427504,0.559483,-0.51208,-0.979675,-0.131976,0.006063,6.461113,-8.115238,-4.001881,0,0
18254,2024 8 08,15:42:41.515,-0.491953,-0.427123,0.558913,-0.512997,-0.982038,-0.141441,-0.001657,5.197715,-8.178235,-3.721994,0,0
18255,2024 8 08,15:42:41.523,-0.491971,-0.426799,0.558479,-0.513719,-0.989458,-0.158487,-0.163262,4.735232,-8.075537,-4.179287,0,0
18256,2024 8 08,15:42:41.531,-0.492019,-0.426432,0.558048,-0.514446,-0.979731,-0.148841,-0.007047,5.15825,-8.616162,-4.167361,0,0
18257,2024 8 08,15:42:41.540,-0.492047,-0.426037,0.557576,-0.515257,-0.975679,-0.138641,0.005202,5.594622,-9.522926,-4.601666,0,0
18258,2024 8 08,15:42:41.548,-0.492052,-0.425966,0.557491,-0.515405,-0.975164,-0.136393,0.007185,5.670897,-9.692636,-4.693255,0,0
18259,2024 8 08,15:42:41.556,-0.492052,-0.425966,0.557491,-0.515405,-0.977463,-0.129638,0.015866,7.133702,-9.800833,-4.602005,0,0
18260,2024 8 08,15:42:41.565,-0.492053,-0.425324,0.556508,-0.516993,-0.980302,-0.141121,-0.003214,7.04166,-9.920076,-4.723596,0,0
18261,2024 8 08,15:42:41.573,-0.492052,-0.425966,0.557491,-0.515405,-0.988094,-0.137375,-0.015759,7.202951,-10.040172,-5.134659,0,0
18262,2024 8 08,15:42:41.581,-0.492081,-0.424509,0.555369,-0.518858,-0.993735,-0.152332,0.000776,6.83694,-10.719221,-5.375288,0,0
18263,2024 8 08,15:42:41.590,-0.492077,-0.424012,0.554774,-0.519903,-0.986144,-0.124624,0.00489,7.74042,-11.909152,-6.527217,0,0
18264,2024 8 08,15:42:41.598,-0.492075,-0.423889,0.554627,-0.520164,-0.983813,-0.116146,0.005303,8.011909,-12.217295,-6.844667,0,0
18265,2024 8 08,15:42:41.606,-0.49211,-0.423406,0.554216,-0.52096,-0.99708,-0.118183,0.008938,6.395442,-12.528578,-7.559662,0,0
18266,2024 8 08,15:42:41.615,-0.492164,-0.422725,0.553775,-0.52193,-1.005416,-0.116868,-0.03197,5.013783,-12.52869,-8.256401,0,0
18267,2024 8 08,15:42:41.623,-0.492227,-0.421899,0.553376,-0.522961,-1.018569,-0.119116,-0.030441,2.998913,-12.515089,-9.22805,0,0
18268,2024 8 08,15:42:41.631,-0.49229,-0.420903,0.553118,-0.523976,-1.022216,-0.116839,-0.03583,1.578736,-12.899694,-11.021605,0,0
18269,2024 8 08,15:42:41.640,-0.492227,-0.421899,0.553376,-0.522961,-1.056453,-0.113227,-0.065887,-0.547891,-11.756314,-14.468971,0,0
18270,2024 8 08,15:42:41.648,-0.492203,-0.419397,0.553033,-0.525354,-1.068262,-0.112109,-0.075996,-1.227681,-11.338675,-15.581019,0,0
18271,2024 8 08,15:42:41.656,-0.491926,-0.418387,0.553159,-0.526284,-1.095837,-0.094989,-0.083351,1.201215,-10.839753,-19.533401,0,0
18272,2024 8 08,15:42:41.665,-0.491226,-0.417002,0.553377,-0.527805,-1.098725,-0.093315,-0.068066,4.773397,-10.424165,-26.103943,0,0
18273,2024 8 08,15:42:41.673,-0.48996,-0.415509,0.553825,-0.529684,-1.173952,-0.110783,-0.058058,7.675686,-6.616737,-31.998066,0,0
18274,2024 8 08,15:42:41.681,-0.488139,-0.414404,0.553979,-0.532064,-1.172081,-0.089368,-0.007865,21.586514,-5.725587,-35.003391,0,0
18275,2024 8 08,15:42:41.690,-0.485406,-0.413175,0.554346,-0.535124,-1.206618,-0.095653,-0.021625,23.585878,-1.730602,-48.322525,0,0
18276,2024 8 08,15:42:41.698,-0.481734,-0.411538,0.555262,-0.538737,-1.221382,-0.099661,-0.030181,23.566441,-0.136228,-53.566593,0,0
18277,2024 8 08,15:42:41.706,-0.480373,-0.410931,0.555617,-0.540056,-1.316795,-0.064918,0.007089,26.761211,1.933049,-63.093193,0,0
18278,2024 8 08,15:42:41.715,-0.477355,-0.409772,0.556196,-0.543004,-1.257287,-0.072692,-0.008586,34.510559,2.016698,-65.256981,0,0
18279,2024 8 08,15:42:41.723,-0.472753,-0.40789,0.557345,-0.547239,-1.204811,-0.074095,-0.006037,31.675447,4.904941,-80.032013,0,0
18280,2024 8 08,15:42:41.731,-0.467021,-0.405124,0.559573,-0.551907,-1.230879,-0.096499,-0.038084,28.052258,10.691582,-96.504959,0,0
18281,2024 8 08,15:42:41.740,-0.460347,-0.401843,0.562458,-0.556942,-1.278308,-0.080861,-0.04803,27.405376,15.282648,-109.594917,0,0
18282,2024 8 08,15:42:41.748,-0.45344,-0.398321,0.565613,-0.561911,-1.278318,-0.136105,-0.036268,26.737314,15.426969,-109.148384,0,0
18283,2024 8 08,15:42:41.756,-0.450673,-0.396903,0.566887,-0.563891,-1.275343,-0.162886,-0.030504,26.442696,15.228637,-108.17717,0,0
18284,2024 8 08,15:42:41.765,-0.444987,-0.394031,0.569068,-0.568188,-1.301246,-0.10105,0.048095,29.561909,13.810519,-124.751205,0,0
18285,2024 8 08,15:42:41.773,-0.437065,-0.389031,0.572894,-0.573867,-1.37867,-0.131661,0.046189,24.102859,14.41727,-149.058197,0,0
18286,2024 8 08,15:42:41.781,-0.431907,-0.3857,0.575447,-0.57754,-1.432025,-0.161057,0.036162,19.787302,15.013004,-164.873337,0,0
18287,2024 8 08,15:42:41.790,-0.421763,-0.378578,0.580356,-0.584788,-1.412513,-0.163533,0.148802,25.408806,9.321491,-180.497391,0,0
18288,2024 8 08,15:42:41.798,-0.411265,-0.370032,0.5855,-0.592552,-1.390446,-0.222124,0.146093,22.26334,2.019749,-194.881577,0,0
18289,2024 8 08,15:42:41.806,-0.40055,-0.360694,0.590692,-0.60044,-1.318105,-0.306817,0.059965,17.277702,-3.217547,-198.896255,0,0
18290,2024 8 08,15:42:41.815,-0.400048,-0.360257,0.590935,-0.600809,-1.314716,-0.310784,0.055931,17.04414,-3.462898,-199.084335,0,0
18291,2024 8 08,15:42:41.823,-0.389688,-0.351043,0.595359,-0.608636,-1.201169,-0.342634,0.208312,27.133221,-5.45329,-209.086121,0,0
18292,2024 8 08,15:42:41.831,-0.377735,-0.340729,0.600742,-0.61668,-1.158032,-0.486533,0.143058,20.760309,2.577293,-218.061722,0,0
18293,2024 8 08,15:42:41.840,-0.364891,-0.330821,0.605903,-0.624701,-1.115654,-0.551304,0.167642,27.499111,10.517843,-216.925095,0,0
18294,2024 8 08,15:42:41.848,-0.351416,-0.321675,0.61062,-0.632555,-1.059496,-0.575519,0.195628,36.06897,18.937405,-214.161362,0,0
18295,2024 8 08,15:42:41.856,-0.33734,-0.313231,0.61502,-0.640142,-0.961012,-0.736133,0.207733,41.192154,28.951078,-210.330429,0,0
18296,2024 8 08,15:42:41.865,-0.335589,-0.312181,0.615568,-0.641085,-0.948765,-0.756106,0.209238,41.829239,30.196312,-209.854034,0,0
18297,2024 8 08,15:42:41.873,-0.322337,-0.646791,0.243158,-0.647019,-0.944192,-0.801187,0.225641,50.222237,46.978371,-204.234375,0,0
18298,2024 8 08,15:42:41.881,-0.306503,-0.300504,0.622605,-0.65425,-0.866466,-0.771768,0.279291,64.47216,65.078064,-198.333969,0,0
18299,2024 8 08,15:42:41.890,-0.28984,-0.296601,0.625334,-0.660979,-0.920886,-0.683774,0.153096,76.540771,78.667236,-186.375793,0,0
18300,2024 8 08,15:42:41.898,-0.273184,-0.293458,0.627086,-0.667777,-0.865016,-0.589007,0.136911,85.722427,78.473373,-179.8582,0,0
18301,2024 8 08,15:42:41.906,-0.256456,-0.291268,0.628105,-0.674375,-0.679131,-0.507301,0.374487,93.731392,88.88559,-166.760071,0,0
18302,2024 8 08,15:42:41.915,-0.253274,-0.290851,0.628299,-0.675629,-0.643776,-0.49176,0.419675,95.254723,90.86602,-164.268768,0,0
18303,2024 8 08,15:42:41.923,-0.23985,-0.291609,0.627476,-0.680917,-0.631698,-0.142614,0.467171,114.254593,97.077667,-131.282211,0,0
18304,2024 8 08,15:42:41.931,-0.227184,-0.294764,0.623845,-0.687198,-0.880197,0.08414,0.303965,135.61911,82.716667,-75.934273,0,0
18305,2024 8 08,15:42:41.940,-0.218647,-0.298614,0.617666,-0.693861,-0.830076,0.174444,0.064404,136.886124,43.874561,-32.830227,0,0
18306,2024 8 08,15:42:41.948,-0.213781,-0.303804,0.610137,-0.699765,-0.706649,0.486864,0.119309,132.264267,37.904335,15.078194,0,0
18307,2024 8 08,15:42:41.956,-0.211454,-0.310307,0.602261,-0.704428,-0.669219,0.491602,0.041521,119.212883,29.93549,44.199692,0,0
18308,2024 8 08,15:42:41.965,-0.21088,-0.311912,0.600316,-0.70558,-0.659979,0.492771,0.022319,115.991264,27.968452,51.388073,0,0
18309,2024 8 08,15:42:41.973,-0.210578,-0.316967,0.59394,-0.708795,-0.505153,0.504165,0.023855,107.965546,20.844877,55.327446,0,0
18310,2024 8 08,15:42:41.981,-0.21008,-0.322973,0.587117,-0.711901,-0.417928,0.464714,0.0048,97.576385,28.5172,53.758072,0,0
18311,2024 8 08,15:42:41.990,-0.20913,-0.32956,0.580787,-0.714348,-0.433009,0.443477,-0.026626,87.57605,39.089619,52.324989,0,0
18312,2024 8 08,15:42:41.998,-0.20807,-0.336787,0.575119,-0.71587,-0.526837,0.432679,-0.050313,76.210205,50.053734,56.33379,0,0
18313,2024 8 08,15:42:42.006,-0.207512,-0.34468,0.570028,-0.716345,-0.635317,0.43025,-0.07117,63.396568,56.251244,65.700523,0,0
18314,2024 8 08,15:42:42.015,-0.207346,-0.347016,0.568521,-0.716485,-0.667435,0.429531,-0.077345,59.602776,58.08617,68.47377,0,0
18315,2024 8 08,15:42:42.023,-0.207992,-0.353573,0.564894,-0.715952,-0.696939,0.40521,-0.092276,49.621803,55.672485,78.730652,0,0
18316,2024 8 08,15:42:42.031,-0.209742,-0.36156,0.560769,-0.714682,-0.696844,0.349622,-0.102882,39.106766,54.010883,90.904617,0,0
18317,2024 8 08,15:42:42.040,-0.212389,-0.370294,0.556545,-0.712715,-0.701073,0.290308,-0.118711,31.458414,55.120327,101.907364,0,0
18318,2024 8 08,15:42:42.048,-0.21571,-0.379639,0.55221,-0.710156,-0.719312,0.241819,-0.128727,27.266726,57.508057,112.379013,0,0
18319,2024 8 08,15:42:42.056,-0.220884,-0.393145,0.545986,-0.706062,-0.775486,0.178048,-0.147055,25.12303,61.459236,125.571022,0,0
18320,2024 8 08,15:42:42.065,-0.221494,-0.701732,0.182423,-0.652038,-0.78348,0.171108,-0.149351,25.086523,61.936646,126.972939,0,0
18321,2024 8 08,15:42:42.073,-0.225245,-0.403709,0.54097,-0.702574,-0.835422,0.129296,-0.167194,26.045065,62.859142,134.38591,0,0
18322,2024 8 08,15:42:42.081,-0.23,-0.414606,0.535345,-0.69898,-0.876646,0.092448,-0.179448,30.015039,61.744774,143.350052,0,0
18323,2024 8 08,15:42:42.090,-0.235128,-0.425961,0.528986,-0.695273,-0.912001,0.056139,-0.195218,34.842354,61.92374,152.368484,0,0
18324,2024 8 08,15:42:42.098,-0.240484,-0.437781,0.521883,-0.691449,-0.96213,-0.190144,0.000748,40.294312,63.06739,160.995819,0,0
18325,2024 8 08,15:42:42.106,-0.245985,-0.595157,0.345449,-0.682601,-1.004992,0.004466,-0.195448,46.776474,62.945408,168.202698,0,0
18326,2024 8 08,15:42:42.115,-0.247189,-0.45264,0.51228,-0.686714,-1.014047,-0.000377,-0.195767,48.222027,62.874931,169.73259,0,0
18327,2024 8 08,15:42:42.123,-0.251579,-0.462603,0.505348,-0.683575,-1.042825,0.112002,-0.046731,52.687023,63.932705,173.928802,0,0
18328,2024 8 08,15:42:42.131,-0.256895,-0.475099,0.496396,-0.679555,-1.100301,-0.02617,-0.187871,57.088898,66.463646,178.849365,0,0
18329,2024 8 08,15:42:42.140,-0.262291,-0.488095,0.486786,-0.67521,-1.16824,-0.044405,-0.173573,60.23925,67.910751,183.196899,0,0
18330,2024 8 08,15:42:42.148,-0.26774,-0.501182,0.476722,-0.670641,-1.202518,-0.0725,-0.159713,62.347317,67.659126,186.838364,0,0
18331,2024 8 08,15:42:42.156,-0.273205,-0.514233,0.466289,-0.665867,-1.225817,-0.104312,-0.139518,63.670624,67.530838,189.462982,0,0
18332,2024 8 08,15:42:42.165,-0.278549,-0.527244,0.455674,-0.6608,-1.25426,-0.130616,-0.120788,63.752388,69.329544,190.069748,0,0
18333,2024 8 08,15:42:42.173,-0.280083,-0.530991,0.452611,-0.659329,-1.262711,-0.13794,-0.115498,63.726707,69.928375,190.163605,0,0
18334,2024 8 08,15:42:42.181,-0.283948,-0.540652,0.444574,-0.655238,-1.272066,-0.155871,-0.099638,62.792553,70.209381,188.364716,0,0
18335,2024 8 08,15:42:42.190,-0.288579,-0.552558,0.434589,-0.64993,-1.272774,-0.173979,-0.089208,61.380165,71.375565,184.433746,0,0
18336,2024 8 08,15:42:42.198,-0.29302,-0.56468,0.42457,-0.644109,-1.290362,-0.187166,-0.084627,58.076992,75.369469,178.578201,0,0
18337,2024 8 08,15:42:42.206,-0.296997,-0.57653,0.415096,-0.637933,-1.322323,-0.211385,-0.076216,53.787754,78.742432,169.322922,0,0
18338,2024 8 08,15:42:42.215,-0.300374,-0.587808,0.406425,-0.631617,-1.327359,-0.249259,-0.068703,48.875153,80.973068,156.452637,0,0
18339,2024 8 08,15:42:42.223,-0.30149,-0.5916,0.403526,-0.629474,-1.327599,-0.262691,-0.06624,47.185291,81.677925,151.934143,0,0
18340,2024 8 08,15:42:42.231,-0.303328,-0.599368,0.398099,-0.624658,-1.315716,-0.312791,-0.074751,43.04129,85.542152,142.268326,0,0
18341,2024 8 08,15:42:42.240,-0.305212,-0.609078,0.391903,-0.618208,-1.348759,-0.366863,-0.08235,38.15543,92.874748,134.152344,0,0
18342,2024 8 08,15:42:42.248,-0.306941,-0.619207,0.385879,-0.611023,-1.41791,-0.418521,-0.088031,33.994476,97.566475,130.283829,0,0
18343,2024 8 08,15:42:42.256,-0.3087,-0.629159,0.379968,-0.603624,-1.465657,-0.47387,-0.108253,30.872398,95.6698,128.201294,0,0
18344,2024 8 08,15:42:42.265,-0.310523,-0.638523,0.374074,-0.596498,-1.476716,-0.537813,-0.1329,29.714859,88.192459,124.260628,0,0
18345,2024 8 08,15:42:42.273,-0.311223,-0.642072,0.37182,-0.59379,-1.479043,-0.562733,-0.142453,29.378096,85.062416,122.634956,0,0
18346,2024 8 08,15:42:42.281,-0.312396,-0.648073,0.367581,-0.589267,-1.449483,-0.626429,-0.177852,31.187679,77.389893,116.505356,0,0
18347,2024 8 08,15:42:42.290,-0.313476,-0.655093,0.362154,-0.584255,-1.376936,-0.702848,-0.207211,36.711548,68.405937,107.975143,0,0
18348,2024 8 08,15:42:42.298,-0.313981,-0.662045,0.356264,-0.579747,-1.296562,-0.766997,-0.261492,44.888615,60.415012,99.054695,0,0
18349,2024 8 08,15:42:42.306,-0.313668,-0.668674,0.350112,-0.576046,-1.178874,-0.819113,-0.306643,54.581703,53.840389,89.573051,0,0
18350,2024 8 08,15:42:42.315,-0.312461,-0.675082,0.343875,-0.572977,-1.098739,-0.887079,-0.334949,63.284302,51.614384,80.858635,0,0
18351,2024 8 08,15:42:42.323,-0.311622,-0.67912,0.339923,-0.571086,-1.052203,0.107107,-0.020898,68.677689,50.60709,75.426659,0,0
18352,2024 8 08,15:42:42.331,-0.311614,-0.679155,0.339889,-0.571069,-1.0518,-0.932148,-0.35157,68.724434,50.598358,75.379578,0,0
18353,2024 8 08,15:42:42.340,-0.309171,-0.685163,0.333842,-0.56878,-1.11187,-1.054193,-0.340778,74.533821,48.7794,69.570183,0,0
18354,2024 8 08,15:42:42.348,-0.306217,-0.690766,0.327413,-0.567335,-1.09798,-1.146244,-0.354699,81.228806,35.763615,63.395367,0,0
18355,2024 8 08,15:42:42.356,-0.302969,-0.695361,0.320664,-0.567319,-0.972875,-1.231243,-0.396431,87.330666,17.941559,54.758026,0,0
18356,2024 8 08,15:42:42.365,-0.299174,-0.699197,0.313999,-0.568345,-0.890531,-1.265589,-0.384817,91.662086,9.020216,43.580399,0,0
18357,2024 8 08,15:42:42.373,-0.294749,-0.702291,0.3078,-0.57023,-0.847265,-1.254149,-0.348044,94.550537,0.622535,29.526585,0,0
18358,2024 8 08,15:42:42.381,-0.294341,-0.702576,0.307228,-0.570403,-0.843274,-1.253093,-0.344652,94.816948,-0.152026,28.23033,0,0
18359,2024 8 08,15:42:42.390,-0.289759,-0.704479,0.302422,-0.572959,-0.812301,-1.197898,-0.307717,92.155258,-7.602751,11.849197,0,0
18360,2024 8 08,15:42:42.398,-0.282852,-0.707045,0.29843,-0.575334,-2.315969,-1.817955,-1.342072,111.634041,29.301874,-14.103037,0,0
18361,2024 8 08,15:42:42.406,-0.277349,-0.701504,0.298672,-0.584584,-0.915693,-1.524807,0.009846,35.999405,-123.593025,-80.207458,0,0
18362,2024 8 08,15:42:42.415,-0.271332,-0.69494,0.298803,-0.595076,-0.742455,-0.082525,0.211409,71.282944,-88.993149,-83.9198,0,0
18363,2024 8 08,15:42:42.423,-0.266792,-0.692146,0.300344,-0.599611,-1.326969,0.170285,0.404704,16.344952,-38.02227,-59.458294,0,0
18364,2024 8 08,15:42:42.431,-0.266052,-0.691691,0.300595,-0.600349,-1.422133,0.211444,0.436174,7.400546,-29.723749,-55.475739,0,0
18365,2024 8 08,15:42:42.440,-0.266436,-0.688068,0.303027,-0.60311,-1.155753,0.261497,0.666121,-29.810009,-44.672825,-47.285473,0,0
18366,2024 8 08,15:42:42.448,-0.268631,-0.683377,0.308022,-0.604931,-0.916091,0.368388,0.097997,-69.264374,-43.401821,-52.055485,0,0
18367,2024 8 08,15:42:42.456,-0.271755,-0.677273,0.315711,-0.60642,-0.960993,0.042407,-0.237381,-97.988647,-41.024384,-73.75576,0,0
18368,2024 8 08,15:42:42.465,-0.27428,-0.669822,0.324789,-0.608747,-0.847329,-0.260966,-0.394591,-93.85408,-51.252773,-91.862862,0,0
18369,2024 8 08,15:42:42.473,-0.274511,-0.662894,0.332413,-0.612105,-0.996527,-0.280832,-0.284939,-58.527805,-46.966335,-91.764534,0,0
18370,2024 8 08,15:42:42.481,-0.274562,-0.661347,0.334115,-0.612854,-1.029828,-0.285266,-0.260465,-50.642941,-46.009598,-91.742592,1,0
18371,2024 8 08,15:42:42.490,-0.273977,-0.656617,0.338535,-0.615764,-0.972624,-0.126519,0.079538,-36.818104,-46.063965,-79.745331,0,0
18372,2024 8 08,15:42:42.498,-0.273485,-0.651539,0.343513,-0.618608,-1.060555,-0.084909,0.184603,-41.274773,-42.476101,-73.56678,0,0
18373,2024 8 08,15:42:42.506,-0.27341,-0.645857,0.348794,-0.621633,-1.014077,-0.128202,0.103845,-43.42625,-48.876884,-75.264473,0,0
18374,2024 8 08,15:42:42.515,-0.273288,-0.639765,0.353942,-0.625062,-0.872708,-0.313996,-0.191768,-40.95467,-54.586502,-74.768646,0,0
18375,2024 8 08,15:42:42.523,-0.273054,-0.633968,0.35793,-0.62879,-0.783497,-0.50702,-0.497274,-25.01527,-52.854076,-59.709511,0,0
18376,2024 8 08,15:42:42.531,-0.271845,-0.631077,0.358026,-0.632171,-0.918449,-0.115746,-0.058616,-20.624496,-52.376854,-55.561222,0,0
18377,2024 8 08,15:42:42.540,-0.271503,-0.630258,0.358054,-0.63313,-0.956708,-0.00482,0.065744,21.220936,-31.833601,-20.630241,0,0
18378,2024 8 08,15:42:42.548,-0.271314,-0.629308,0.357561,-0.634435,-0.989658,-0.075723,0.081538,4.456875,-25.762959,-12.539307,0,0
18379,2024 8 08,15:42:42.556,-0.270952,-0.627945,0.35739,-0.636035,-0.984348,-0.08985,0.034704,11.026782,-22.052122,-14.458152,0,0
18380,2024 8 08,15:42:42.565,-0.270614,-0.62677,0.357123,-0.637485,-0.974386,-0.167457,-0.001751,5.082234,-18.456047,-9.462831,0,0
18381,2024 8 08,15:42:42.573,-0.270433,-0.6259,0.356737,-0.638633,-0.965652,-0.116204,0.024345,7.750908,-14.276389,-4.802677,0,0
18382,2024 8 08,15:42:42.581,-0.270244,-0.625375,0.356229,-0.63951,-0.9635,-0.236628,-0.091962,6.078771,-10.241793,-2.327075,0,0
18383,2024 8 08,15:42:42.590,-0.27015,-0.625116,0.355978,-0.639944,-0.962436,-0.104024,0.002471,5.252395,-8.247882,-1.103625,0,0
18384,2024 8 08,15:42:42.598,-0.270049,-0.62489,0.355709,-0.640357,-0.969885,-0.14683,-0.117508,5.145574,-5.237964,-0.995215,0,0
18385,2024 8 08,15:42:42.606,-0.269876,-0.624803,0.355411,-0.64068,-0.987487,-0.157367,0.051496,4.108155,-3.0361,-0.569428,0,0
18386,2024 8 08,15:42:42.615,-0.269683,-0.62475,0.355174,-0.640944,-0.98256,-0.10841,0.051046,4.267559,-2.300958,-0.743285,0,0
18387,2024 8 08,15:42:42.623,-0.269585,-0.624697,0.354948,-0.641163,-0.983856,-0.105088,0.050786,2.449505,-2.451122,0.248558,0,0
18388,2024 8 08,15:42:42.631,-0.269597,-0.624612,0.354775,-0.641336,-0.990214,-0.11033,0.056365,1.267383,-2.693528,0.859986,0,0
18389,2024 8 08,15:42:42.640,-0.269603,-0.624594,0.354742,-0.641369,-0.991594,-0.111686,0.057507,1.058184,-2.741829,0.966119,0,0
18390,2024 8 08,15:42:42.648,-0.26966,-0.624529,0.354491,-0.641548,-0.994369,-0.101573,0.069736,2.745232,-3.788361,1.591377,0,0
18391,2024 8 08,15:42:42.656,-0.269725,-0.624383,0.354166,-0.641841,-0.996927,-0.101963,0.057518,2.617995,-5.035811,1.282324,0,0
18392,2024 8 08,15:42:42.665,-0.26979,-0.624163,0.35382,-0.642219,-0.983498,-0.096571,0.056719,2.931803,-6.065697,0.760575,0,0
18393,2024 8 08,15:42:42.673,-0.269918,-0.62388,0.353582,-0.642571,-0.984744,-0.100803,0.05671,0.3989,-6.126689,0.313054,0,0
18394,2024 8 08,15:42:42.681,-0.270123,-0.623515,0.353465,-0.642904,-0.979602,-0.102998,0.039073,-0.489394,-6.420913,-0.425177,0,0
18395,2024 8 08,15:42:42.690,-0.27018,-0.623416,0.353438,-0.642991,-0.977897,-0.288865,-0.015079,-0.641979,-6.513012,-0.631603,0,0
18396,2024 8 08,15:42:42.698,-0.270327,-0.62314,0.353357,-0.643241,-0.983566,-0.10001,0.036737,-0.316891,-6.047244,-0.358779,0,0
18397,2024 8 08,15:42:42.706,-0.270483,-0.622834,0.353212,-0.643552,-0.987173,-0.097508,0.030251,0.396033,-5.764427,-0.092665,0,0
18398,2024 8 08,15:42:42.715,-0.270571,-0.622533,0.353053,-0.643893,-0.986048,-0.167897,-0.098579,1.469518,-5.480474,-0.613912,0,0
18399,2024 8 08,15:42:42.723,-0.270551,-0.622276,0.352835,-0.644269,-0.983836,-0.10044,0.032895,2.899034,-5.183175,-0.931628,0,0
18400,2024 8 08,15:42:42.731,-0.270463,-0.62205,0.35259,-0.644658,-0.981803,-0.102446,0.039013,3.479778,-4.883356,-1.222569,0,0
18401,2024 8 08,15:42:42.740,-0.270432,-0.62198,0.352512,-0.644782,-0.981169,-0.10328,0.041329,3.621444,-4.788089,-1.315964,0,0
18402,2024 8 08,15:42:42.748,-0.270382,-0.621803,0.352329,-0.645073,-0.975843,-0.199539,-0.004102,3.36905,-5.091221,-0.890873,0,0
18403,2024 8 08,15:42:42.756,-0.270336,-0.621589,0.352074,-0.645437,-0.973819,-0.110427,0.025552,3.107148,-5.210905,-0.484211,0,0
18404,2024 8 08,15:42:42.765,-0.270333,-0.621366,0.35179,-0.645808,-0.973019,-0.121936,0.007608,3.019886,-5.318596,0.124705,0,0
18405,2024 8 08,15:42:42.773,-0.270375,-0.621172,0.351491,-0.64614,-0.971521,-0.106391,0.027074,2.646383,-4.849185,0.818021,0,0
18406,2024 8 08,15:42:42.781,-0.270435,-0.621002,0.351208,-0.646432,-0.974345,-0.107003,0.028509,2.225739,-4.457094,0.990892,0,0
18407,2024 8 08,15:42:42.790,-0.270457,-0.620942,0.351106,-0.646536,-0.975618,-0.107309,0.02908,2.072574,-4.323435,1.024703,0,0
18408,2024 8 08,15:42:42.798,-0.270493,-0.620856,0.350905,-0.646713,-0.976873,-0.104974,0.033165,2.219664,-3.758028,1.185053,0,0
18409,2024 8 08,15:42:42.806,-0.270532,-0.620764,0.350662,-0.646916,-0.975273,-0.145439,-0.030884,2.178133,-3.405253,1.141408,0,0
18410,2024 8 08,15:42:42.815,-0.270533,-0.620715,0.350371,-0.64712,-0.97833,-0.100004,0.031128,3.294207,-2.657851,1.407053,0,0
18411,2024 8 08,15:42:42.823,-0.270544,-0.620682,0.350105,-0.647291,-0.977493,-0.097905,0.037564,2.011731,-2.448582,1.202671,0,0
18412,2024 8 08,15:42:42.831,-0.270616,-0.62061,0.349963,-0.647407,-0.977744,-0.104633,0.025467,-0.101609,-2.221097,0.764229,0,0
18413,2024 8 08,15:42:42.840,-0.27065,-0.620578,0.349913,-0.647451,-0.977956,-0.107849,0.01946,-0.984038,-2.122227,0.577235,0,0
18414,2024 8 08,15:42:42.848,-0.270825,-0.620453,0.349934,-0.647486,-0.980289,-0.116519,0.019242,-2.256435,-2.409209,0.906889,0,0
18415,2024 8 08,15:42:42.856,-0.271052,-0.6504,0.180399,-0.68622,-0.98196,-0.10764,0.026439,-1.984118,-3.042366,1.389804,0,0
18416,2024 8 08,15:42:42.865,-0.271199,-0.620197,0.349871,-0.647609,-0.982926,-0.100212,0.031661,-1.652917,-3.472551,1.704267,0,0
18417,2024 8 08,15:42:42.873,-0.271454,-0.620002,0.349719,-0.647771,-0.986256,-0.092998,0.032211,-0.108482,-4.485483,1.76806,0,0
18418,2024 8 08,15:42:42.881,-0.271655,-0.61977,0.349529,-0.648011,-0.98682,-0.13123,0.027269,-0.004815,-5.33179,1.01169,0,0
18419,2024 8 08,15:42:42.890,-0.271808,-0.619477,0.349336,-0.648331,-0.985466,-0.42835,-0.001201,0.746739,-6.000888,0.059209,0,0
18420,2024 8 08,15:42:42.898,-0.271816,-0.61946,0.349325,-0.64835,-0.985388,-0.096702,0.036111,0.790081,-6.039475,0.004278,0,0
18421,2024 8 08,15:42:42.906,-0.271947,-0.619132,0.349151,-0.648701,-0.978238,-0.103828,0.022737,0.848979,-6.767766,-0.501933,0,0
18422,2024 8 08,15:42:42.915,-0.272076,-0.618756,0.348926,-0.649128,-0.981596,-0.10531,0.022489,1.40415,-7.10432,-0.049466,0,0
18423,2024 8 08,15:42:42.923,-0.272114,-0.618437,0.348604,-0.649588,-0.984961,-0.092867,0.019426,3.465396,-6.757265,-0.114001,0,0
18424,2024 8 08,15:42:42.931,-0.272222,-0.618064,0.34836,-0.650029,-0.982761,-2.052547,0.390991,1.123163,-7.200755,-0.442097,0,0
18425,2024 8 08,15:42:42.940,-0.27227,-0.617711,0.348061,-0.650504,-0.98376,-0.113863,0.016376,3.160231,-7.254736,-0.482032,0,0
18426,2024 8 08,15:42:42.948,-0.272277,-0.640489,0.379225,-0.609773,-0.983894,-0.114619,0.016985,3.432173,-7.261943,-0.487363,0,0
18427,2024 8 08,15:42:42.956,-0.27226,-0.617339,0.34768,-0.651066,-0.984324,-0.097054,0.021595,3.625734,-8.393337,-0.796413,0,0
18428,2024 8 08,15:42:42.965,-0.272172,-0.616954,0.347307,-0.651665,-0.994128,-0.079707,0.026372,5.177209,-8.113607,-1.70671,0,0
18429,2024 8 08,15:42:42.973,-0.272017,-0.616584,0.346966,-0.652261,-0.994163,-0.20967,-0.05224,5.236104,-7.316069,-2.309232,0,0
18430,2024 8 08,15:42:42.981,-0.271807,-0.616172,0.346665,-0.652898,-0.985867,-0.195762,-0.120817,4.900641,-7.816844,-3.701106,0,0
18431,2024 8 08,15:42:42.990,-0.271253,-0.615488,0.346668,-0.653772,-0.969083,-0.196726,-0.04393,7.618992,-10.594771,-12.4533,0,0
18432,2024 8 08,15:42:42.998,-0.270959,-0.614994,0.346489,-0.654453,-0.972699,-0.073999,0.059403,5.747763,-8.494387,-5.271187,0,0
18433,2024 8 08,15:42:43.006,-0.270898,-0.614892,0.346452,-0.654594,-0.97345,-0.146859,-0.030208,5.358807,-8.057798,-3.778302,0,0
18434,2024 8 08,15:42:43.015,-0.270789,-0.614506,0.346222,-0.655123,-0.975871,-0.117375,0.002244,4.521851,-8.386071,-2.795337,0,0
18435,2024 8 08,15:42:43.023,-0.270554,-0.614131,0.345737,-0.655827,-0.97642,-0.096792,0.000536,8.141794,-8.739294,-1.92193,0,0
18436,2024 8 08,15:42:43.031,-0.270366,-0.613744,0.345252,-0.656522,-0.979121,-0.207842,-0.084204,6.562666,-8.547174,-1.715839,0,0
18437,2024 8 08,15:42:43.040,-0.270098,-0.613425,0.344672,-0.657235,-0.979419,-0.106013,-0.003718,8.762312,-8.091752,-1.438494,0,0
18438,2024 8 08,15:42:43.048,-0.269766,-0.613148,0.344045,-0.657957,-0.979136,-0.105615,-0.002421,9.723832,-7.751997,-1.592409,0,0
18439,2024 8 08,15:42:43.056,-0.269679,-0.613076,0.343881,-0.658147,-0.979062,-0.105511,-0.002081,9.975884,-7.662933,-1.632756,0,0
18440,2024 8 08,15:42:43.065,-0.269351,-0.612914,0.343336,-0.658716,-0.983601,-1.258361,0.080026,10.350922,-6.981278,-1.59983,0,0
18441,2024 8 08,15:42:43.073,-0.268932,-0.612734,0.342717,-0.659377,-0.981398,-0.107903,-0.003698,10.455413,-6.704661,-1.807399,0,0
18442,2024 8 08,15:42:43.081,-0.268511,-0.612571,0.342041,-0.66005,-0.979394,-0.108939,-0.007274,10.871185,-6.711127,-1.352448,0,0
18443,2024 8 08,15:42:43.090,-0.268058,-0.612387,0.341321,-0.660776,-0.974056,-0.104277,-0.120392,11.459993,-7.094644,-1.345727,0,0
18444,2024 8 08,15:42:43.098,-0.267563,-0.612248,0.340509,-0.661524,-0.976806,-0.108843,-0.015393,12.812227,-6.832974,-0.756489,0,0
18445,2024 8 08,15:42:43.106,-0.26741,-0.612206,0.340258,-0.661756,-0.977656,-0.107879,-0.016215,13.230683,-6.751998,-0.574146,0,0
18446,2024 8 08,15:42:43.115,-0.266996,-0.612111,0.339602,-0.662347,-0.969386,-0.108231,-0.022388,12.747388,-6.644236,-0.968007,0,0
18447,2024 8 08,15:42:43.123,-0.266512,-0.612044,0.338833,-0.662997,-0.972558,-0.168493,-0.021238,13.037739,-5.715543,-0.567435,0,0
18448,2024 8 08,15:42:43.131,-0.265746,-0.612004,0.337724,-0.663907,-0.979151,-0.106168,-0.007139,13.077621,-4.992487,-0.890737,0,0
18449,2024 8 08,15:42:43.140,-0.265156,-0.611973,0.336975,-0.664552,-0.986574,-0.109194,-0.006586,11.930056,-4.996525,-1.334536,0,0
18450,2024 8 08,15:42:43.148,-0.26454,-0.611921,0.336238,-0.665218,-0.990206,-0.085922,0.02074,12.689973,-5.308583,-2.363814,0,0
18451,2024 8 08,15:42:43.156,-0.264435,-0.611911,0.336113,-0.665332,-0.990723,-0.081321,0.026063,12.868195,-5.367702,-2.552645,0,0
18452,2024 8 08,15:42:43.165,-0.26397,-0.61175,0.335686,-0.66588,-0.991538,-0.107047,-0.006314,10.319963,-5.813552,-3.398929,0,0
18453,2024 8 08,15:42:43.173,-0.263422,-0.611538,0.335088,-0.666593,-0.991714,-0.106183,0.001993,10.821284,-6.784289,-2.95438,0,0
18454,2024 8 08,15:42:43.181,-0.262919,-0.611237,0.334524,-0.667351,-0.9772,-0.138571,-0.110653,9.448982,-8.048153,-3.586106,0,0
18455,2024 8 08,15:42:43.190,-0.262491,-0.610874,0.334014,-0.668106,-0.981899,-0.115434,-0.023693,8.418196,-7.904097,-3.103282,0,0
18456,2024 8 08,15:42:43.198,-0.262132,-0.610488,0.333532,-0.66884,-0.984047,-0.155995,-0.023431,7.696262,-8.520435,-3.18279,0,0
18457,2024 8 08,15:42:43.206,-0.262049,-0.610395,0.333419,-0.669014,-0.984358,-0.111923,-0.014899,7.532209,-8.700686,-3.228005,0,0
18458,2024 8 08,15:42:43.215,-0.261822,-0.610077,0.333049,-0.669577,-0.978611,-0.110749,-0.022643,7.510893,-8.724107,-2.872172,0,0
18459,2024 8 08,15:42:43.223,-0.261582,-0.609681,0.332629,-0.67024,-0.980117,-0.11577,-0.041027,6.437173,-8.37052,-2.721408,0,0
18460,2024 8 08,15:42:43.231,-0.261351,-0.609275,0.332167,-0.670928,-0.978025,-0.115954,-0.036451,6.768361,-8.437548,-2.075108,0,0
18461,2024 8 08,15:42:43.240,-0.261118,-0.608888,0.331671,-0.671615,-0.976204,-0.115419,-0.031398,6.967962,-8.562616,-2.048001,0,0
18462,2024 8 08,15:42:43.248,-0.260922,-0.608488,0.331201,-0.672286,-0.973666,-0.147952,-0.031253,6.022725,-8.512039,-1.855593,0,0
18463,2024 8 08,15:42:43.256,-0.260866,-0.608369,0.331064,-0.672483,-0.97288,-0.115704,-0.031684,5.695689,-8.489445,-1.786915,0,0
18464,2024 8 08,15:42:43.265,-0.26076,-0.608055,0.330764,-0.672955,-0.981093,-0.101331,-0.001272,5.297257,-8.736039,-1.773524,0,0
18465,2024 8 08,15:42:43.273,-0.260668,-0.607603,0.3305,-0.673528,-0.984068,-0.115997,-0.01513,3.387244,-9.197192,-2.63847,0,0
18466,2024 8 08,15:42:43.281,-0.260613,-0.607083,0.330233,-0.67415,-0.986012,-0.108165,-0.017361,3.192828,-9.639283,-2.5499,0,0
18467,2024 8 08,15:42:43.290,-0.260599,-0.606485,0.329962,-0.674825,-0.98665,-0.114243,-0.025542,3.426573,-10.669613,-2.87027,0,0
18468,2024 8 08,15:42:43.298,-0.26057,-0.60582,0.329673,-0.675574,-0.97851,-0.105092,-0.039904,2.994216,-11.564962,-3.206519,0,0
18469,2024 8 08,15:42:43.306,-0.260559,-0.605588,0.329573,-0.675836,-0.975258,-0.101004,-0.045106,2.809461,-11.86185,-3.318741,0,0
18470,2024 8 08,15:42:43.315,-0.260569,-0.605022,0.329376,-0.676434,-0.967279,-0.117727,-0.065407,2.334933,-12.286673,-3.346905,0,0
18471,2024 8 08,15:42:43.323,-0.260593,-0.604335,0.329137,-0.677155,-0.963486,-0.142398,-0.102888,2.222544,-11.835443,-2.969441,0,0
18472,2024 8 08,15:42:43.331,-0.260662,-0.603607,0.328929,-0.677879,-0.9712,-0.121442,-0.034813,1.557619,-12.07587,-2.808821,0,0
18473,2024 8 08,15:42:43.340,-0.260712,-0.602852,0.328652,-0.678664,-0.971686,-0.123708,-0.011839,2.891479,-13.190837,-2.877313,0,0
18474,2024 8 08,15:42:43.348,-0.260769,-0.602086,0.328312,-0.679487,-0.975525,-0.165237,0.027011,3.59501,-13.584496,-2.356245,0,0
18475,2024 8 08,15:42:43.356,-0.260791,-0.601788,0.328177,-0.679808,-0.97729,-0.126151,-0.035861,3.811954,-13.687945,-2.117801,0,0
18476,2024 8 08,15:42:43.365,-0.260799,-0.601235,0.32784,-0.680456,-0.977237,-0.154113,-0.074877,4.56842,-14.010085,-2.446657,0,0
18477,2024 8 08,15:42:43.373,-0.260763,-0.600532,0.327314,-0.681343,-0.964745,-0.167292,-0.098601,6.023816,-13.794057,-2.213578,0,0
18478,2024 8 08,15:42:43.381,-0.260727,-0.599781,0.326787,-0.68227,-0.967449,-0.120977,-0.07954,5.656891,-14.026614,-2.185862,0,0
18479,2024 8 08,15:42:43.390,-0.260654,-0.599052,0.326257,-0.683192,-0.975563,-0.11963,-0.077752,5.384532,-13.416378,-2.545938,0,0
18480,2024 8 08,15:42:43.398,-0.260605,-0.598594,0.325923,-0.683772,-0.980958,-0.118176,-0.07424,5.249751,-12.942015,-2.806212,0,0
18481,2024 8 08,15:42:43.406,-0.260543,-0.597833,0.325508,-0.684658,-1.017329,-0.124863,-0.059876,4.591539,-13.298142,-2.927134,0,0
18482,2024 8 08,15:42:43.415,-0.260455,-0.597002,0.325065,-0.685627,-0.988401,-0.096271,-0.034623,5.402261,-14.482725,-3.753727,0,0
18483,2024 8 08,15:42:43.423,-0.260452,-0.596973,0.325049,-0.685661,-0.987388,-0.09527,-0.033739,5.430637,-14.524188,-3.782659,0,0
18484,2024 8 08,15:42:43.431,-0.260333,-0.596158,0.324667,-0.686596,-0.989167,-0.128131,-0.073919,5.032096,-15.154701,-4.698225,0,0
18485,2024 8 08,15:42:43.440,-0.260128,-0.595284,0.324188,-0.687657,-0.99108,-0.123895,-0.080054,6.583541,-15.081807,-4.924813,0,0
18486,2024 8 08,15:42:43.448,-0.259898,-0.594352,0.323717,-0.688772,-1.000107,-0.119131,-0.099171,6.86855,-15.908746,-5.830129,0,0
18487,2024 8 08,15:42:43.456,-0.259567,-0.593315,0.323201,-0.690032,-0.977713,-0.093753,-0.048349,7.495932,-16.858168,-6.841276,0,0
18488,2024 8 08,15:42:43.465,-0.259221,-0.592296,0.322869,-0.691191,-0.987946,-0.079508,-0.09151,6.211017,-15.875909,-8.293416,0,0
18489,2024 8 08,15:42:43.473,-0.259181,-0.592179,0.322831,-0.691324,-0.989116,-0.077878,-0.096446,6.064065,-15.763571,-8.459493,0,0
18490,2024 8 08,15:42:43.481,-0.258848,-0.591299,0.322789,-0.692221,-1.004384,-0.080613,-0.11345,2.633094,-12.599465,-10.212927,0,0
18491,2024 8 08,15:42:43.490,-0.258556,-0.590311,0.323267,-0.69295,-1.001518,-0.073945,-0.139417,-2.864793,-9.831909,-12.630419,0,0
18492,2024 8 08,15:42:43.498,-0.258241,-0.589246,0.324219,-0.693528,-1.049754,-0.041461,-0.152292,-8.439689,-7.629518,-16.007318,0,0
18493,2024 8 08,15:42:43.506,-0.257965,-0.588073,0.325647,-0.693957,-1.154362,-0.035847,-0.182207,-11.80605,-6.469021,-18.667957,0,0
18494,2024 8 08,15:42:43.515,-0.257435,-0.586927,0.326956,-0.694509,-1.084609,-0.029307,-0.144295,-6.206488,-6.768425,-21.912447,0,0
18495,2024 8 08,15:42:43.523,-0.257339,-0.586719,0.327194,-0.694609,-1.071937,-0.028119,-0.137408,-5.189222,-6.822817,-22.501869,0,0
18496,2024 8 08,15:42:43.531,-0.255769,-0.585629,0.329399,-0.695065,-1.21946,-0.034496,-0.170661,-12.957664,2.927083,-41.407276,0,0
18497,2024 8 08,15:42:43.540,-0.252826,-0.584422,0.332684,-0.69559,-1.244638,-0.072233,-0.040399,-6.181126,9.403605,-57.3097,0,0
18498,2024 8 08,15:42:43.548,-0.248444,-0.583486,0.336497,-0.696116,-1.292794,-0.07984,-0.079916,-0.341273,17.78553,-70.907799,0,0
18499,2024 8 08,15:42:43.556,-0.242903,-0.582235,0.340425,-0.697204,-1.25851,-0.081148,-0.044845,8.859755,14.30349,-83.509293,0,0
18500,2024 8 08,15:42:43.565,-0.236486,-0.580681,0.344603,-0.698648,-1.237292,-0.097728,-0.023816,11.072212,14.796078,-94.181961,0,0
18501,2024 8 08,15:42:43.573,-0.23495,-0.580308,0.345603,-0.698994,-1.232211,-0.101698,-0.01878,11.602017,14.914035,-96.737686,0,0
18502,2024 8 08,15:42:43.581,-0.229035,-0.578792,0.349302,-0.700364,-1.222999,-0.110634,-0.065591,15.211609,14.446463,-103.741173,0,0
18503,2024 8 08,15:42:43.590,-0.221967,-0.576802,0.353519,-0.702155,-1.238493,-0.184015,-0.140131,14.085228,11.468729,-101.165085,0,0
18504,2024 8 08,15:42:43.598,-0.214541,-0.574228,0.356882,-0.704861,-1.175507,-0.067176,0.007124,30.251307,-2.255229,-108.250397,0,0
18505,2024 8 08,15:42:43.606,-0.206378,-0.570731,0.361751,-0.70764,-1.223217,-0.104687,-0.080725,14.423662,0.055808,-126.818481,0,0
18506,2024 8 08,15:42:43.615,-0.197318,-0.566955,0.367612,-0.710222,-1.264973,-0.118363,-0.0523,13.287789,4.030291,-139.516632,0,0
18507,2024 8 08,15:42:43.623,-0.194694,-0.565861,0.369309,-0.71097,-1.277067,-0.122325,-0.044068,12.958801,5.18144,-143.194458,0,0
18508,2024 8 08,15:42:43.631,-0.187202,-0.562159,0.374439,-0.713214,-1.310726,-0.128231,-0.057495,9.947657,-2.962872,-150.156952,0,0
18509,2024 8 08,15:42:43.640,-0.178243,-0.55685,0.380923,-0.716209,-1.286572,-0.153423,-0.053236,6.063991,-12.170837,-159.798141,0,0
18510,2024 8 08,15:42:43.648,-0.168664,-0.550597,0.388299,-0.719373,-1.28002,-0.17716,-0.065129,0.842704,-15.749138,-168.387878,0,0
18511,2024 8 08,15:42:43.656,-0.158837,-0.543559,0.396318,-0.722563,-1.263533,-0.223017,-0.05879,-5.241713,-20.776978,-176.121155,0,0
18512,2024 8 08,15:42:43.665,-0.145345,-0.532832,0.407986,-0.726967,-1.243176,-0.338444,-0.068328,-11.825002,-29.319248,-184.782425,0,0
18513,2024 8 08,15:42:43.673,-0.144005,-0.531708,0.409181,-0.727406,-1.24128,-0.352804,-0.070283,-12.381062,-30.258114,-185.534592,0,0
18514,2024 8 08,15:42:43.681,-0.13557,-0.524312,0.416801,-0.730039,-1.204834,-0.38781,-0.051083,-13.56616,-30.682112,-187.285385,0,0
18515,2024 8 08,15:42:43.690,-0.125777,-0.515326,0.425901,-0.732927,-1.190857,-0.46799,-0.06164,-18.821199,-32.974648,-189.118011,0,1
18516,2024 8 08,15:42:43.698,-0.116138,-0.505993,0.434936,-0.735706,-1.195862,-0.473819,-0.042051,-19.733953,-36.843639,-187.84491,0,0
18517,2024 8 08,15:42:43.706,-0.10686,-0.496316,0.443797,-0.738405,-1.206587,-0.483711,-0.028474,-20.457071,-41.658298,-184.786438,0,0
18518,2024 8 08,15:42:43.715,-0.098188,-0.486099,0.452431,-0.741158,-1.217681,-0.499227,-0.024948,-22.735987,-51.261127,-181.009674,0,0
18519,2024 8 08,15:42:43.723,-0.096391,-0.483947,0.45423,-0.741736,-1.219996,-0.502575,-0.024468,-23.257704,-53.411926,-180.203903,0,0
18520,2024 8 08,15:42:43.731,-0.090127,-0.475063,0.460732,-0.744224,-1.135496,-0.463914,-0.013174,-21.856266,-64.35434,-177.453674,0,0
18521,2024 8 08,15:42:43.740,-0.082919,-0.463597,0.468454,-0.747451,-1.015471,-0.423676,-0.001316,-21.430984,-74.152184,-175.258591,0,0
18522,2024 8 08,15:42:43.748,-0.075766,-0.451499,0.476177,-0.750722,-0.921132,-0.409742,-0.005057,-22.237844,-77.65464,-175.262604,0,0
18523,2024 8 08,15:42:43.756,-0.068479,-0.439229,0.483831,-0.753796,-0.856747,-0.407193,0.011778,-21.940229,-76.561371,-176.419952,0,0
18524,2024 8 08,15:42:43.765,-0.061209,-0.426801,0.491381,-0.756668,-0.848724,-0.441618,0.000733,-22.789955,-78.172836,-176.08963,0,0
18525,2024 8 08,15:42:43.773,-0.05924,-0.423427,0.493423,-0.757439,-0.84867,-0.452395,-0.003522,-23.074087,-78.740974,-175.935013,0,0
18526,2024 8 08,15:42:43.781,-0.053898,-0.413606,0.498926,-0.759626,-0.78328,-0.47496,-0.002853,-21.26248,-82.987396,-173.920013,0,0
18527,2024 8 08,15:42:43.790,-0.047481,-0.401223,0.505566,-0.762281,-0.717458,-0.513954,-0.015157,-20.609421,-84.898407,-169.026993,0,0
18528,2024 8 08,15:42:43.798,-0.041315,-0.388647,0.511863,-0.764944,-0.582217,-0.422687,-0.042363,-17.486586,-85.464767,-158.724762,0,0
18529,2024 8 08,15:42:43.806,-0.036166,-0.376979,0.517076,-0.767541,-0.407515,-0.206032,0.123542,-11.574165,-80.767677,-133.680267,0,0
18530,2024 8 08,15:42:43.815,-0.033011,-0.36814,0.52037,-0.769767,-0.416794,0.105879,0.211157,-2.028198,-65.965034,-85.634064,0,0
18531,2024 8 08,15:42:43.823,-0.032887,-0.362554,0.522509,-0.770994,-0.696459,0.099969,0.063018,-17.178741,-52.345963,-36.226112,0,0
18532,2024 8 08,15:42:43.831,-0.032983,-0.360841,0.523175,-0.771354,-0.801431,0.081503,0.002842,-23.469875,-47.953503,-19.910219,0,0
18533,2024 8 08,15:42:43.840,-0.036033,-0.359146,0.52401,-0.771441,-0.843415,0.321788,0.127268,-28.806543,-47.667336,14.057203,0,0
18534,2024 8 08,15:42:43.848,-0.042422,-0.357542,0.525156,-0.771071,-0.884288,0.349306,0.16891,-43.961899,-58.846603,43.20364,0,0
18535,2024 8 08,15:42:43.856,-0.051262,-0.355438,0.526673,-0.770458,-0.828627,0.326374,0.179141,-58.311474,-75.848854,57.801399,0,0
18536,2024 8 08,15:42:43.865,-0.061405,-0.352619,0.528715,-0.769598,-0.680842,0.286729,0.215733,-69.364716,-85.688011,61.826786,0,0
18537,2024 8 08,15:42:43.873,-0.071919,-0.349699,0.531228,-0.76828,-0.576414,0.242456,0.240866,-76.505058,-83.851669,63.820148,0,0
18538,2024 8 08,15:42:43.881,-0.075893,-0.348599,0.532197,-0.767759,-0.540222,0.22564,0.249431,-78.997032,-82.559982,64.529129,0,0
18539,2024 8 08,15:42:43.890,-0.083512,-0.347055,0.534187,-0.766274,-0.54879,0.198289,0.254855,-81.157349,-74.85527,68.732964,0,0
18540,2024 8 08,15:42:43.898,-0.093363,-0.345929,0.536593,-0.763944,-0.607592,0.188789,0.269223,-83.043839,-65.513275,78.724701,0,0
18541,2024 8 08,15:42:43.906,-0.104469,-0.345717,0.538881,-0.760969,-0.687853,0.179274,0.268807,-85.512886,-59.231461,93.841911,0,0
18542,2024 8 08,15:42:43.915,-0.116971,-0.346344,0.540844,-0.757444,-0.753825,0.158324,0.258181,-89.523285,-58.683849,112.897179,0,0
18543,2024 8 08,15:42:43.923,-0.131018,-0.347782,0.542398,-0.753337,-0.795145,0.139976,0.247952,-94.874695,-58.964745,133.820419,0,0
18544,2024 8 08,15:42:43.931,-0.136946,-0.348424,0.543021,-0.751597,-0.810925,0.132617,0.243799,-97.171051,-59.083336,142.607819,0,0
18545,2024 8 08,15:42:43.940,-0.139897,-0.348744,0.543331,-0.750731,-0.818782,0.128952,0.24173,-98.314461,-59.142387,146.983276,0,0
18546,2024 8 08,15:42:43.948,-0.156289,-0.351526,0.544228,-0.745527,-0.864504,0.101817,0.249313,-104.150116,-59.024216,168.24408,0,0
18547,2024 8 08,15:42:43.956,-0.174254,-0.354975,0.544775,-0.739482,-0.899407,0.064121,0.253724,-110.798363,-60.074505,187.35054,0,0
18548,2024 8 08,15:42:43.965,-0.193291,-0.358841,0.545012,-0.732672,-0.957555,0.007705,0.282039,-116.775703,-60.981907,201.039932,0,0
18549,2024 8 08,15:42:43.973,-0.213113,-0.362823,0.544877,-0.725269,-0.997998,-0.051277,0.303128,-119.488129,-64.15593,210.365707,0,0
18550,2024 8 08,15:42:43.981,-0.233534,-0.366621,0.544226,-0.717511,-0.995831,-0.106367,0.309494,-119.337318,-69.411591,216.825089,0,0
18551,2024 8 08,15:42:43.990,-0.235198,-0.36693,0.544173,-0.716879,-0.995655,-0.110856,0.310013,-119.325027,-69.83992,217.351501,0,0
18552,2024 8 08,15:42:43.998,-0.25391,-0.370372,0.543105,-0.709464,-0.986495,-0.137402,0.303096,-117.691284,-67.213776,219.577972,0,0
18553,2024 8 08,15:42:44.006,-0.273812,-0.374374,0.541723,-0.700952,-1.051207,-0.161707,0.323824,-115.584625,-61.995667,220.459976,0,0
18554,2024 8 08,15:42:44.015,-0.293533,-0.378463,0.540056,-0.691997,-1.115237,-0.161213,0.320364,-114.486816,-58.621704,220.300308,0,0
18555,2024 8 08,15:42:44.023,-0.313057,-0.382583,0.538338,-0.682438,-1.228488,-0.172847,0.309465,-118.364319,-54.942131,221.532776,0,0
18556,2024 8 08,15:42:44.031,-0.332774,-0.386433,0.53657,-0.672245,-1.265646,-0.194293,0.294721,-124.997269,-56.53072,224.13028,0,0
18557,2024 8 08,15:42:44.040,-0.335805,-0.387025,0.536299,-0.670679,-1.271357,-0.197589,0.292455,-126.016655,-56.77486,224.529465,0,0
18558,2024 8 08,15:42:44.048,-0.353046,-0.390266,0.534899,-0.660941,-1.357837,-0.145924,0.343486,-133.0616,-52.196838,229.96637,0,0
18559,2024 8 08,15:42:44.056,-0.372778,-0.393536,0.533707,-0.648984,-1.371014,-0.230831,0.355206,-146.983154,-52.484619,229.730026,0,0
18560,2024 8 08,15:42:44.065,-0.392976,-0.396267,0.532943,-0.635878,-1.383639,-0.277131,0.375391,-158.865372,-50.140354,228.952164,0,0
18561,2024 8 08,15:42:44.073,-0.413065,-0.398429,0.532787,-0.62175,-1.404281,-0.350374,0.421869,-171.146805,-45.863735,225.852097,0,0
18562,2024 8 08,15:42:44.081,-0.432799,-0.399934,0.533169,-0.60684,-1.420365,-0.425772,0.46236,-180.880325,-42.836182,220.15506,0,0
18563,2024 8 08,15:42:44.090,-0.437048,-0.400258,0.533252,-0.603629,-1.423828,-0.442009,0.471079,-182.976456,-42.184193,218.928192,0,0
18564,2024 8 08,15:42:44.098,-0.452696,-0.400771,0.534064,-0.590833,-1.39591,-0.493735,0.494282,-188.106018,-39.009678,211.105804,0,0
18565,2024 8 08,15:42:44.106,-0.470056,-0.400841,0.535424,-0.575749,-1.374279,-0.56034,0.520702,-190.456909,-33.341564,200.069321,0,0
18566,2024 8 08,15:42:44.115,-0.486876,-0.40036,0.537159,-0.56026,-1.337361,-0.595446,0.520569,-189.663254,-28.962086,186.74295,0,0
18567,2024 8 08,15:42:44.123,-0.50249,-0.399442,0.539243,-0.544915,-1.307204,-0.608599,0.504348,-186.046097,-21.924303,172.417068,0,0
18568,2024 8 08,15:42:44.131,-0.516735,-0.398218,0.541665,-0.529887,-1.300777,-0.608111,0.480211,-181.370789,-14.714039,158.420349,0,0
18569,2024 8 08,15:42:44.140,-0.520562,-0.39789,0.542315,-0.52585,-1.299051,-0.277237,-0.353984,-180.114807,-12.777056,154.660233,0,0
18570,2024 8 08,15:42:44.148,-0.530662,-0.396695,0.544549,-0.514175,-1.313174,-0.594037,0.473323,-176.290665,-7.026155,145.449646,0,0
18571,2024 8 08,15:42:44.156,-0.54179,-0.395078,0.547316,-0.500653,-1.318573,-0.588691,0.478708,-172.494003,-3.626143,136.036163,0,0
18572,2024 8 08,15:42:44.165,-0.552649,-0.393108,0.550233,-0.486928,-1.285468,-0.595287,0.474844,-168.450073,-1.993524,126.608017,0,0
18573,2024 8 08,15:42:44.173,-0.562869,-0.390815,0.553268,-0.473436,-1.243908,-0.605004,0.457874,-164.839081,0.809207,117.385849,0,0
18574,2024 8 08,15:42:44.181,-0.57225,-0.388266,0.556685,-0.460094,-1.256737,-0.641271,0.437344,-163.561188,7.703004,108.183289,0,0
18575,2024 8 08,15:42:44.190,-0.575206,-0.387463,0.557762,-0.455889,-1.26078,-0.652701,0.430873,-163.158447,9.875618,105.283051,0,0
18576,2024 8 08,15:42:44.198,-0.581788,-0.385082,0.560817,-0.445658,-1.269577,-0.706555,0.412173,-164.535309,11.431076,97.914268,0,0
18577,2024 8 08,15:42:44.206,-0.592068,-0.380475,0.565885,-0.429457,-1.23199,-0.802871,0.391581,-166.947784,9.160906,87.342041,0,0
18578,2024 8 08,15:42:44.215,-0.599906,-0.376033,0.570078,-0.416756,-1.179442,-0.907149,0.400028,-169.862823,9.194073,82.025574,0,0
18579,2024 8 08,15:42:44.223,-0.607332,-0.371305,0.574419,-0.404083,-1.162298,-1.016452,0.436374,-170.38208,11.358813,78.165375,0,0
18580,2024 8 08,15:42:44.231,-0.614397,-0.366267,0.578637,-0.391792,-1.099396,-1.135665,0.46345,-166.652435,8.352563,72.088783,0,0
18581,2024 8 08,15:42:44.240,-0.620906,-0.361003,0.582621,-0.380346,-0.988935,-1.258293,0.506652,-157.200684,7.034934,63.144726,0,0
18582,2024 8 08,15:42:44.248,-0.622133,-0.359994,0.583375,-0.378186,-0.966765,-0.495241,-0.032525,-155.256241,6.851582,61.369713,0,0
18583,2024 8 08,15:42:44.256,-0.626376,-0.355788,0.586681,-0.369923,-0.903684,-1.367921,0.522197,-145.230225,11.19978,50.781563,0,0
18584,2024 8 08,15:42:44.265,-0.630397,-0.350923,0.590771,-0.361123,-0.837092,-1.428807,0.532834,-127.86544,16.235828,36.396637,0,0
18585,2024 8 08,15:42:44.273,-0.633149,-0.346311,0.595011,-0.353732,-0.803654,-1.433434,0.49767,-108.99765,21.09581,21.160122,0,0
18586,2024 8 08,15:42:44.281,-0.634725,-0.341966,0.599286,-0.347877,-0.789565,-1.381273,0.450293,-92.498161,24.346172,6.989079,0,0
18587,2024 8 08,15:42:44.290,-0.635357,-0.337807,0.603577,-0.343344,-0.781558,-1.280344,0.403283,-79.10704,26.219923,-5.379825,0,0
18588,2024 8 08,15:42:44.298,-0.635488,-0.336751,0.604673,-0.342229,-0.779661,-1.252998,0.391321,-75.791023,26.655201,-8.476834,0,0
18589,2024 8 08,15:42:44.306,-0.63539,-0.333549,0.607927,-0.339764,-0.764186,-1.138672,0.366208,-69.066704,25.969971,-16.095512,0,0
18590,2024 8 08,15:42:44.315,-0.634938,-0.329482,0.611972,-0.3373,-0.727268,-0.999316,0.334152,-63.098709,25.612839,-24.573597,0,0
18591,2024 8 08,15:42:44.323,-0.633991,-0.32526,0.616261,-0.335363,-1.890732,-0.873938,-0.229643,-56.08839,29.57548,-32.83215,0,0
18592,2024 8 08,15:42:44.331,-0.632918,-0.318292,0.620618,-0.336019,-1.616321,-0.770923,0.173517,-74.963539,-5.227175,-82.692902,0,0
18593,2024 8 08,15:42:44.340,-0.634484,-0.306572,0.623176,-0.339159,-1.372338,-0.751134,0.089537,-74.542702,-67.562294,-117.668015,0,0
18594,2024 8 08,15:42:44.348,-0.635094,-0.30273,0.623886,-0.340232,-1.309302,-0.748729,0.033437,-73.330231,-87.92662,-127.543442,1,0
18595,2024 8 08,15:42:44.356,-0.639081,-0.293072,0.622322,-0.344001,-1.221586,-0.812392,0.075216,-75.24176,-122.988373,-99.887802,0,0
18596,2024 8 08,15:42:44.365,-0.646842,-0.282342,0.617519,-0.347057,-0.942532,-0.948357,-0.463923,-54.611679,-154.480225,-45.203281,0,0
18597,2024 8 08,15:42:44.373,-0.653705,-0.2769,0.609769,-0.352258,-0.602846,-0.304124,-0.729542,18.584396,-137.242737,-19.259209,0,0
18598,2024 8 08,15:42:44.381,-0.657115,-0.275084,0.604366,-0.356682,-0.692179,0.178496,-0.382683,23.842979,-65.609909,-15.218891,0,0
18599,2024 8 08,15:42:44.390,-0.658141,-0.343933,0.592389,-0.312468,-1.002188,0.119579,-0.000184,-17.135506,-16.220211,-15.058101,0,0
18600,2024 8 08,15:42:44.398,-0.658405,-0.272672,0.603334,-0.357962,-1.121588,0.071441,0.134132,-33.695839,-0.128246,-15.070951,0,0
18601,2024 8 08,15:42:44.406,-0.659457,-0.243385,0.626643,-0.33645,-1.116138,-0.206201,-0.083975,-38.484013,-18.156324,-15.837114,0,0
18602,2024 8 08,15:42:44.415,-0.661199,-0.267289,0.602538,-0.358207,-0.863321,-0.172474,-0.276577,-9.237015,-37.977188,-14.242077,0,0
18603,2024 8 08,15:42:44.423,-0.661941,-0.265973,0.601655,-0.359303,-0.83331,-0.087718,-0.282184,-2.43327,-11.89221,-10.28733,0,0
18604,2024 8 08,15:42:44.431,-0.661767,-0.265348,0.60197,-0.359563,-0.893225,-0.078986,-0.239215,-4.439627,3.212797,-8.163952,0,0
18605,2024 8 08,15:42:44.440,-0.661206,-0.264995,0.602647,-0.359722,-0.919795,-0.09905,-0.200597,-1.638379,9.866652,-8.186628,0,0
18606,2024 8 08,15:42:44.448,-0.660966,-0.346945,0.588272,-0.310949,-0.927913,-0.108115,-0.185637,-0.18437,12.176192,-8.306405,0,0
18607,2024 8 08,15:42:44.456,-0.660114,-0.265089,0.603708,-0.359879,-0.971015,-0.180497,-0.004256,1.52027,17.040569,-6.844325,0,0
18608,2024 8 08,15:42:44.465,-0.659051,-0.349818,0.590701,-0.307165,-1.000416,-0.083644,-0.077496,2.082717,16.129818,-6.603496,0,0
18609,2024 8 08,15:42:44.473,-0.658371,-0.265611,0.605266,-0.36007,-1.017089,-0.080575,-0.059606,2.318882,14.955868,-6.591819,0,0
18610,2024 8 08,15:42:44.481,-0.65744,-0.265921,0.606057,-0.360214,-1.007044,-0.084887,-0.090762,3.998687,13.094361,-4.732507,0,0
18611,2024 8 08,15:42:44.490,-0.656616,-0.26636,0.606675,-0.360353,-0.997422,-0.07173,-0.068612,3.968299,11.526902,-3.046955,0,0
18612,2024 8 08,15:42:44.498,-0.655901,-0.266647,0.607282,-0.360418,-0.978963,-0.063865,-0.112126,1.000174,10.138926,-3.400611,0,0
18613,2024 8 08,15:42:44.506,-0.655869,-0.26666,0.60731,-0.360421,-0.978112,-0.063502,-0.114131,0.863358,10.074946,-3.416912,0,0
18614,2024 8 08,15:42:44.515,-0.65523,-0.266819,0.607981,-0.360334,-0.972638,-0.23143,-0.08166,-0.048634,11.822196,-3.361403,0,0
18615,2024 8 08,15:42:44.523,-0.654509,-0.267004,0.608832,-0.360069,-0.999407,-0.067836,-0.093762,-2.287011,13.89922,-2.13244,0,0
18616,2024 8 08,15:42:44.531,-0.653805,-0.26715,0.609738,-0.359708,-0.996894,-0.055135,-0.067845,-3.633429,13.200761,-2.245628,0,0
18617,2024 8 08,15:42:44.540,-0.653175,-0.267008,0.61072,-0.359292,-0.995778,-0.068596,-0.10814,-7.122817,12.644295,-4.151216,0,0
18618,2024 8 08,15:42:44.548,-0.652568,-0.266828,0.611715,-0.358835,-0.978145,-0.09683,-0.08813,-6.871918,12.849054,-3.830213,0,0
18619,2024 8 08,15:42:44.556,-0.652493,-0.266806,0.611838,-0.358778,-0.975963,-0.052049,-0.088242,-6.840877,12.874387,-3.790499,0,0
18620,2024 8 08,15:42:44.565,-0.651931,-0.266531,0.612871,-0.358239,-1.008086,-0.055959,-0.107064,-9.538155,14.332462,-4.460491,0,0
18621,2024 8 08,15:42:44.573,-0.651278,-0.266315,0.614006,-0.357646,-0.987785,-0.072938,-0.078658,-8.139981,14.341533,-3.277246,0,0
18622,2024 8 08,15:42:44.581,-0.65061,-0.266175,0.61512,-0.357051,-0.986198,-0.080478,-0.104125,-7.9191,14.342966,-2.786734,0,0
18623,2024 8 08,15:42:44.590,-0.649929,-0.266038,0.616215,-0.356503,-1.00471,-0.081352,-0.101631,-7.232508,14.742781,-3.253342,0,0
18624,2024 8 08,15:42:44.598,-0.649274,0.182327,0.698587,0.239115,-1.006847,-0.059416,-0.058971,-6.566921,14.074812,-2.252169,0,0
18625,2024 8 08,15:42:44.606,-0.648694,-0.265832,0.618242,-0.355395,-1.003746,-0.075513,-0.061788,-6.440686,13.948125,-2.062286,0,0
18626,2024 8 08,15:42:44.615,-0.648579,-0.265799,0.618442,-0.355283,-1.003127,-0.078727,-0.06235,-7.762013,12.287745,-2.601454,0,0
18627,2024 8 08,15:42:44.623,-0.648165,-0.265591,0.619187,-0.354896,-0.997677,-0.085481,-0.072349,-7.563795,10.562351,-3.094421,0,0
18628,2024 8 08,15:42:44.631,-0.647725,-0.265374,0.619912,-0.354596,-0.990851,-0.074195,-0.074164,-5.314759,8.870429,-3.577827,0,0
18629,2024 8 08,15:42:44.640,-0.647298,-0.265084,0.620622,-0.354349,-0.999308,-0.071247,-0.065304,-5.496658,7.742162,-4.615574,0,0
18630,2024 8 08,15:42:44.648,-0.646954,-0.264694,0.621213,-0.354233,-0.995818,-0.085943,-0.07823,-5.219113,5.183206,-5.595141,0,0
18631,2024 8 08,15:42:44.656,-0.646685,-0.10366,0.73485,-0.176201,-0.990973,-0.071087,-0.076342,-3.475155,3.511176,-5.428906,0,0
18632,2024 8 08,15:42:44.665,-0.646617,-0.264208,0.621764,-0.354246,-0.989737,-0.067297,-0.075861,-3.03034,3.084707,-5.386506,0,0
18633,2024 8 08,15:42:44.673,-0.646443,-0.263815,0.622068,-0.354322,-0.982331,-0.361565,0.112063,-3.753926,2.308507,-6.48167,0,0
18634,2024 8 08,15:42:44.681,-0.64624,-0.263329,0.622409,-0.354457,-0.979967,-0.085732,-0.085851,-3.731859,1.528683,-6.254334,0,0
18635,2024 8 08,15:42:44.690,-0.646066,-0.262891,0.622694,-0.354597,-0.975498,-0.088649,-0.087299,-3.119941,1.180558,-5.628214,0,0
18636,2024 8 08,15:42:44.698,-0.645891,-0.262487,0.622967,-0.354736,-0.976265,-0.082984,-0.07813,-2.601446,1.294283,-5.619114,0,0
18637,2024 8 08,15:42:44.706,-0.645695,-0.26197,0.623288,-0.354909,-0.988682,-0.088081,-0.081176,-3.252299,1.370232,-7.309379,0,0
18638,2024 8 08,15:42:44.715,-0.645636,-0.261814,0.623386,-0.354961,-0.992447,-0.089627,-0.082099,-3.449676,1.393264,-7.821968,0,0
18639,2024 8 08,15:42:44.723,-0.645528,-0.365968,0.615122,-0.266431,-0.987321,-0.083811,-0.075096,-1.97843,1.151895,-4.916087,0,0
18640,2024 8 08,15:42:44.731,-0.645459,-0.261296,0.623708,-0.3551,-0.982412,-0.087208,-0.075492,-2.043406,0.583345,-3.541286,0,0
18641,2024 8 08,15:42:44.740,-0.64543,-0.261017,0.623846,-0.355114,-0.985683,-0.088312,-0.073674,-2.753971,0.033513,-2.851015,0,0
18642,2024 8 08,15:42:44.748,-0.645417,-0.260603,0.624018,-0.355141,-0.986063,-0.083443,-0.084025,-2.534998,-0.344847,-2.81954,0,0
18643,2024 8 08,15:42:44.756,-0.645364,-0.260281,0.624169,-0.355207,-0.984644,-0.074747,-0.07316,-2.649272,0.352817,-3.842307,0,0
18644,2024 8 08,15:42:44.765,-0.645354,-0.26023,0.624194,-0.355218,-0.984415,-0.073308,-0.070903,-2.684009,0.482537,-4.020432,0,0
18645,2024 8 08,15:42:44.773,-0.645301,-0.259889,0.624382,-0.355236,-0.976837,-0.090378,-0.08754,-3.33279,0.587545,-4.326642,0,0
18646,2024 8 08,15:42:44.781,-0.645218,-0.259516,0.624603,-0.355269,-0.976033,-0.099465,-0.079662,-3.223377,0.805014,-3.850016,0,0
18647,2024 8 08,15:42:44.790,-0.645157,-0.25921,0.624782,-0.355289,-0.97339,-0.148334,-0.032925,-3.177979,0.415105,-2.911651,0,0
18648,2024 8 08,15:42:44.798,-0.645106,-0.258908,0.624913,-0.35537,-0.973135,-0.177352,-0.038231,-2.030065,-0.017899,-3.041147,0,0
18649,2024 8 08,15:42:44.806,-0.645078,-0.258643,0.625018,-0.35543,-0.974298,-0.099366,-0.078778,-2.402208,-0.157676,-2.77591,0,0
18650,2024 8 08,15:42:44.815,-0.645072,-0.258583,0.625042,-0.355443,-0.974598,-0.099154,-0.075633,-2.543845,-0.18001,-2.696547,0,0
18651,2024 8 08,15:42:44.823,-0.645067,-0.258392,0.625111,-0.35547,-0.973536,-0.098396,-0.078914,-1.417708,-0.319869,-2.412663,0,0
18652,2024 8 08,15:42:44.831,-0.64507,-0.258161,0.625173,-0.355523,-0.977197,-0.095296,-0.073415,-1.679288,-0.675256,-2.603568,0,0
18653,2024 8 08,15:42:44.840,-0.64508,-0.257925,0.625231,-0.355575,-0.981539,-0.089065,-0.072336,-1.540198,-0.730426,-2.183057,0,0
18654,2024 8 08,15:42:44.848,-0.645116,-0.25769,0.625266,-0.355617,-0.975325,-0.098524,-0.083877,-1.521412,-1.039603,-2.042484,0,0
18655,2024 8 08,15:42:44.856,-0.645153,-0.257444,0.625292,-0.355684,-0.976626,-0.096968,-0.078905,-1.958717,-1.35506,-2.279396,0,0
18656,2024 8 08,15:42:44.865,-0.645163,-0.257372,0.625299,-0.355704,-0.977391,-0.095945,-0.07669,-2.102694,-1.444103,-2.361295,0,0
18657,2024 8 08,15:42:44.873,-0.645204,-0.257166,0.625313,-0.355754,-0.97449,-0.145731,-0.077851,-1.453207,-1.502985,-2.334301,0,0
18658,2024 8 08,15:42:44.881,-0.645233,-0.256965,0.625309,-0.355854,-0.978459,-0.09058,-0.083806,-1.346283,-1.354108,-2.238973,0,0
18659,2024 8 08,15:42:44.890,-0.645293,-0.256707,0.62532,-0.355912,-0.980382,-0.089731,-0.075811,-1.549708,-1.50374,-2.206391,0,0
18660,2024 8 08,15:42:44.898,-0.645376,-0.256438,0.62531,-0.355973,-0.981501,-0.108768,0.033346,-1.706989,-1.934525,-2.077149,0,0
18661,2024 8 08,15:42:44.906,-0.645509,-0.256136,0.625276,-0.356008,-0.9796,-0.103674,-0.08364,-2.036762,-2.571257,-1.827898,0,0
18662,2024 8 08,15:42:44.915,-0.645557,-0.256033,0.625263,-0.356019,-0.978805,-0.107604,-0.086109,-2.157691,-2.795325,-1.738304,0,0
18663,2024 8 08,15:42:44.923,-0.645671,-0.255849,0.625178,-0.356093,-0.975153,-0.10133,-0.077277,-1.519014,-3.242952,-1.598564,0,0
18664,2024 8 08,15:42:44.931,-0.64584,-0.255602,0.625053,-0.356183,-0.9709,-0.101425,-0.078874,-1.099143,-3.649774,-1.50622,0,0
18665,2024 8 08,15:42:44.940,-0.646034,-0.25535,0.624907,-0.356268,-0.970586,-0.101575,-0.078878,-1.618408,-3.907184,-1.20729,0,0
18666,2024 8 08,15:42:44.948,-0.64626,-0.255077,0.624762,-0.356308,-0.970995,-0.101568,-0.081727,-1.973096,-4.070262,-0.857406,0,0
18667,2024 8 08,15:42:44.956,-0.646499,-0.254826,0.624593,-0.35635,-0.975361,0.001177,0.066057,-1.638599,-4.277437,-0.612454,0,0
18668,2024 8 08,15:42:44.965,-0.646591,-0.254732,0.624527,-0.356367,-0.977258,-0.101133,-0.077724,-1.473437,-4.359807,-0.525105,0,0
18669,2024 8 08,15:42:44.973,-0.646797,-0.254531,0.62439,-0.356378,-0.979577,-0.103151,-0.08702,-1.792227,-4.604307,-0.389315,0,0
18670,2024 8 08,15:42:44.981,-0.64708,-0.254289,0.624175,-0.356413,-0.979675,-0.131976,0.006063,-1.835988,-5.111556,-0.295082,0,0
18671,2024 8 08,15:42:44.990,-0.647408,-0.254002,0.623933,-0.356445,-0.973821,-0.16212,-0.031076,-1.976378,-5.581381,-0.296336,0,0
18672,2024 8 08,15:42:44.998,-0.64776,-0.253688,0.623681,-0.356471,-0.97791,-0.135208,-0.054073,-2.078503,-5.768651,-0.266734,0,0
18673,2024 8 08,15:42:45.006,-0.648104,-0.253394,0.6234,-0.356545,-0.986479,-0.098009,-0.093124,-1.30775,-5.969862,-0.533146,0,0
18674,2024 8 08,15:42:45.015,-0.648322,-0.25321,0.62322,-0.356597,-0.992172,-0.096209,-0.093263,-0.737011,-6.102449,-0.730832,0,0
18675,2024 8 08,15:42:45.023,-0.648323,-0.253208,0.623218,-0.356597,-0.992217,-0.096195,-0.093265,-0.732528,-6.103491,-0.732385,0,0
18676,2024 8 08,15:42:45.031,-0.648732,-0.252841,0.622892,-0.356684,-0.980944,-0.100892,-0.087158,-2.55265,-7.277853,-0.791137,0,0
18677,2024 8 08,15:42:45.040,-0.649139,-0.252454,0.622573,-0.356776,-0.980059,-0.100605,-0.099886,-2.100173,-7.321793,-1.140388,0,0
18678,2024 8 08,15:42:45.048,-0.649555,-0.25208,0.622232,-0.356877,-0.981837,-0.096486,-0.094615,-1.278947,-7.210072,-1.044405,0,0
18679,2024 8 08,15:42:45.056,-0.650041,-0.25168,0.621861,-0.35692,-0.970719,-0.249272,0.045473,-3.191245,-8.101477,-0.083276,0,0
18680,2024 8 08,15:42:45.065,-0.650559,-0.251268,0.621453,-0.356979,-0.976047,-0.101737,-0.11029,-2.012728,-8.614479,0.37984,0,0
18681,2024 8 08,15:42:45.073,-0.651111,-0.250879,0.621002,-0.357031,-0.975661,-0.098963,-0.093316,-3.105789,-9.152747,0.203883,0,0
18682,2024 8 08,15:42:45.081,-0.651168,-0.250839,0.620955,-0.357036,-0.975621,-0.098674,-0.091548,-3.219631,-9.208807,0.185558,0,0
18683,2024 8 08,15:42:45.090,-0.651683,-0.250461,0.62054,-0.357084,-0.980289,-0.116519,0.019242,-1.6931,-9.587005,0.448904,0,0
18684,2024 8 08,15:42:45.098,-0.652277,-0.373112,0.614785,-0.239498,-0.979212,-0.116353,0.075567,-1.340075,-10.106952,0.482697,0,0
18685,2024 8 08,15:42:45.106,-0.652877,-0.249754,0.619436,-0.357314,-0.97534,-0.090089,-0.106332,-0.46376,-10.024658,0.694155,0,0
18686,2024 8 08,15:42:45.115,-0.653436,-0.249452,0.618867,-0.357488,-0.973122,-0.08091,-0.109286,0.025783,-9.757196,0.318105,0,0
18687,2024 8 08,15:42:45.123,-0.653964,-0.249118,0.618341,-0.357667,-0.976387,-0.093114,-0.109765,-0.146509,-9.109701,-0.246322,0,0
18688,2024 8 08,15:42:45.131,-0.654055,-0.24906,0.61825,-0.357698,-0.976952,-0.099223,-0.094028,-0.176308,-8.997715,-0.343941,0,0
18689,2024 8 08,15:42:45.140,-0.65447,-0.248779,0.617808,-0.357899,-0.977448,-0.098752,-0.1079,-0.623399,-9.516941,-0.509054,0,0
18690,2024 8 08,15:42:45.148,-0.654899,-0.24845,0.617322,-0.358179,-0.987623,-0.09866,-0.109461,0.210731,-9.229805,-1.558619,0,0
18691,2024 8 08,15:42:45.156,-0.655348,-0.248129,0.616778,-0.358519,-0.97591,-0.100173,-0.111694,0.954825,-9.889259,-1.628666,0,0
18692,2024 8 08,15:42:45.165,-0.655831,-0.247784,0.616191,-0.358883,-0.984381,-0.10163,-0.118978,1.255325,-10.360818,-1.407218,0,0
18693,2024 8 08,15:42:45.173,-0.656366,0.32755,0.647714,0.205811,-0.981036,-0.099712,-0.117237,1.836037,-12.100623,-1.63815,0,0
18694,2024 8 08,15:42:45.181,-0.656491,-0.247347,0.615337,-0.359443,-0.980261,-0.099268,-0.116833,1.970729,-12.504157,-1.691713,0,0
18695,2024 8 08,15:42:45.190,-0.656975,-0.247042,0.614693,-0.359868,-0.979709,-0.093322,-0.107978,2.641736,-13.376778,-1.841452,0,0
18696,2024 8 08,15:42:45.198,-0.657558,-0.246699,0.613905,-0.360386,-0.983538,-0.092198,-0.093865,2.809339,-14.135714,-1.969016,0,0
18697,2024 8 08,15:42:45.206,-0.658189,-0.246301,0.613037,-0.360981,-0.992728,-0.100107,-0.114461,2.852645,-15.490472,-2.224796,0,0
