frame,date,time,quaternion_x,quaternion_y,quaternion_z,quaternion_w,accel_x,accel_y,accel_z,gyro_x,gyro_y,gyro_z,HS,TO
17780,2024 8 08,15:42:37.565,-0.661027,-0.346869,0.588178,-0.311081,-1.039389,-0.108594,0.06075,-0.282684,-1.939522,-1.0352,0,0
17781,2024 8 08,15:42:37.573,-0.660966,-0.346945,0.588272,-0.310949,-1.038187,-0.106735,0.058883,-0.544251,-2.32398,-0.972034,0,0
17782,2024 8 08,15:42:37.582,-0.660887,-0.241058,0.620669,-0.346251,-1.039914,-0.106311,0.058349,-0.511509,-2.506275,-0.867669,0,0
17783,2024 8 08,15:42:37.590,-0.660791,-0.347113,0.588528,-0.310649,-1.041242,-0.126376,0.026272,-0.572182,-2.732789,-0.800133,0,0
17784,2024 8 08,15:42:37.598,-0.660693,-0.347197,0.588661,-0.310511,-1.041319,-0.109318,0.05425,-0.481684,-2.618549,-0.718693,0,0
17785,2024 8 08,15:42:37.607,-0.660611,0.359329,0.627345,0.202274,-1.040322,-0.108587,0.053821,-0.633144,-2.428385,-0.53473,0,0
17786,2024 8 08,15:42:37.615,-0.660584,-0.347273,0.58882,-0.310357,-1.04054,-0.108285,0.053475,-0.676314,-2.410048,-0.478583,0,0
17787,2024 8 08,15:42:37.623,-0.660501,-0.347312,0.588945,-0.310252,-1.043371,-0.128247,0.035986,-0.767552,-2.503836,-0.343523,0,0
17788,2024 8 08,15:42:37.632,-0.660412,-0.34735,0.589086,-0.310131,-1.044863,-0.057675,0.095948,-0.793834,-2.336475,-0.307667,0,0
17789,2024 8 08,15:42:37.640,-0.660335,-0.347376,0.58922,-0.310012,-1.044611,-0.127202,0.011248,-0.852497,-2.144114,-0.259372,0,0
17790,2024 8 08,15:42:37.648,-0.660258,-0.347396,0.589358,-0.309891,-1.04467,-0.106562,0.053596,-0.945703,-2.125791,-0.260329,0,0
17791,2024 8 08,15:42:37.657,-0.660196,-0.347412,0.589473,-0.309786,-1.043431,-0.10394,0.052232,-0.968616,-2.042906,-0.338946,0,0
17792,2024 8 08,15:42:37.665,-0.660174,-0.347418,0.589514,-0.309748,-1.043406,-0.103902,0.051885,-0.956277,-2.015752,-0.346843,0,0
17793,2024 8 08,15:42:37.673,-0.660117,-0.347435,0.589615,-0.309658,-1.045238,-0.107684,0.052417,-0.838142,-1.946361,-0.260351,0,0
17794,2024 8 08,15:42:37.682,-0.660059,-0.347447,0.589725,-0.30956,-1.045735,-0.119061,0.071672,-0.800166,-1.752393,-0.172993,0,0
17795,2024 8 08,15:42:37.690,-0.66001,-0.347458,0.589821,-0.309469,-1.046014,-0.106448,0.048291,-0.746256,-1.519142,-0.229317,0,0
17796,2024 8 08,15:42:37.698,-0.659969,-0.347471,0.589903,-0.309386,-1.046474,-0.106599,0.019723,-0.693731,-1.249584,-0.288325,0,0
17797,2024 8 08,15:42:37.707,-0.659939,-0.347484,0.589969,-0.309309,-1.043661,-0.108751,0.055043,-0.649594,-1.037229,-0.348096,0,0
17798,2024 8 08,15:42:37.715,-0.659921,-0.347499,0.590013,-0.309247,-1.044548,-0.107841,0.052789,-0.455077,-0.828007,-0.402425,0,0
17799,2024 8 08,15:42:37.723,-0.659913,-0.347505,0.590031,-0.309222,-1.044465,-0.110353,0.042025,-0.389126,-0.774305,-0.413676,0,0
17800,2024 8 08,15:42:37.732,-0.659897,-0.347519,0.590063,-0.309178,-1.042036,-0.111524,0.059942,-0.349354,-0.811548,-0.370694,0,0
17801,2024 8 08,15:42:37.740,-0.65988,-0.34753,0.590102,-0.309128,-1.040843,-0.10841,0.051009,-0.441725,-0.734818,-0.264602,0,0
17802,2024 8 08,15:42:37.748,-0.659854,-0.347539,0.590162,-0.309062,-1.044423,-0.108402,0.051751,-0.487735,-0.853087,-0.003107,0,0
17803,2024 8 08,15:42:37.757,-0.659829,-0.347553,0.590209,-0.309009,-1.046365,-0.108602,0.040444,-0.310079,-0.854454,-0.297062,0,0
17804,2024 8 08,15:42:37.765,-0.659813,-0.34757,0.590241,-0.308962,-1.041736,-0.070415,0.035312,-0.305379,-0.561987,-0.36334,0,0
17805,2024 8 08,15:42:37.773,-0.659812,-0.34757,0.590242,-0.30896,-1.041547,-0.108402,0.049803,-0.305187,-0.550023,-0.366051,0,0
17806,2024 8 08,15:42:37.782,-0.659803,-0.34758,0.590274,-0.308908,-1.042445,-0.128253,0.045176,-0.418755,-0.662944,-0.30941,0,0
17807,2024 8 08,15:42:37.790,-0.659785,-0.347612,0.590297,-0.308867,-1.045641,-0.107803,0.052761,-0.146688,-0.670686,-0.361498,0,0
17808,2024 8 08,15:42:37.798,-0.65977,-0.347636,0.590323,-0.308825,-1.045903,-0.108786,0.048766,-0.124434,-0.616144,-0.310583,0,0
17809,2024 8 08,15:42:37.807,-0.659758,-0.347655,0.590347,-0.308781,-1.043751,-0.114466,0.057735,-0.231132,-0.502177,-0.360166,0,0
17810,2024 8 08,15:42:37.815,-0.659748,-0.347674,0.590369,-0.308739,-1.042233,-0.099906,0.050502,-0.188916,-0.543613,-0.365479,0,0
17811,2024 8 08,15:42:37.823,-0.659746,-0.347676,0.590372,-0.308734,-1.042052,-0.108458,0.049331,-0.183878,-0.548558,-0.366114,0,0
17812,2024 8 08,15:42:37.832,-0.659739,-0.347685,0.590392,-0.308701,-1.044116,-0.109341,0.04047,-0.287632,-0.444792,-0.209574,0,0
17813,2024 8 08,15:42:37.840,-0.659729,-0.347697,0.590413,-0.30867,-1.042763,-0.10658,0.053896,-0.302439,-0.481498,-0.238749,0,0
17814,2024 8 08,15:42:37.848,-0.659718,-0.347706,0.590438,-0.308634,-1.04052,-0.108098,0.053336,-0.355559,-0.537988,-0.14156,0,0
17815,2024 8 08,15:42:37.857,-0.659697,-0.347718,0.590468,-0.308609,-1.043764,-0.109151,0.051237,-0.113401,-0.597485,-0.025169,0,0
17816,2024 8 08,15:42:37.865,-0.659679,-0.347721,0.5905,-0.308582,-1.044333,-0.137098,0.015698,-0.269066,-0.558386,-0.004739,0,0
17817,2024 8 08,15:42:37.873,-0.659676,0.187286,0.68188,0.254541,-1.044439,-0.120071,0.052038,-0.298007,-0.551117,-0.000941,0,0
17818,2024 8 08,15:42:37.882,-0.659668,-0.347722,0.590532,-0.308545,-1.045233,-0.114645,0.051486,-0.351991,-0.501382,-0.145126,0,0
17819,2024 8 08,15:42:37.890,-0.659661,-0.347717,0.590559,-0.308512,-1.046923,-0.108213,0.048088,-0.506256,-0.395708,-0.031669,0,0
17820,2024 8 08,15:42:37.898,-0.659644,-0.347721,0.590592,-0.308481,-1.044271,-0.10949,0.047906,-0.25669,-0.608612,-0.101485,0,0
17821,2024 8 08,15:42:37.907,-0.659625,-0.347723,0.590632,-0.308444,-1.041811,-0.108287,0.050846,-0.386829,-0.609939,-0.024049,0,0
17822,2024 8 08,15:42:37.915,-0.659606,-0.347728,0.590672,-0.308402,-1.041604,-0.107269,0.047853,-0.463322,-0.656269,-0.143975,0,0
17823,2024 8 08,15:42:37.923,-0.659602,-0.347729,0.590681,-0.308392,-1.041553,-0.107022,0.047125,-0.48192,-0.667534,-0.173133,0,0
17824,2024 8 08,15:42:37.932,-0.659585,-0.347733,0.590713,-0.308363,-1.044417,-0.111189,0.045329,-0.396698,-0.580464,-0.045617,0,0
17825,2024 8 08,15:42:37.940,-0.659575,-0.347726,0.590752,-0.308316,-1.042675,-0.110231,0.041714,-0.552257,-0.557786,-0.145721,0,0
17826,2024 8 08,15:42:37.948,-0.659562,-0.347726,0.590786,-0.308281,-1.041503,-0.1268,0.020041,-0.374395,-0.551689,-0.040824,0,0
17827,2024 8 08,15:42:37.957,-0.659553,-0.347726,0.59081,-0.308253,-1.043959,-0.107752,0.034939,-0.28168,-0.376222,-0.011765,0,0
17828,2024 8 08,15:42:37.965,-0.659544,-0.347722,0.590842,-0.308215,-1.043628,-0.1323,0.035123,-0.427111,-0.498066,-0.003484,0,0
17829,2024 8 08,15:42:37.973,-0.659541,-0.347721,0.590852,-0.308204,-1.043531,-0.092982,0.002684,-0.469699,-0.533747,-0.001058,0,0
17830,2024 8 08,15:42:37.982,-0.659533,-0.347721,0.590875,-0.308176,-1.04283,-0.102328,0.026783,-0.398429,-0.502436,-0.12643,0,0
17831,2024 8 08,15:42:37.990,-0.659524,-0.347716,0.590907,-0.30814,-1.041948,-0.078077,0.053591,-0.542812,-0.492792,-0.040293,0,0
17832,2024 8 08,15:42:37.998,-0.659512,-0.347719,0.590938,-0.308103,-1.043645,-0.116956,0.060939,-0.423768,-0.530894,-0.13656,0,0
17833,2024 8 08,15:42:38.007,-0.659494,0.150456,0.674699,0.295301,-1.043867,-0.130624,0.006886,-0.344666,-0.543182,-0.045473,0,0
17834,2024 8 08,15:42:38.015,-0.659482,-0.34772,0.591,-0.308047,-1.044108,-0.105277,0.042256,-0.313648,-0.541079,-0.00032,0,0
17835,2024 8 08,15:42:38.023,-0.65947,-0.34772,0.591029,-0.308018,-1.044935,-0.106467,0.044041,-0.365039,-0.489458,-7e-06,0,0
17836,2024 8 08,15:42:38.032,-0.659468,-0.242259,0.622894,-0.344115,-1.045144,-0.106894,0.045094,-0.350274,-0.480378,-0.02384,0,0
17837,2024 8 08,15:42:38.040,-0.65946,-0.347684,0.589222,-0.311522,-1.045977,-0.075877,0.017191,-0.233945,-0.422152,-0.182739,0,0
17838,2024 8 08,15:42:38.048,-0.659459,-0.347729,0.591071,-0.30795,-1.04359,-0.109947,0.049335,-0.167951,-0.369869,-0.2247,0,0
17839,2024 8 08,15:42:38.057,-0.659454,-0.347731,0.591095,-0.307914,-1.043169,-0.106286,0.050328,-0.467593,-0.343695,-0.13017,0,0
17840,2024 8 08,15:42:38.065,-0.659462,-0.347715,0.591115,-0.307875,-1.042944,-0.098706,0.045601,-0.821837,-0.167919,-0.122816,0,0
17841,2024 8 08,15:42:38.073,-0.65947,-0.34772,0.591029,-0.308018,-1.036875,-0.119303,-0.04616,-0.523253,0.037031,-0.122148,0,0
17842,2024 8 08,15:42:38.082,-0.65947,-0.34772,0.591029,-0.308018,-1.03753,-0.106396,0.047311,-0.441388,0.01451,-0.136649,0,0
17843,2024 8 08,15:42:38.090,-0.65946,-0.347684,0.589222,-0.311522,-1.045407,-0.109785,0.053022,-0.117419,-0.278195,-0.223051,0,0
17844,2024 8 08,15:42:38.098,-0.659457,-0.243385,0.626643,-0.33645,-1.044428,-0.110666,0.040523,-0.149767,-0.363685,-0.202918,0,0
17845,2024 8 08,15:42:38.107,-0.659458,-0.34774,0.591151,-0.307787,-1.043498,-0.10702,0.050799,-0.312212,-0.142173,-0.275589,0,0
17846,2024 8 08,15:42:38.115,-0.659454,-0.347731,0.591095,-0.307914,-1.045234,-0.109024,0.022869,-0.197337,-0.295029,-0.191342,0,0
17847,2024 8 08,15:42:38.123,-0.659449,-0.347761,0.591163,-0.307759,-1.046212,-0.109064,0.049792,-0.135207,-0.101877,-0.134161,0,0
17848,2024 8 08,15:42:38.132,-0.659448,-0.347764,0.591163,-0.307757,-1.046111,-0.109159,0.049298,-0.070702,-0.061871,-0.110859,0,0
17849,2024 8 08,15:42:38.140,-0.659445,-0.347776,0.591157,-0.307762,-1.044022,-0.126923,0.01154,0.240988,-0.012091,-0.021664,0,0
17850,2024 8 08,15:42:38.148,-0.659438,-0.347789,0.591157,-0.307762,-1.041795,-0.113557,0.064018,0.036403,-0.028712,-0.030679,0,0
17851,2024 8 08,15:42:38.157,-0.659432,-0.347802,0.591159,-0.307757,-1.044294,-0.110485,0.049585,-0.068527,-0.17186,-0.185236,0,0
17852,2024 8 08,15:42:38.165,-0.659431,-0.34781,0.59116,-0.307749,-1.042637,-0.110456,0.050186,0.012713,-0.064229,-0.123478,0,0
17853,2024 8 08,15:42:38.173,-0.659425,-0.347812,0.59117,-0.30774,-1.043522,-0.108711,0.050087,-0.096828,-0.214651,-0.028915,0,0
17854,2024 8 08,15:42:38.182,-0.659414,-0.347817,0.591185,-0.307729,-1.047561,-0.109585,0.046549,-0.162116,-0.329339,-0.007034,0,0
17855,2024 8 08,15:42:38.190,-0.659409,0.199927,0.683915,0.239724,-1.048138,-0.109845,0.045649,-0.165469,-0.356913,0.004398,0,0
17856,2024 8 08,15:42:38.198,-0.659397,-0.347825,0.591205,-0.307717,-1.045687,-0.099456,-0.036829,-0.124878,-0.357686,0.027961,0,0
17857,2024 8 08,15:42:38.207,-0.659391,-0.347826,0.591223,-0.307694,-1.044389,-0.068564,0.024191,-0.345801,-0.337409,-0.081659,0,0
17858,2024 8 08,15:42:38.215,-0.659386,-0.347822,0.591248,-0.307662,-1.044025,-0.119915,-0.029064,-0.410594,-0.422546,-0.11085,0,0
17859,2024 8 08,15:42:38.223,-0.659387,-0.347814,0.591268,-0.30763,-1.045546,-0.10544,0.049541,-0.42482,-0.289228,-0.124758,0,0
17860,2024 8 08,15:42:38.232,-0.659387,-0.347814,0.591268,-0.30763,-1.044783,-0.108567,0.048349,-0.167877,-0.214273,-0.165969,0,0
17861,2024 8 08,15:42:38.240,-0.659387,-0.347814,0.591268,-0.30763,-1.04433,-0.124157,0.044297,-0.093243,-0.186736,-0.172175,0,0
17862,2024 8 08,15:42:38.248,-0.659385,-0.347825,0.591282,-0.307595,-1.042965,-0.110787,0.048511,-0.076691,-0.153459,-0.12615,0,0
17863,2024 8 08,15:42:38.257,-0.659379,-0.34783,0.591291,-0.307584,-1.043991,-0.109229,0.048061,-0.124633,-0.226725,-0.051204,0,0
17864,2024 8 08,15:42:38.265,-0.659372,-0.347835,0.591306,-0.307565,-1.044133,-0.092826,0.004263,-0.224404,-0.309893,-0.082386,0,0
17865,2024 8 08,15:42:38.273,-0.65936,-0.347839,0.591326,-0.307548,-1.043093,-0.117448,0.062213,-0.131652,-0.276939,0.008063,0,0
17866,2024 8 08,15:42:38.282,-0.659347,-0.347846,0.591349,-0.307523,-1.043001,-0.11084,0.046614,-0.243885,-0.366008,1.8e-05,0,0
17867,2024 8 08,15:42:38.290,-0.659347,-0.347846,0.591349,-0.307523,-1.043001,-0.11084,0.046614,-0.244136,-0.366207,0.0,0,0
17868,2024 8 08,15:42:38.298,-0.659341,-0.347846,0.591363,-0.30751,-1.042056,-0.109623,0.018302,-0.24414,-0.549317,1e-06,0,0
17869,2024 8 08,15:42:38.307,-0.659362,-0.347821,0.591371,-0.307479,-1.044817,-0.100118,0.050558,-0.709418,0.165571,0.0,0,0
17870,2024 8 08,15:42:38.315,-0.659382,-0.347805,0.591354,-0.307485,-1.036694,-0.10652,0.045726,-0.444508,0.182033,0.0,0,0
17871,2024 8 08,15:42:38.323,-0.659354,-0.347824,0.591372,-0.307489,-1.048401,-0.117748,0.049953,0.362012,-0.268718,0.112936,0,0
17872,2024 8 08,15:42:38.332,-0.659356,-0.347814,0.591375,-0.307491,-1.042141,-0.110561,0.046257,0.031891,-0.023672,0.121266,0,0
17873,2024 8 08,15:42:38.340,-0.659356,-0.347814,0.591375,-0.307491,-1.041597,-0.109937,0.045936,0.00322,-0.00239,0.121989,0,0
17874,2024 8 08,15:42:38.348,-0.659345,-0.347814,0.591392,-0.307482,-1.046737,-0.095505,0.002462,-0.324277,-0.216699,0.013847,0,0
17875,2024 8 08,15:42:38.357,-0.659333,-0.347814,0.591401,-0.307491,-1.041762,-0.090598,0.000679,-0.094123,-0.187328,0.108467,0,0
17876,2024 8 08,15:42:38.365,-0.659313,-0.34781,0.591419,-0.307504,-1.040303,-0.116135,0.045665,0.039693,-0.183686,0.278119,0,0
17877,2024 8 08,15:42:38.373,-0.659296,-0.347804,0.591438,-0.307509,-1.040521,-0.108591,0.049724,-0.149889,-0.287063,0.197271,0,0
17878,2024 8 08,15:42:38.382,-0.659278,-0.347793,0.591462,-0.307513,-1.043833,-0.108432,0.045693,-0.22903,-0.302272,0.236626,0,0
17879,2024 8 08,15:42:38.390,-0.659276,-0.347791,0.591466,-0.307514,-1.044357,-0.102032,0.045578,-0.241553,-0.304678,0.242854,0,0
17880,2024 8 08,15:42:38.398,-0.659267,-0.347775,0.591483,-0.307518,-1.043247,-0.110403,0.046455,-0.143806,-0.205222,0.293838,0,0
17881,2024 8 08,15:42:38.407,-0.659251,-0.347764,0.591502,-0.30753,-1.042654,-0.131057,0.003464,-0.076952,-0.187358,0.352293,0,0
17882,2024 8 08,15:42:38.415,-0.659245,-0.347749,0.591513,-0.307538,-1.042541,-0.110447,0.044072,-0.064257,-0.037927,0.217354,0,0
17883,2024 8 08,15:42:38.423,-0.659258,-0.347709,0.591521,-0.307541,-1.046365,-0.108602,0.040444,-0.494412,0.328486,0.238454,0,0
17884,2024 8 08,15:42:38.432,-0.659276,-0.347791,0.591466,-0.307514,-1.041848,-0.106783,0.040628,-0.299686,0.215372,0.242878,0,0
17885,2024 8 08,15:42:38.440,-0.65928,-0.347682,0.591488,-0.307585,-1.040857,-0.107652,0.038299,-0.256991,0.19057,0.243849,0,0
17886,2024 8 08,15:42:38.448,-0.659252,-0.347684,0.591515,-0.307592,-1.044339,-0.113784,0.050376,0.169963,-0.093229,0.290425,0,0
17887,2024 8 08,15:42:38.457,-0.659244,-0.347669,0.591528,-0.307601,-1.045533,-0.105374,0.047701,0.088211,-0.114875,0.301496,0,0
17888,2024 8 08,15:42:38.465,-0.659235,-0.347652,0.59154,-0.307616,-1.04293,-0.109351,0.058423,-0.067769,0.015609,0.349499,0,0
17889,2024 8 08,15:42:38.473,-0.659219,-0.347645,0.591551,-0.307637,-1.046562,-0.108528,0.048267,-0.107583,-0.130092,0.317001,0,0
17890,2024 8 08,15:42:38.482,-0.65921,0.390953,0.600235,0.228726,-1.043273,-0.110206,0.048321,-0.073842,-0.035793,0.264187,0,0
17891,2024 8 08,15:42:38.490,-0.659208,-0.34763,0.591564,-0.307652,-1.042378,-0.126953,-0.005376,-0.064664,-0.01014,0.24982,0,0
17892,2024 8 08,15:42:38.498,-0.659199,-0.347631,0.591568,-0.307662,-1.045588,-0.078561,0.034943,0.110933,-0.002954,0.116026,0,0
17893,2024 8 08,15:42:38.507,-0.659193,-0.347634,0.591566,-0.307677,-1.042405,0.368376,-0.067992,0.118739,-0.000883,0.120263,0,0
17894,2024 8 08,15:42:38.515,-0.659172,-0.347641,0.591584,-0.307679,-1.04248,-0.109443,0.047533,-0.048205,-0.338777,0.121516,0,0
17895,2024 8 08,15:42:38.523,-0.659154,-0.347639,0.591607,-0.307677,-1.041497,0.196904,0.118057,-0.098861,-0.315734,0.163753,0,0
17896,2024 8 08,15:42:38.532,-0.659137,-0.330902,0.620945,-0.265461,-1.046493,-0.116002,0.048922,-0.197429,-0.349981,0.218294,0,0
17897,2024 8 08,15:42:38.540,-0.659132,-0.347628,0.59164,-0.307672,-1.048082,-0.133501,0.030385,-0.228787,-0.360876,0.235645,0,0
17898,2024 8 08,15:42:38.548,-0.65914,-0.347599,0.591638,-0.30769,-1.040814,-0.118039,0.047652,0.207017,0.243766,0.362926,0,0
17899,2024 8 08,15:42:38.557,-0.659142,-0.34758,0.591645,-0.307695,-1.038297,-0.116211,0.047734,0.277763,0.31727,0.401973,0,0
17900,2024 8 08,15:42:38.565,-0.659127,-0.347548,0.591694,-0.307668,-1.044214,-0.109797,0.043452,-0.660749,-0.933676,0.256598,0,0
17901,2024 8 08,15:42:38.573,-0.659115,-0.347521,0.591723,-0.307669,-1.038922,-0.103921,0.04091,-0.724585,0.099007,0.311,0,0
17902,2024 8 08,15:42:38.582,-0.659094,-0.347503,0.591756,-0.30767,-1.04476,-0.112362,0.057629,-0.305702,-0.415935,0.363068,0,0
17903,2024 8 08,15:42:38.590,-0.659088,-0.347477,0.591779,-0.307671,-1.043125,-0.111844,0.04791,-0.135054,-0.199567,0.365989,0,0
17904,2024 8 08,15:42:38.598,-0.659085,-0.347473,0.591784,-0.30767,-1.043253,-0.115603,0.077268,-0.13828,-0.214725,0.351075,0,0
17905,2024 8 08,15:42:38.607,-0.659073,-0.347455,0.591812,-0.307662,-1.04455,-0.109377,0.051993,-0.271121,-0.354453,0.269425,0,0
17906,2024 8 08,15:42:38.615,-0.659069,-0.347423,0.591835,-0.307663,-1.043758,-0.097624,0.010979,-0.460014,-0.082975,0.340897,0,0
17907,2024 8 08,15:42:38.623,-0.659048,-0.347419,0.591856,-0.307671,-1.047032,-0.111215,0.045289,-0.109715,-0.317162,0.277683,0,0
17908,2024 8 08,15:42:38.632,-0.659035,-0.347402,0.591876,-0.30768,-1.046033,-0.111098,0.044688,-0.096145,-0.153863,0.385769,0,0
17909,2024 8 08,15:42:38.640,-0.659049,-0.347363,0.591883,-0.307681,-1.049598,-0.101645,0.054405,-0.331151,0.379215,0.250659,0,0
17910,2024 8 08,15:42:38.648,-0.659057,-0.34734,0.591886,-0.307685,-1.041566,-0.099931,0.044764,-0.720912,-0.300696,0.142248,0,0
17911,2024 8 08,15:42:38.657,-0.659056,-0.347336,0.591889,-0.307685,-1.040487,-0.126749,0.012839,-0.712606,-0.351059,0.132326,0,0
17912,2024 8 08,15:42:38.665,-0.659038,-0.347334,0.59191,-0.307686,-1.041674,-0.134082,0.006479,-0.243832,-0.060049,0.167254,0,0
17913,2024 8 08,15:42:38.673,-0.659027,-0.34733,0.591926,-0.307685,-1.043402,-0.132484,0.008069,0.032781,-0.268147,0.123926,0,0
17914,2024 8 08,15:42:38.682,-0.659025,-0.347321,0.591934,-0.307682,-1.041031,-0.111047,0.047152,-0.062154,-0.086496,0.080181,0,0
17915,2024 8 08,15:42:38.690,-0.659016,-0.347315,0.591949,-0.307681,-1.044696,-0.111397,0.046903,-0.199522,-0.246352,0.113302,0,0
17916,2024 8 08,15:42:38.698,-0.659011,-0.347308,0.591958,-0.307681,-1.044135,-0.10982,0.044213,-0.186701,-0.196958,0.12015,0,0
17917,2024 8 08,15:42:38.707,-0.65901,-0.347305,0.591962,-0.307678,-1.044013,-0.109123,0.044802,-0.203028,-0.186271,0.108897,0,0
17918,2024 8 08,15:42:38.715,-0.659008,-0.347296,0.591977,-0.307663,-1.043734,-0.107266,0.051382,-0.321125,-0.196439,0.03218,0,0
17919,2024 8 08,15:42:38.723,-0.659004,-0.34729,0.591993,-0.307649,-1.042078,-0.1176,0.05335,-0.27803,-0.247262,0.053915,0,0
17920,2024 8 08,15:42:38.732,-0.659003,-0.34728,0.592004,-0.307642,-1.04192,-0.108572,0.043907,-0.101777,-0.093913,0.053072,0,0
17921,2024 8 08,15:42:38.740,-0.658993,0.194898,0.687922,0.233318,-1.043337,-0.128947,0.005221,-0.245367,-0.225072,0.014021,0,0
17922,2024 8 08,15:42:38.748,-0.658988,-0.347276,0.592035,-0.307618,-1.043092,-0.080411,-0.052396,-0.244475,-0.105753,0.003822,0,0
17923,2024 8 08,15:42:38.757,-0.658986,-0.243882,0.627174,-0.336024,-1.043121,-0.107065,0.04495,-0.232364,-0.073593,0.007009,0,0
17924,2024 8 08,15:42:38.765,-0.658983,-0.347272,0.592045,-0.307615,-1.043542,-0.111445,0.009413,-0.1598,-0.064663,0.03956,0,0
17925,2024 8 08,15:42:38.773,-0.658983,-0.347272,0.592045,-0.307615,-1.042985,-0.133677,0.009153,-0.211013,-0.0447,0.000131,0,0
17926,2024 8 08,15:42:38.782,-0.65899,-0.347256,0.592051,-0.307605,-1.044399,-0.122931,0.038926,-0.297078,0.163148,-0.067648,0,0
17927,2024 8 08,15:42:38.790,-0.659017,-0.347243,0.592015,-0.30763,-1.036228,-0.121009,0.042257,0.530395,0.636461,0.015214,0,0
17928,2024 8 08,15:42:38.798,-0.659017,-0.347243,0.592015,-0.30763,-1.045491,-0.11276,0.057367,0.210907,-0.295323,0.004858,0,0
17929,2024 8 08,15:42:38.807,-0.659018,-0.347236,0.592029,-0.307611,-1.047351,-0.087885,0.025776,0.043274,-0.517447,0.001586,0,0
17930,2024 8 08,15:42:38.815,-0.659028,-0.347226,0.592024,-0.30761,-1.041462,-0.119834,0.054842,-0.405496,-0.126431,0.000529,0,0
17931,2024 8 08,15:42:38.823,-0.65903,-0.34722,0.592025,-0.307611,-1.041051,-0.098979,0.060425,-0.366538,0.12,4e-06,0,0
17932,2024 8 08,15:42:38.832,-0.659022,-0.347225,0.592033,-0.307607,-1.047246,-0.111715,0.048613,-0.068231,-0.235564,0.059598,0,0
17933,2024 8 08,15:42:38.840,-0.65902,-0.347219,0.592042,-0.307601,-1.04692,-0.109937,0.043186,-0.061311,-0.126419,0.119677,0,0
17934,2024 8 08,15:42:38.848,-0.659007,-0.347226,0.592055,-0.307594,-1.046445,-0.108945,0.047607,-0.118872,-0.180122,0.006299,0,0
17935,2024 8 08,15:42:38.857,-0.659006,-0.347226,0.592056,-0.307594,-1.04642,-0.108894,0.047837,-0.121858,-0.182907,0.000419,0,0
17936,2024 8 08,15:42:38.865,-0.659004,-0.34729,0.591993,-0.307649,-1.046419,-0.110238,0.043809,-0.009753,-0.01464,3.4e-05,0,0
17937,2024 8 08,15:42:38.873,-0.659009,-0.34724,0.592057,-0.307572,-1.043319,-0.12917,0.013772,-0.056258,-0.112063,-0.221395,0,0
17938,2024 8 08,15:42:38.882,-0.659005,0.341477,0.626056,0.23906,-1.043034,-0.120059,0.053353,-0.060529,-0.175582,-0.241732,0,0
17939,2024 8 08,15:42:38.890,-0.659005,0.341477,0.626056,0.23906,-1.044296,-0.108616,0.042073,-0.00716,-0.02077,-0.028596,0,0
17940,2024 8 08,15:42:38.898,-0.659007,-0.347226,0.592055,-0.307594,-1.044019,-0.106306,0.0471,-0.213251,-0.055787,-0.162965,0,0
17941,2024 8 08,15:42:38.907,-0.659008,-0.347296,0.591977,-0.307663,-1.043983,-0.116292,0.051097,-0.239752,-0.060289,-0.180244,0,0
17942,2024 8 08,15:42:38.915,-0.659002,-0.347284,0.592067,-0.307517,-1.044391,-0.108035,0.042463,-0.140134,-0.21592,-0.027666,0,0
17943,2024 8 08,15:42:38.923,-0.659006,-0.347226,0.592056,-0.307594,-1.04119,-0.121952,0.051883,-0.125044,-0.086531,-0.10653,0,0
17944,2024 8 08,15:42:38.932,-0.659008,-0.347296,0.591977,-0.307663,-1.047514,-0.117844,0.05724,-0.223246,-0.166162,-0.169671,0,0
17945,2024 8 08,15:42:38.940,-0.659008,-0.347296,0.591977,-0.307663,-1.04384,-0.125973,0.015839,-0.091205,-0.229637,-0.23029,0,0
17946,2024 8 08,15:42:38.948,-0.659012,-0.34731,0.592082,-0.307436,-1.04709,-0.075619,0.066398,-0.263178,-0.045073,-0.290477,0,0
17947,2024 8 08,15:42:38.957,-0.659013,-0.347312,0.592083,-0.30743,-1.04772,-0.113599,0.048156,-0.296511,-0.009299,-0.302143,0,0
17948,2024 8 08,15:42:38.965,-0.65904,-0.347315,0.59205,-0.307433,-1.040575,-0.11986,0.044091,0.462237,0.332915,-0.256674,0,0
17949,2024 8 08,15:42:38.973,-0.659047,-0.347314,0.592062,-0.307395,-1.045478,-0.109278,0.03701,0.05703,-0.350259,-0.294232,0,0
17950,2024 8 08,15:42:38.982,-0.659047,-0.347314,0.592062,-0.307395,-1.042836,-0.10369,0.040982,-0.360164,-0.222377,-0.395995,0,0
17951,2024 8 08,15:42:38.990,-0.659047,-0.347314,0.592062,-0.307395,-1.044068,-0.109836,0.039163,-0.087893,-0.008127,-0.373479,0,0
17952,2024 8 08,15:42:38.998,-0.65904,-0.347315,0.59205,-0.307433,-1.045824,-0.109859,0.045655,0.068968,-0.275647,-0.368049,0,0
17953,2024 8 08,15:42:39.007,-0.659038,-0.347334,0.59191,-0.307686,-1.046263,-0.109865,0.047278,0.108179,-0.342521,-0.366692,0,0
17954,2024 8 08,15:42:39.015,-0.659035,-0.347402,0.591876,-0.30768,-1.044238,-0.095107,-0.003377,-0.015337,-0.226157,-0.455445,0,0
17955,2024 8 08,15:42:39.023,-0.659025,-0.347321,0.591934,-0.307682,-1.044755,-0.108259,0.045607,0.039778,-0.327228,-0.567235,0,0
17956,2024 8 08,15:42:39.032,-0.659021,-0.243831,0.627196,-0.33595,-1.046639,-0.109058,0.045467,-0.032159,-0.398597,-0.641554,0,0
17957,2024 8 08,15:42:39.040,-0.659025,-0.347321,0.591934,-0.307682,-1.046139,-0.109973,0.044739,0.076673,-0.117328,-0.877952,0,0
17958,2024 8 08,15:42:39.048,-0.659037,-0.347641,0.592012,-0.307145,-1.043608,-0.105469,0.052024,0.19355,-0.120638,-0.946773,0,0
17959,2024 8 08,15:42:39.057,-0.65904,-0.347315,0.59205,-0.307433,-1.042852,-0.104123,0.054201,0.228474,-0.121627,-0.967338,0,0
17960,2024 8 08,15:42:39.065,-0.659036,-0.347727,0.59198,-0.307111,-1.043954,-0.109046,0.047532,0.489266,-0.205294,-0.890273,0,0
17961,2024 8 08,15:42:39.073,-0.659032,-0.347802,0.591954,-0.307086,-1.04364,-0.110344,0.053531,0.406122,-0.231541,-0.866097,0,0
17962,2024 8 08,15:42:39.082,-0.659027,-0.34733,0.591926,-0.307685,-1.04158,-0.116903,0.047255,0.175409,-0.239965,-0.817532,0,0
17963,2024 8 08,15:42:39.090,-0.659024,-0.347915,0.591924,-0.307031,-1.040694,-0.109812,0.046058,0.094338,-0.211233,-0.777097,0,0
17964,2024 8 08,15:42:39.098,-0.659023,-0.347977,0.591899,-0.307013,-1.042167,-0.115031,0.043533,0.284987,-0.020196,-0.665294,0,0
17965,2024 8 08,15:42:39.107,-0.659025,-0.347321,0.591934,-0.307682,-1.046849,-0.095917,0.004032,0.194528,-0.126595,-0.652078,0,0
17966,2024 8 08,15:42:39.115,-0.659029,-0.348081,0.591864,-0.306948,-1.050622,-0.11508,0.040066,0.241744,-0.180375,-0.9028,0,0
17967,2024 8 08,15:42:39.123,-0.65903,-0.34722,0.592025,-0.307611,-1.049873,-0.136622,0.016764,0.213038,-0.15972,-0.883781,0,0
17968,2024 8 08,15:42:39.132,-0.659044,-0.348133,0.591842,-0.3069,-1.044096,-0.11229,0.047547,0.115318,0.018371,-0.710398,0,0
17969,2024 8 08,15:42:39.140,-0.659069,-0.347423,0.591835,-0.307663,-1.044793,-0.099064,0.00347,0.642774,0.171388,-0.871707,0,0
17970,2024 8 08,15:42:39.148,-0.659088,-0.347477,0.591779,-0.307671,-1.046833,-0.098988,0.012619,0.150042,-0.109878,-1.082886,0,0
17971,2024 8 08,15:42:39.157,-0.659099,-0.348343,0.59171,-0.306799,-1.045286,-0.109595,0.045189,0.353172,0.080887,-1.150873,0,0
17972,2024 8 08,15:42:39.165,-0.659107,-0.34843,0.591663,-0.306772,-1.045849,-0.096623,0.006366,0.790973,0.010249,-1.158554,0,0
17973,2024 8 08,15:42:39.173,-0.65911,-0.348452,0.59165,-0.306765,-1.045919,-0.106163,0.000371,0.824365,0.022748,-1.166623,0,0
17974,2024 8 08,15:42:39.182,-0.659126,-0.348537,0.591598,-0.306735,-1.045199,-0.115206,0.04314,0.69434,0.159045,-1.205574,0,0
17975,2024 8 08,15:42:39.190,-0.659141,-0.348635,0.591537,-0.30671,-1.040544,-0.111746,0.042444,0.71662,0.186148,-1.160148,0,0
17976,2024 8 08,15:42:39.198,-0.659147,-0.348746,0.59147,-0.306699,-1.040262,-0.114822,0.039602,0.961841,0.206829,-1.122887,0,0
17977,2024 8 08,15:42:39.207,-0.659157,-0.348854,0.591408,-0.306676,-1.041066,-0.109591,0.049342,0.833651,0.037808,-1.18259,0,0
17978,2024 8 08,15:42:39.215,-0.659165,-0.34894,0.591361,-0.306649,-1.042233,-0.099906,0.050502,0.554994,0.007303,-1.065605,0,0
17979,2024 8 08,15:42:39.223,-0.659168,-0.348967,0.591347,-0.306641,-1.042771,-0.103337,-0.000602,0.508417,0.001485,-1.049866,0,0
17980,2024 8 08,15:42:39.232,-0.659172,-0.347641,0.591584,-0.307679,-1.045184,-0.111298,0.045055,0.521118,-0.012671,-1.081746,0,0
17981,2024 8 08,15:42:39.240,-0.659174,-0.349131,0.591271,-0.306588,-1.0472,-0.110853,0.04447,0.445617,-0.084874,-1.047431,0,0
17982,2024 8 08,15:42:39.248,-0.659173,-0.349227,0.591227,-0.306565,-1.045232,-0.079577,-0.042996,0.700041,-0.013364,-1.033543,0,0
17983,2024 8 08,15:42:39.257,-0.659175,-0.349319,0.59118,-0.306546,-1.047484,-0.11809,0.044005,0.747177,0.043084,-0.977788,0,0
17984,2024 8 08,15:42:39.265,-0.65918,-0.349397,0.591131,-0.306542,-1.044855,-0.103385,0.046285,1.19374,0.056543,-0.885344,0,0
17985,2024 8 08,15:42:39.273,-0.659181,-0.242473,0.623195,-0.34397,-1.044058,-0.122875,0.045235,1.212446,0.03541,-0.868597,0,0
17986,2024 8 08,15:42:39.282,-0.659182,-0.349489,0.591087,-0.306517,-1.042877,-0.109543,0.040329,0.594965,-0.118609,-0.884838,0,0
17987,2024 8 08,15:42:39.290,-0.659175,-0.349319,0.59118,-0.306546,-1.042403,-0.110863,0.046382,0.211921,-0.145021,-0.756534,0,0
17988,2024 8 08,15:42:39.298,-0.659163,-0.349632,0.591038,-0.306489,-1.043086,-0.107401,0.038007,0.403891,-0.291578,-0.602254,0,0
17989,2024 8 08,15:42:39.307,-0.659153,-0.349692,0.591023,-0.306471,-1.042727,-0.129457,0.006473,0.397054,-0.25799,-0.533243,0,0
17990,2024 8 08,15:42:39.315,-0.659143,-0.349747,0.591013,-0.30645,-1.042918,-0.076198,0.022175,0.247236,-0.248292,-0.587238,0,0
17991,2024 8 08,15:42:39.323,-0.659139,-0.349769,0.591007,-0.306444,-1.04293,-0.109351,0.058423,0.24283,-0.245417,-0.591815,0,0
17992,2024 8 08,15:42:39.332,-0.659127,-0.347548,0.591694,-0.307668,-1.042734,-0.114962,0.04367,0.511607,-0.244542,-0.532186,0,0
17993,2024 8 08,15:42:39.340,-0.659111,-0.349896,0.59097,-0.306431,-1.043022,-0.111906,0.05624,0.674692,-0.238676,-0.590766,0,0
17994,2024 8 08,15:42:39.348,-0.659096,-0.349971,0.590947,-0.306423,-1.042008,-0.115424,0.059097,0.533057,-0.201404,-0.600558,0,0
17995,2024 8 08,15:42:39.357,-0.659078,-0.350032,0.590932,-0.30642,-1.043376,-0.114554,0.044161,0.392763,-0.172826,-0.323486,0,0
17996,2024 8 08,15:42:39.365,-0.659061,-0.350092,0.590913,-0.306426,-1.041562,-0.113721,0.05475,0.426753,-0.002474,-0.185115,0,0
17997,2024 8 08,15:42:39.373,-0.65906,-0.350093,0.590912,-0.306426,-1.041536,-0.12842,0.035141,0.427232,-7.3e-05,-0.183164,0,0
17998,2024 8 08,15:42:39.382,-0.659057,-0.34734,0.591886,-0.307685,-1.04387,-0.113478,0.04297,0.077127,0.05835,-0.241461,0,0
17999,2024 8 08,15:42:39.390,-0.659055,-0.350146,0.590891,-0.306418,-1.045811,-0.116055,0.036991,0.119459,0.00339,-0.301474,0,0
18000,2024 8 08,15:42:39.398,-0.65905,-0.242571,0.623342,-0.343886,-1.04139,-0.094446,0.036565,-0.048068,-0.113057,-0.021659,0,0
18001,2024 8 08,15:42:39.407,-0.659053,-0.350165,0.590893,-0.306397,-1.03929,-0.101649,0.04332,-0.115766,0.046204,-0.169352,0,0
18002,2024 8 08,15:42:39.415,-0.659037,-0.347641,0.592012,-0.307145,-1.041756,-0.107739,0.046968,-0.121451,-0.050509,-0.016624,0,0
18003,2024 8 08,15:42:39.423,-0.659036,-0.347727,0.59198,-0.307111,-1.041994,-0.108328,0.047321,-0.122002,-0.059869,-0.001841,0,0
18004,2024 8 08,15:42:39.431,-0.659019,-0.350236,0.590869,-0.306434,-1.041164,-0.122952,0.04479,0.573779,-0.007366,-0.214331,0,0
18005,2024 8 08,15:42:39.440,-0.659008,-0.347296,0.591977,-0.307663,-1.041486,-0.121348,0.040681,0.763811,-0.106591,-0.134521,0,0
18006,2024 8 08,15:42:39.448,-0.659003,-0.34728,0.592004,-0.307642,-1.039028,-0.141573,-0.159929,0.320303,0.088558,-0.019715,0,0
18007,2024 8 08,15:42:39.456,-0.658993,0.194898,0.687922,0.233318,-1.038261,-0.099815,0.048455,0.101963,0.01398,0.048288,0,0
18008,2024 8 08,15:42:39.465,-0.658981,-0.350317,0.590837,-0.306485,-1.0422,-0.116888,0.04449,0.118675,0.002361,0.109611,0,0
18009,2024 8 08,15:42:39.473,-0.65898,-0.350318,0.590837,-0.306488,-1.042857,-0.117537,0.044845,0.121461,0.000424,0.119833,0,0
18010,2024 8 08,15:42:39.481,-0.658981,-0.350317,0.590837,-0.306485,-1.041787,-0.115675,0.041349,-0.075793,-0.049356,0.022772,0,0
18011,2024 8 08,15:42:39.490,-0.658978,-0.35031,0.590841,-0.306493,-1.041586,-0.114935,0.04616,-0.015175,0.038934,0.10219,0,0
18012,2024 8 08,15:42:39.498,-0.658978,-0.35031,0.590841,-0.306493,-1.042703,-0.104532,0.03039,-0.003189,0.1046,0.117893,0,0
18013,2024 8 08,15:42:39.506,-0.658972,-0.350299,0.590841,-0.306519,-1.044459,-0.114745,0.047846,-0.000701,0.022994,0.121152,0,0
18014,2024 8 08,15:42:39.515,-0.658967,-0.350294,0.590844,-0.30653,-1.044464,-0.125747,0.016873,0.04688,0.005272,0.215941,0,0
18015,2024 8 08,15:42:39.523,-0.658965,-0.350293,0.590844,-0.306533,-1.044465,-0.110353,0.042025,0.057659,0.001257,0.237415,0,0
18016,2024 8 08,15:42:39.531,-0.658961,-0.35029,0.590838,-0.306557,-1.044465,-0.110353,0.042025,0.152055,0.138095,0.242476,0,0
18017,2024 8 08,15:42:39.540,-0.658957,-0.350283,0.590833,-0.306584,-1.042287,-0.115007,0.042844,0.038974,0.171569,0.198323,0,0
18018,2024 8 08,15:42:39.548,-0.65895,-0.350272,0.590831,-0.306615,-1.046042,-0.09768,0.000272,0.010325,0.135183,0.366602,0,0
18019,2024 8 08,15:42:39.556,-0.65895,-0.350272,0.590831,-0.306615,-1.042767,-0.097417,0.04905,0.623776,0.170008,0.410672,0,0
18020,2024 8 08,15:42:39.565,-0.658952,-0.350226,0.590824,-0.306677,-1.042935,-0.130329,0.007943,0.175602,0.091713,0.466433,0,0
18021,2024 8 08,15:42:39.573,-0.658955,-0.350196,0.59082,-0.306714,-1.039859,-0.110152,0.041801,-0.165972,0.330096,0.481955,0,0
18022,2024 8 08,15:42:39.581,-0.658956,-0.350187,0.590819,-0.306724,-1.038979,-0.108579,0.039878,-0.263779,0.398355,0.4864,0,0
18023,2024 8 08,15:42:39.590,-0.65896,-0.350156,0.590815,-0.306758,-1.039059,-0.110153,0.048135,-0.419794,0.460848,0.530123,0,0
18024,2024 8 08,15:42:39.598,-0.658961,-0.35029,0.590838,-0.306557,-1.041433,-0.115998,0.041899,-0.047301,0.437749,0.669189,0,0
18025,2024 8 08,15:42:39.606,-0.658967,-0.350294,0.590844,-0.30653,-1.041835,-0.131691,0.007636,0.026376,0.596641,0.836718,0,0
18026,2024 8 08,15:42:39.615,-0.658981,-0.350317,0.590837,-0.306485,-1.042619,-0.116189,0.043738,-0.15565,0.770145,0.848678,0,0
18027,2024 8 08,15:42:39.623,-0.659006,-0.347226,0.592056,-0.307594,-1.0471,-0.098295,0.00038,0.029267,0.907586,0.852549,0,0
18028,2024 8 08,15:42:39.631,-0.659018,-0.347236,0.592029,-0.307611,-1.049327,-0.125949,0.051734,0.121177,0.975899,0.854473,0,0
18029,2024 8 08,15:42:39.640,-0.659022,-0.347225,0.592033,-0.307607,-1.047996,-0.126752,0.051566,0.202528,0.984594,0.886684,0,0
18030,2024 8 08,15:42:39.648,-0.659051,-0.349818,0.590701,-0.307165,-1.039763,-0.129483,0.049267,0.671841,1.059282,1.09818,0,0
18031,2024 8 08,15:42:39.656,-0.659077,-0.349735,0.590668,-0.307268,-1.041753,-0.11488,0.04276,0.346708,1.251058,1.179784,0,0
18032,2024 8 08,15:42:39.665,-0.659111,-0.349896,0.59097,-0.306431,-1.04358,-0.108373,0.045023,-0.22258,1.530359,1.347129,0,0
18033,2024 8 08,15:42:39.673,-0.659145,-0.349541,0.590568,-0.307536,-1.042332,-0.115869,0.046059,0.019851,1.664156,1.470456,0,0
18034,2024 8 08,15:42:39.681,-0.659169,-0.349454,0.590525,-0.307665,-1.04338,-0.112644,0.041934,0.278287,1.483627,1.575939,0,0
18035,2024 8 08,15:42:39.690,-0.659176,-0.349433,0.590515,-0.307695,-1.043418,-0.119844,0.061066,0.28019,1.481593,1.57837,0,0
18036,2024 8 08,15:42:39.698,-0.659207,-0.349333,0.590472,-0.307825,-1.042818,-0.115402,0.045268,0.126401,1.574347,1.532142,0,0
18037,2024 8 08,15:42:39.706,-0.659251,-0.347764,0.591502,-0.30753,-1.041108,-0.14527,0.006621,-0.062254,1.635445,1.53387,0,0
18038,2024 8 08,15:42:39.715,-0.659308,-0.349067,0.590373,-0.308099,-1.039801,-0.098587,0.046474,-0.541818,1.952914,1.600543,0,0
18039,2024 8 08,15:42:39.723,-0.659346,-0.348947,0.590307,-0.308279,-1.039895,-0.130988,0.034701,-0.223094,1.946114,1.757802,0,0
18040,2024 8 08,15:42:39.731,-0.659375,-0.662583,0.342986,-0.091434,-1.041672,-0.120176,0.050622,0.574254,1.901033,1.869861,0,0
18041,2024 8 08,15:42:39.740,-0.659384,-0.348808,0.590234,-0.308494,-1.041744,-0.079787,-0.045821,0.629759,1.886869,1.922157,0,0
18042,2024 8 08,15:42:39.748,-0.659423,-0.348675,0.590193,-0.308642,-1.041135,-0.115274,0.04673,0.106915,1.875037,2.139147,0,0
18043,2024 8 08,15:42:39.756,-0.659469,-0.348515,0.590147,-0.308811,-1.046034,-0.122535,0.050302,-0.245059,2.051612,2.13018,0,0
18044,2024 8 08,15:42:39.765,-0.659518,-0.348363,0.590093,-0.308981,-1.048348,-0.12064,0.052849,0.416125,1.89637,2.060411,0,0
18045,2024 8 08,15:42:39.773,-0.659571,-0.348208,0.59004,-0.309143,-1.046423,-0.105651,0.051603,0.138053,2.001537,1.880801,0,0
18046,2024 8 08,15:42:39.781,-0.65961,-0.348089,0.589981,-0.309307,-1.043398,-0.102113,0.046436,0.078474,2.105733,1.842318,0,0
18047,2024 8 08,15:42:39.790,-0.659622,-0.348051,0.58996,-0.309364,-1.04257,-0.103037,0.046339,0.159757,2.097505,1.821095,0,0
18048,2024 8 08,15:42:39.798,-0.659651,-0.347959,0.5899,-0.309519,-1.041968,-0.128305,0.025205,0.720525,1.896279,1.71773,0,0
18049,2024 8 08,15:42:39.806,-0.659682,-0.347866,0.589833,-0.309688,-1.044945,-0.107244,0.046875,0.507796,1.853758,1.562223,0,0
18050,2024 8 08,15:42:39.815,-0.65971,-0.347784,0.589757,-0.309865,-1.04429,-0.106775,0.049232,0.511664,1.863771,1.475801,0,0
18051,2024 8 08,15:42:39.823,-0.659738,-0.347696,0.589682,-0.310045,-1.048373,-0.073522,0.014936,0.748504,1.73284,1.609738,0,0
18052,2024 8 08,15:42:39.831,-0.659758,-0.347655,0.590347,-0.308781,-1.045204,-0.111075,0.044667,1.572998,1.583627,1.417264,0,0
18053,2024 8 08,15:42:39.840,-0.659765,-0.347618,0.589579,-0.310272,-1.043482,-0.115541,0.059211,1.747526,1.554225,1.36416,0,0
18054,2024 8 08,15:42:39.848,-0.659776,-0.347592,0.5895,-0.310426,-1.037728,-0.105274,0.058596,1.485451,1.579573,1.354901,0,0
18055,2024 8 08,15:42:39.856,-0.659753,-0.347595,0.589423,-0.310619,-1.037835,-0.105625,0.053185,1.700056,1.260294,1.41202,0,0
18056,2024 8 08,15:42:39.865,-0.659683,-0.24204,0.622672,-0.34426,-1.044665,-0.118863,0.048625,2.634582,0.733526,1.569049,0,0
18057,2024 8 08,15:42:39.873,-0.659614,-0.347673,0.589293,-0.311073,-1.041593,-0.114642,0.054654,2.607416,0.630362,1.581239,0,0
18058,2024 8 08,15:42:39.881,-0.659552,-0.347699,0.589244,-0.311268,-1.038917,-0.106474,0.057974,2.20693,0.740462,1.58507,0,0
18059,2024 8 08,15:42:39.890,-0.659522,-0.347713,0.589223,-0.311355,-1.037616,-0.117645,0.005996,2.160854,0.748298,1.60284,0,0
18060,2024 8 08,15:42:39.898,-0.659414,-0.347817,0.591185,-0.307729,-1.03277,-0.10109,0.053736,2.925923,0.489554,1.769201,0,0
18061,2024 8 08,15:42:39.906,-0.659247,-0.347891,0.58913,-0.311916,-1.047099,-0.10634,0.048929,3.467819,-0.229303,1.889605,0,0
18062,2024 8 08,15:42:39.915,-0.659109,-0.347976,0.589105,-0.312158,-1.034663,-0.107387,0.050247,2.6541,-0.125833,1.597534,0,0
18063,2024 8 08,15:42:39.923,-0.658951,-0.348062,0.58911,-0.312387,-1.035626,-0.112474,0.043362,2.625976,-0.470339,1.819494,0,0
18064,2024 8 08,15:42:39.931,-0.658778,-0.348155,0.589142,-0.312588,-1.032015,-0.12461,0.056962,3.139041,-1.401695,1.716002,0,0
18065,2024 8 08,15:42:39.940,-0.658767,-0.348161,0.589144,-0.312601,-1.031789,-0.125424,0.057118,3.171147,-1.459976,1.709525,0,0
18066,2024 8 08,15:42:39.948,-0.658576,-0.348227,0.589225,-0.312777,-1.027774,-0.110383,0.072677,2.285191,-1.853077,2.319805,0,0
18067,2024 8 08,15:42:39.956,-0.658303,-0.34835,0.589336,-0.313007,-1.029606,-0.110358,0.05742,3.465393,-2.435485,2.428868,0,0
18068,2024 8 08,15:42:39.965,-0.657986,-0.348472,0.589495,-0.313237,-1.044475,-0.109655,0.047992,3.045585,-2.980529,2.70986,0,0
18069,2024 8 08,15:42:39.973,-0.657678,-0.348569,0.589684,-0.313422,-1.053837,-0.105369,0.046395,2.731527,-2.989421,2.582171,0,0
18070,2024 8 08,15:42:39.981,-0.657405,-0.348665,0.589843,-0.313587,-1.048714,-0.109659,0.034624,2.166759,-2.885501,2.093402,0,0
18071,2024 8 08,15:42:39.990,-0.657368,-0.348678,0.589864,-0.31361,-1.048009,-0.135884,0.018418,2.089021,-2.871196,2.026125,0,0
18072,2024 8 08,15:42:39.998,-0.657171,-0.348724,0.590011,-0.313695,-1.042585,-0.131659,0.019514,1.156976,-2.357697,1.86269,0,0
18073,2024 8 08,15:42:40.006,-0.656947,-0.348785,0.590206,-0.31373,-1.038083,-0.10499,0.050257,0.452595,-2.982111,1.533698,0,0
18074,2024 8 08,15:42:40.015,-0.656691,-0.348849,0.590453,-0.313731,-1.040503,-0.107376,0.059057,0.681023,-4.234747,1.577139,0,0
18075,2024 8 08,15:42:40.023,-0.656403,0.362061,0.628982,0.205981,-1.042122,-0.132856,0.003421,0.476485,-5.003038,1.142281,0,0
18076,2024 8 08,15:42:40.031,-0.656102,-0.349066,0.591059,-0.313581,-1.049817,-0.108496,0.047079,-0.097056,-5.441703,0.7675,0,0
18077,2024 8 08,15:42:40.040,-0.655795,-0.349174,0.591413,-0.313435,-1.053671,-0.116482,0.051142,-0.068742,-6.05788,0.835881,0,0
18078,2024 8 08,15:42:40.048,-0.65573,-0.349197,0.591488,-0.313404,-1.054485,-0.11817,0.052,-0.062758,-6.188097,0.850332,0,0
18079,2024 8 08,15:42:40.056,-0.655478,-0.349277,0.591794,-0.313263,-1.054291,-0.115172,0.044324,-0.389177,-6.263675,0.713063,0,0
18080,2024 8 08,15:42:40.065,-0.655195,-0.349363,0.592132,-0.313121,-1.050915,-0.111891,0.028493,-0.418032,-5.448349,0.820261,0,0
18081,2024 8 08,15:42:40.073,-0.654929,-0.34942,0.592463,-0.312988,-1.051936,-0.107083,0.022512,-0.882107,-4.979026,1.074488,0,0
18082,2024 8 08,15:42:40.081,-0.6547,-0.349424,0.592786,-0.312849,-1.046767,-0.101914,0.034766,-1.539443,-4.50113,1.137548,0,0
18083,2024 8 08,15:42:40.090,-0.654496,-0.349396,0.593112,-0.312692,-1.048299,-0.118268,0.053681,-1.79751,-4.33379,1.10907,0,0
18084,2024 8 08,15:42:40.098,-0.654441,-0.349388,0.593198,-0.31265,-1.048705,-0.1034,0.029251,-1.865936,-4.28942,1.101519,0,0
18085,2024 8 08,15:42:40.106,-0.654285,0.243669,0.692567,0.181327,-1.046022,-0.123472,0.032829,-1.884645,-4.451932,0.924811,0,0
18086,2024 8 08,15:42:40.115,-0.654118,0.135045,0.684057,0.293165,-1.047339,-0.108395,0.038901,-1.846736,-4.238626,0.616016,0,0
18087,2024 8 08,15:42:40.123,-0.653958,-0.34932,0.594027,-0.312164,-1.053186,-0.106429,0.023118,-1.878466,-3.835292,0.441251,0,0
18088,2024 8 08,15:42:40.131,-0.653834,-0.349292,0.594278,-0.311978,-1.05222,-0.100317,0.036023,-1.972366,-3.335326,0.135908,0,0
18089,2024 8 08,15:42:40.140,-0.65374,-0.349269,0.594493,-0.311791,-1.052594,-0.098163,0.037436,-1.959195,-2.974084,-0.124254,0,0
18090,2024 8 08,15:42:40.148,-0.653711,-0.349261,0.59456,-0.311733,-1.052711,-0.097491,0.037877,-1.955084,-2.861343,-0.205448,0,0
18091,2024 8 08,15:42:40.156,-0.653666,-0.349258,0.59468,-0.3116,-1.056675,-0.120184,-0.012217,-1.667463,-2.293625,-0.517685,0,0
18092,2024 8 08,15:42:40.165,-0.65364,-0.349262,0.594752,-0.311512,-1.057768,-0.096498,0.03591,-1.443379,-1.964683,-0.72913,0,0
18093,2024 8 08,15:42:40.173,-0.653613,-0.349301,0.594841,-0.311355,-1.052039,-0.101682,0.037247,-0.90751,-1.587896,-1.109119,0,0
18094,2024 8 08,15:42:40.181,-0.653614,-0.34935,0.594889,-0.311209,-1.049648,-0.103245,0.034709,-0.820947,-1.116768,-1.23329,0,0
18095,2024 8 08,15:42:40.190,-0.653636,-0.349391,0.594914,-0.311068,-1.047774,-0.104653,0.031659,-0.969537,-0.694613,-1.32995,0,0
18096,2024 8 08,15:42:40.198,-0.653666,-0.349258,0.59468,-0.3116,-1.046499,-0.103127,0.033113,-0.976146,-0.328257,-1.284596,0,0
18097,2024 8 08,15:42:40.206,-0.653674,-0.349423,0.594926,-0.310928,-1.046241,-0.102854,0.033442,-1.014784,-0.30686,-1.258995,0,0
18098,2024 8 08,15:42:40.215,-0.653724,-0.349424,0.594935,-0.310806,-1.045186,-0.102521,0.034587,-1.190837,-0.260078,-1.089849,0,0
18099,2024 8 08,15:42:40.223,-0.653778,-0.34942,0.59493,-0.310706,-1.045975,-0.107521,0.03113,-0.785345,0.051472,-0.925392,0,0
18100,2024 8 08,15:42:40.231,-0.653836,-0.136611,0.726304,-0.161983,-1.045864,-0.105724,0.028332,-0.83653,0.207938,-0.862419,0,0
18101,2024 8 08,15:42:40.240,-0.653902,-0.34939,0.594912,-0.310514,-1.040165,-0.103168,0.046783,-1.054524,0.13995,-0.848246,0,0
18102,2024 8 08,15:42:40.248,-0.653956,-0.349384,0.594891,-0.310445,-1.040927,-0.104315,0.041379,-0.670732,0.177239,-0.800905,0,0
18103,2024 8 08,15:42:40.256,-0.65397,-0.349383,0.594886,-0.310428,-1.041311,-0.136168,0.064088,-0.626294,0.189275,-0.801591,0,0
18104,2024 8 08,15:42:40.265,-0.654017,-0.349383,0.594865,-0.310369,-1.043143,-0.105781,0.035765,-0.615631,0.207659,-0.853034,0,0
18105,2024 8 08,15:42:40.273,-0.654057,-0.349405,0.594841,-0.310306,-1.043595,-0.106698,0.036131,-0.279803,0.035255,-0.904918,0,0
18106,2024 8 08,15:42:40.281,-0.654084,-0.349451,0.594811,-0.310254,-1.045141,-0.10371,0.039235,-0.050495,0.026652,-0.920376,0,0
18107,2024 8 08,15:42:40.290,-0.654116,-0.3495,0.594772,-0.310207,-1.047456,-0.097044,0.0017,-0.056381,0.179949,-0.965837,0,0
18108,2024 8 08,15:42:40.298,-0.654159,-0.349524,0.594735,-0.310159,-1.043506,-0.125691,0.010954,-0.352682,0.377526,-0.974406,0,0
18109,2024 8 08,15:42:40.306,-0.654175,-0.349529,0.594723,-0.310145,-1.042878,-0.110832,0.036029,-0.405004,0.436292,-0.937037,0,0
18110,2024 8 08,15:42:40.315,-0.654226,-0.349532,0.594682,-0.31011,-1.045021,-0.130949,0.030685,-0.387634,0.597676,-0.688861,0,0
18111,2024 8 08,15:42:40.323,-0.654298,-0.349527,0.594626,-0.310071,-1.052396,-0.107086,0.025087,-0.465126,0.839886,-0.700823,0,0
18112,2024 8 08,15:42:40.331,-0.654392,-0.349518,0.594551,-0.310029,-1.046865,-0.076338,0.016156,-0.463907,1.163459,-0.870432,0,0
18113,2024 8 08,15:42:40.340,-0.654496,-0.349396,0.593112,-0.312692,-1.048484,-0.10684,0.035555,-0.394214,1.179221,-0.950214,0,0
18114,2024 8 08,15:42:40.348,-0.654597,-0.349484,0.594388,-0.309947,-1.047312,-0.103647,0.028729,-0.690834,1.300733,-0.96979,0,0
18115,2024 8 08,15:42:40.356,-0.654638,-0.349474,0.594358,-0.30993,-1.04716,-0.103127,0.027577,-0.820744,1.392213,-0.999006,0,0
18116,2024 8 08,15:42:40.365,-0.654757,-0.341326,0.596481,-0.314642,-1.04804,-0.104686,0.031576,-1.181762,1.799434,-1.153966,0,0
18117,2024 8 08,15:42:40.373,-0.654911,-0.349389,0.594166,-0.309815,-1.047852,-0.101176,0.012715,-1.148131,1.945297,-1.181754,0,0
18118,2024 8 08,15:42:40.381,-0.65509,-0.349334,0.594035,-0.309751,-1.044867,-0.110351,0.05299,-1.073214,2.216646,-1.321794,0,0
18119,2024 8 08,15:42:40.390,-0.65528,-0.349266,0.593898,-0.309688,-1.043085,-0.107036,0.0388,-1.34233,2.343161,-1.250832,0,0
18120,2024 8 08,15:42:40.398,-0.65546,-0.349196,0.59377,-0.309632,-1.046077,-0.105611,0.040678,-1.385015,2.45375,-1.229913,0,0
18121,2024 8 08,15:42:40.406,-0.655534,-0.349168,0.593717,-0.30961,-1.047391,-0.105887,0.041558,-1.380918,2.504195,-1.229256,0,0
18122,2024 8 08,15:42:40.415,-0.655699,-0.349109,0.593591,-0.309567,-1.049752,-0.049698,0.089968,-1.232805,2.683493,-1.281738,0,0
18123,2024 8 08,15:42:40.423,-0.655908,-0.349046,0.593414,-0.309532,-1.046837,-0.106142,0.038686,-0.942985,3.122946,-1.415934,0,0
18124,2024 8 08,15:42:40.431,-0.656145,-0.348982,0.593203,-0.309507,-1.04777,-0.127985,0.014932,-0.867644,3.473965,-1.53517,0,0
18125,2024 8 08,15:42:40.440,-0.656488,-0.348905,0.592877,-0.309494,-1.047399,-0.10209,0.036667,-0.67353,3.961898,-1.646718,0,0
18126,2024 8 08,15:42:40.448,-0.656761,-0.348847,0.592609,-0.309491,-1.056431,-0.110615,0.034246,-0.611998,4.204922,-1.945139,0,0
18127,2024 8 08,15:42:40.456,-0.656768,-0.348846,0.592602,-0.309491,-1.056663,-0.110834,0.034183,-0.610419,4.211161,-1.9528,0,0
18128,2024 8 08,15:42:40.465,-0.657066,-0.348802,0.592305,-0.309477,-1.045598,-0.097678,0.012153,-0.610355,4.615158,-2.18382,0,0
18129,2024 8 08,15:42:40.473,-0.65738,-0.348761,0.591981,-0.309477,-1.044998,-0.098313,0.054072,-0.383016,4.750721,-2.253174,0,0
18130,2024 8 08,15:42:40.481,-0.657692,-0.348774,0.591607,-0.309514,-1.044509,-0.104883,0.05195,0.416601,5.096001,-2.593962,0,0
18131,2024 8 08,15:42:40.490,-0.657998,-0.348826,0.591203,-0.309577,-1.048445,-0.116018,0.04471,1.25449,5.344872,-2.566382,0,0
18132,2024 8 08,15:42:40.498,-0.658308,-0.243386,0.624238,-0.343103,-1.0523,-0.104869,0.044465,1.224352,5.422705,-2.781562,0,0
18133,2024 8 08,15:42:40.506,-0.658635,-0.348983,0.59033,-0.309712,-1.048844,-0.109867,0.064441,1.543283,5.967896,-3.234002,0,0
18134,2024 8 08,15:42:40.515,-0.658674,-0.348993,0.590276,-0.30972,-1.048434,-0.104501,0.045877,1.58114,6.03261,-3.287707,0,0
18135,2024 8 08,15:42:40.523,-0.658962,-0.349122,0.589833,-0.309805,-1.051725,-0.098812,0.037606,2.213024,6.041059,-3.503699,0,0
18136,2024 8 08,15:42:40.531,-0.659256,-0.349352,0.589291,-0.309952,-1.060441,-0.146445,0.052945,3.797807,5.939157,-3.843701,0,0
18137,2024 8 08,15:42:40.540,-0.659517,-0.349701,0.588685,-0.310155,-1.056486,-0.109637,0.038986,5.567103,6.228786,-4.302845,0,0
18138,2024 8 08,15:42:40.548,-0.65978,-0.140238,0.682123,-0.282369,-1.047399,-0.10209,0.036667,5.305397,5.774193,-4.679588,0,0
18139,2024 8 08,15:42:40.556,-0.66002,-0.350472,0.587488,-0.310484,-1.048189,-0.112862,0.050957,4.813418,5.198888,-4.993389,0,0
18140,2024 8 08,15:42:40.565,-0.660064,-0.350545,0.587382,-0.310509,-1.048336,-0.113201,0.051601,4.722219,5.092243,-5.051559,0,0
18141,2024 8 08,15:42:40.573,-0.660254,-0.350902,0.586889,-0.310636,-1.047591,-0.102899,0.026135,5.236151,4.974709,-4.966248,0,0
18142,2024 8 08,15:42:40.581,-0.660477,-0.351274,0.586387,-0.310688,-1.045528,-0.117723,0.041722,3.909292,4.425344,-5.091967,0,0
18143,2024 8 08,15:42:40.590,-0.660674,-0.351658,0.585936,-0.310685,-1.050367,-0.124859,0.044196,3.529602,3.316682,-5.260506,0,0
18144,2024 8 08,15:42:40.598,-0.660886,0.197187,0.678811,0.252004,-1.055182,-0.114158,0.039532,3.397767,3.347415,-5.624549,0,0
18145,2024 8 08,15:42:40.606,-0.661086,-0.346763,0.588102,-0.311217,-1.043044,-0.116446,0.044705,2.952523,2.663868,-6.078007,0,0
18146,2024 8 08,15:42:40.615,-0.661134,-0.352542,0.584983,-0.310501,-1.040099,-0.106464,0.04546,2.844479,2.497997,-6.188044,0,0
18147,2024 8 08,15:42:40.623,-0.661205,-0.352925,0.584768,-0.310319,-1.050514,-0.131536,0.036559,2.72735,-0.422526,-6.395638,0,0
18148,2024 8 08,15:42:40.631,-0.661276,-0.353381,0.584572,-0.310017,-1.068163,-0.123931,0.046922,2.163299,-0.203633,-6.760879,0,0
18149,2024 8 08,15:42:40.640,-0.661505,-0.35379,0.584227,-0.309714,-1.053908,-0.116614,0.047241,1.17662,2.09722,-7.606274,0,0
18150,2024 8 08,15:42:40.648,-0.66178,-0.354215,0.583832,-0.309384,-1.04127,-0.120851,0.052546,0.903723,1.82071,-8.361741,0,0
18151,2024 8 08,15:42:40.656,-0.662044,-0.354671,0.583489,-0.308944,-1.053151,-0.124464,0.073315,0.396166,1.0112,-9.049623,0,0
18152,2024 8 08,15:42:40.665,-0.662121,-0.354804,0.583388,-0.308816,-1.056625,-0.111138,0.051417,0.247743,0.774478,-9.250776,0,0
18153,2024 8 08,15:42:40.673,-0.662348,-0.355198,0.583084,-0.308451,-1.080211,-0.122473,0.052948,1.380823,0.787556,-9.437315,0,0
18154,2024 8 08,15:42:40.681,-0.662589,-0.355741,0.582786,-0.30787,-1.064165,-0.121202,0.049475,-0.059759,-0.290208,-11.325408,0,0
18155,2024 8 08,15:42:40.690,-0.66293,-0.356317,0.582386,-0.307226,-1.078872,-0.125413,0.05365,-0.595778,0.605349,-12.496355,0,0
18156,2024 8 08,15:42:40.698,-0.663396,-0.237166,0.617316,-0.350113,-1.095341,-0.119926,0.046197,-1.135047,1.62704,-14.299234,0,0
18157,2024 8 08,15:42:40.706,-0.663707,-0.357289,0.581598,-0.30591,-1.10212,-0.115961,0.04408,-1.475956,2.067461,-15.544847,0,0
18158,2024 8 08,15:42:40.715,-0.664217,-0.357893,0.58111,-0.305023,-1.093485,-0.108086,0.053983,-1.942871,1.656964,-17.773327,0,0
18159,2024 8 08,15:42:40.723,-0.664306,-0.358022,0.581023,-0.304845,-1.097056,-0.10932,0.054702,-1.9448,1.425591,-18.186329,0,0
18160,2024 8 08,15:42:40.731,-0.66489,-0.358892,0.580448,-0.303641,-1.121148,-0.11649,0.057496,-1.949602,0.029998,-20.968233,0,0
18161,2024 8 08,15:42:40.740,-0.665568,-0.359945,0.579779,-0.302184,-1.132725,-0.103838,0.058514,-2.241397,-0.04904,-24.598946,0,0
18162,2024 8 08,15:42:40.748,-0.666281,-0.361266,0.579002,-0.300519,-1.177454,-0.085501,0.070651,-1.736833,-0.872169,-29.133593,0,0
18163,2024 8 08,15:42:40.756,-0.667034,-0.362893,0.578144,-0.298532,-1.143937,-0.074321,0.011785,-1.079312,-2.97618,-34.312557,0,0
18164,2024 8 08,15:42:40.765,-0.667462,-0.36467,0.577653,-0.296354,-1.263481,-0.120599,0.062468,-4.377243,-10.589319,-39.223816,0,0
18165,2024 8 08,15:42:40.773,-0.667669,-0.365079,0.577439,-0.295802,-1.272671,-0.13101,0.059625,-4.570215,-9.235299,-40.44278,0,0
18166,2024 8 08,15:42:40.781,-0.668946,-0.366774,0.576165,-0.293288,-1.248648,-0.162259,0.011977,-4.377304,4.344791,-45.88802,0,0
18167,2024 8 08,15:42:40.790,-0.67078,-0.368624,0.57442,-0.290183,-1.214591,-0.130771,0.031166,-8.820086,6.077814,-52.274864,0,0
18168,2024 8 08,15:42:40.798,-0.67282,-0.370682,0.572426,-0.286755,-1.234802,-0.127234,0.05343,-9.409224,8.475087,-58.036942,0,0
18169,2024 8 08,15:42:40.806,-0.675097,0.140001,0.710348,0.14152,-1.237552,-0.125587,0.045506,-8.778558,9.418443,-64.325226,0,0
18170,2024 8 08,15:42:40.815,-0.677222,-0.375255,0.567911,-0.279325,-1.298688,-0.113812,0.062369,-10.551827,9.352307,-71.136322,0,0
18171,2024 8 08,15:42:40.823,-0.677901,-0.375975,0.567201,-0.278154,-1.308595,-0.113943,0.061927,-10.957311,9.657242,-73.456818,0,0
18172,2024 8 08,15:42:40.831,-0.680348,-0.37854,0.564607,-0.273928,-1.314421,-0.128842,0.041511,-11.648709,12.029063,-82.043526,0,0
18173,2024 8 08,15:42:40.840,-0.683377,-0.381706,0.561284,-0.268759,-1.365504,-0.136617,0.043333,-11.806781,14.486706,-90.693222,0,0
18174,2024 8 08,15:42:40.848,-0.686733,-0.385346,0.557467,-0.262874,-1.388449,-0.12068,0.047326,-12.565246,15.166965,-102.076096,0,0
18175,2024 8 08,15:42:40.856,-0.690315,-0.389542,0.553109,-0.256412,-1.439902,-0.131496,0.029278,-11.434017,17.469984,-113.615372,0,0
18176,2024 8 08,15:42:40.865,-0.693835,-0.393636,0.548692,-0.250086,-1.480753,-0.128392,0.025925,-12.073169,21.014032,-125.19281,0,0
18177,2024 8 08,15:42:40.873,-0.695116,-0.395125,0.547036,-0.247822,-1.493485,-0.128325,0.022202,-11.94579,22.663448,-129.253265,0,0
18178,2024 8 08,15:42:40.881,-0.698895,-0.399511,0.541879,-0.241343,-1.524212,-0.129057,0.007853,-10.066211,29.071865,-140.459412,0,0
18179,2024 8 08,15:42:40.890,-0.703638,-0.404969,0.535063,-0.233474,-1.587554,-0.109223,0.046549,-7.809483,37.213413,-153.787018,0,0
18180,2024 8 08,15:42:40.898,-0.709,0.299866,0.592336,0.237776,-1.686405,-0.116614,0.105492,1.23913,52.831383,-166.717529,0,0
18181,2024 8 08,15:42:40.906,-0.714911,-0.418468,0.515978,-0.217697,-1.715441,-0.163541,0.051373,14.637385,73.441063,-179.818619,0,0
18182,2024 8 08,15:42:40.915,-0.720494,-0.425623,0.505058,-0.210963,-1.625018,-0.269655,0.031409,23.892666,83.76767,-190.237259,0,0
18183,2024 8 08,15:42:40.923,-0.722632,-0.428478,0.500751,-0.208256,-1.596377,-0.309535,0.034781,26.311705,85.619965,-193.736954,0,0
18184,2024 8 08,15:42:40.931,-0.727334,-0.435418,0.490544,-0.201528,-1.562019,-0.388538,0.091847,25.530548,79.056259,-198.368744,0,0
18185,2024 8 08,15:42:40.940,-0.732516,-0.443468,0.478687,-0.193417,-1.515507,-0.441285,0.107218,23.368273,75.00489,-199.577591,0,0
18186,2024 8 08,15:42:40.948,-0.737773,-0.451373,0.466333,-0.185074,-1.512445,-0.459005,0.128756,21.001183,76.963394,-195.065948,0,0
18187,2024 8 08,15:42:40.956,-0.743136,-0.458697,0.45356,-0.177149,-1.438881,-0.456881,0.084514,19.13122,84.30291,-187.572784,0,0
18188,2024 8 08,15:42:40.965,-0.748504,-0.46528,0.440627,-0.169874,-1.36365,-0.421893,0.070113,15.914358,90.089439,-177.972229,0,0
18189,2024 8 08,15:42:40.973,-0.75583,-0.473438,0.422775,-0.160741,-1.197541,-0.384831,0.084942,12.27331,99.108109,-165.545242,0,0
18190,2024 8 08,15:42:40.981,-0.75584,-0.47345,0.42275,-0.160728,-1.197306,-0.384778,0.084963,12.268155,99.120872,-165.527649,0,0
18191,2024 8 08,15:42:40.990,-0.761068,-0.478233,0.409854,-0.155179,-0.943907,-0.354049,0.014996,9.136187,102.371155,-155.89534,0,0
18192,2024 8 08,15:42:40.998,-0.766288,-0.482051,0.397394,-0.149988,-0.456328,-0.113268,-0.155768,-1.0317,100.144821,-139.644791,0,0
18193,2024 8 08,15:42:41.006,-0.770903,-0.484237,0.386949,-0.146569,-0.180354,0.022517,-0.464071,-4.822109,88.401825,-96.007545,0,0
18194,2024 8 08,15:42:41.015,-0.774552,-0.484108,0.380474,-0.144717,-0.578049,0.043263,-0.137926,-25.561623,59.446579,-49.499054,0,0
18195,2024 8 08,15:42:41.023,-0.778057,-0.481644,0.376593,-0.144291,-0.678845,0.296109,-0.091375,-40.110638,54.880615,-13.238113,0,0
18196,2024 8 08,15:42:41.031,-0.77836,-0.481432,0.376258,-0.144254,-0.687529,0.317894,-0.087364,-41.364159,54.487217,-10.113924,0,0
18197,2024 8 08,15:42:41.040,-0.78136,-0.477617,0.373883,-0.146853,-0.801018,0.403221,0.028262,-37.427086,63.978241,24.470331,0,0
18198,2024 8 08,15:42:41.048,-0.78448,-0.473201,0.370849,-0.152097,-0.697442,0.390502,0.03045,-25.881166,84.366295,44.073242,0,0
18199,2024 8 08,15:42:41.056,-0.787169,-0.469229,0.367289,-0.158973,-0.450768,0.393147,0.000798,-10.707955,89.251793,53.866291,0,0
18200,2024 8 08,15:42:41.065,-0.788652,-0.466413,0.364402,-0.166382,-0.338443,0.405562,-0.00695,8.129025,75.099525,59.762852,0,0
18201,2024 8 08,15:42:41.073,-0.788648,-0.465022,0.362576,-0.174105,-0.363837,0.421332,-0.00111,29.044289,58.152969,65.447701,0,0
18202,2024 8 08,15:42:41.081,-0.788647,-0.464803,0.362288,-0.175323,-0.36784,0.423818,-0.000189,32.341438,55.481461,66.34388,0,0
18203,2024 8 08,15:42:41.090,-0.787209,-0.465053,0.361524,-0.182523,-0.42208,0.413843,-0.000834,51.834145,45.83757,72.141052,0,0
18204,2024 8 08,15:42:41.098,-0.784443,-0.466537,0.361002,-0.191432,-0.448367,0.366277,-0.025813,73.724884,38.832386,78.852135,0,0
18205,2024 8 08,15:42:41.106,-0.780466,-0.469225,0.360753,-0.201303,-0.460749,0.307387,-0.072632,93.116867,32.829567,85.383812,0,0
18206,2024 8 08,15:42:41.115,-0.775392,-0.472892,0.360888,-0.211786,-0.482847,0.235218,-0.113912,108.192871,25.28228,91.20842,0,0
18207,2024 8 08,15:42:41.123,-0.769323,-0.477344,0.361506,-0.222571,-0.542214,0.165756,-0.140796,119.710182,16.622963,95.46817,0,0
18208,2024 8 08,15:42:41.131,-0.767995,-0.478318,0.361642,-0.22493,-0.555201,0.150561,-0.146677,122.22966,14.728689,96.400009,0,0
18209,2024 8 08,15:42:41.140,-0.762195,-0.482531,0.362572,-0.233918,-0.61494,0.093288,-0.159522,128.277695,8.637716,98.885391,0,0
18210,2024 8 08,15:42:41.148,-0.754928,-0.487626,0.363963,-0.244459,-0.688516,0.030197,-0.177604,132.279175,3.434299,102.591843,0,0
18211,2024 8 08,15:42:41.156,-0.746999,-0.492799,0.365715,-0.255537,-0.767149,-0.046943,-0.195101,132.992142,0.704056,108.215424,0,0
18212,2024 8 08,15:42:41.165,-0.738764,-0.497597,0.36773,-0.267005,-0.810471,-0.132515,-0.234668,130.621368,0.948765,115.424858,0,0
18213,2024 8 08,15:42:41.173,-0.730387,-0.501693,0.370168,-0.278742,-0.856585,-0.208525,-0.257835,123.888039,0.437699,124.051956,0,0
18214,2024 8 08,15:42:41.181,-0.728112,-0.502806,0.370831,-0.28193,-0.86911,-0.229169,-0.264128,122.059265,0.298893,126.395081,0,0
18215,2024 8 08,15:42:41.190,-0.721424,-0.505121,0.373316,-0.291485,-0.92109,-0.273379,-0.275237,113.627121,0.260066,134.148743,0,0
18216,2024 8 08,15:42:41.198,-0.713587,-0.506937,0.376747,-0.30292,-0.989123,-0.312465,-0.285282,102.854591,0.548531,143.313538,0,0
18217,2024 8 08,15:42:41.206,-0.705548,-0.507778,0.380796,-0.314999,-1.058674,-0.343658,-0.284862,91.373825,2.53896,151.821396,0,0
18218,2024 8 08,15:42:41.215,-0.697642,-0.507543,0.385188,-0.327378,-1.097173,-0.367853,-0.294117,80.60746,6.408858,158.629547,0,0
18219,2024 8 08,15:42:41.223,-0.689921,-0.506376,0.38981,-0.339823,-1.099181,-0.388955,-0.290029,71.588348,8.811934,163.229309,0,0
18220,2024 8 08,15:42:41.231,-0.687468,-0.506006,0.391278,-0.343778,-1.099819,-0.157479,0.054337,68.722534,9.57551,164.690887,0,0
18221,2024 8 08,15:42:41.240,-0.681513,-0.504461,0.395164,-0.353285,-1.106842,-0.40076,-0.296422,63.653515,7.430044,166.342209,0,0
18222,2024 8 08,15:42:41.248,-0.677485,-0.503375,0.397829,-0.359624,-1.117842,-0.403432,-0.297255,60.703514,5.749475,167.230347,0,0
18223,2024 8 08,15:42:41.256,-0.669688,-0.501052,0.403166,-0.371332,-1.166815,-0.405441,-0.28049,58.062546,1.750278,167.587524,0,0
18224,2024 8 08,15:42:41.265,-0.661654,-0.498659,0.408546,-0.38289,-1.178056,-0.413663,-0.29263,58.601601,0.145751,166.963303,0,0
18225,2024 8 08,15:42:41.273,-0.653317,-0.496432,0.413938,-0.394138,-1.175394,-0.421452,-0.291216,60.30859,-5.025798,165.095566,0,0
18226,2024 8 08,15:42:41.281,-0.64576,-0.115141,0.604402,-0.452027,-1.163072,-0.433665,-0.309203,62.857529,-10.171875,162.488632,0,0
18227,2024 8 08,15:42:41.290,-0.644083,-0.494464,0.419679,-0.405593,-1.164038,-0.435294,-0.310504,63.456944,-11.918687,161.771759,0,0
18228,2024 8 08,15:42:41.298,-0.635453,-0.4933,0.424888,-0.415064,-1.179203,-0.442416,-0.310277,66.669258,-22.12809,157.595734,0,0
18229,2024 8 08,15:42:41.306,-0.625822,-0.4927,0.430535,-0.424476,-1.20983,-0.459767,-0.303623,70.512131,-32.513393,151.715271,0,0
18230,2024 8 08,15:42:41.315,-0.615744,-0.492797,0.436241,-0.433183,-1.258427,-0.48937,-0.285431,73.90094,-42.475739,144.614105,0,0
18231,2024 8 08,15:42:41.323,-0.605458,-0.493488,0.441828,-0.441158,-1.303656,-0.51541,-0.251548,75.930626,-49.07798,136.734375,0,0
18232,2024 8 08,15:42:41.331,-0.596363,-0.494456,0.44657,-0.447667,-1.320437,-0.531472,-0.210986,76.919693,-53.195797,129.154022,0,0
18233,2024 8 08,15:42:41.340,-0.593881,-0.494783,0.447829,-0.449355,-1.323785,-0.535608,-0.201284,77.047264,-54.25835,126.906822,0,0
18234,2024 8 08,15:42:41.348,-0.584902,-0.496259,0.452224,-0.455041,-1.330828,-0.552797,-0.173251,76.869102,-57.795574,118.025101,0,0
18235,2024 8 08,15:42:41.356,-0.575132,-0.498271,0.456819,-0.460662,-1.333509,-0.589368,-0.155768,75.867485,-61.25013,107.761566,0,0
18236,2024 8 08,15:42:41.365,-0.565524,-0.500682,0.461206,-0.465547,-1.319985,-0.615095,-0.147864,73.493484,-64.889153,96.951523,0,0
18237,2024 8 08,15:42:41.373,-0.556262,-0.503393,0.465381,-0.469612,-1.301001,-0.642903,-0.144235,69.718201,-67.296806,87.000893,0,0
18238,2024 8 08,15:42:41.381,-0.548335,-0.505915,0.468943,-0.472689,-1.25952,-0.652706,-0.144859,65.552429,-68.813599,79.785049,0,0
18239,2024 8 08,15:42:41.390,-0.545783,-0.506748,0.470111,-0.473607,-1.249779,-0.653335,-0.145865,64.18383,-69.532715,77.851944,0,0
18240,2024 8 08,15:42:41.398,-0.53853,-0.509213,0.473544,-0.475822,-1.242726,-0.642681,-0.147496,60.31889,-72.478073,74.495613,0,0
18241,2024 8 08,15:42:41.406,-0.530317,-0.511993,0.477566,-0.478027,-1.25422,-0.625302,-0.118702,57.126972,-74.217018,73.085434,0,0
18242,2024 8 08,15:42:41.415,-0.521963,-0.514604,0.481672,-0.480288,-1.236227,-0.600776,-0.089103,55.789429,-72.310959,74.288086,0,0
18243,2024 8 08,15:42:41.423,-0.513448,-0.516908,0.485827,-0.482796,-1.223011,-0.557618,-0.056408,56.315514,-69.92868,79.116333,0,0
18244,2024 8 08,15:42:41.431,-0.504683,-0.518744,0.489968,-0.485868,-1.228812,-0.51961,-0.019412,58.753418,-64.521889,86.577667,0,0
18245,2024 8 08,15:42:41.440,-0.496618,-0.51999,0.493555,-0.489218,-1.23893,-0.517076,0.020661,61.924553,-57.541756,92.86412,0,0
18246,2024 8 08,15:42:41.448,-0.493558,-0.520405,0.494854,-0.490579,-1.237852,-0.518818,0.031444,63.223259,-54.814278,94.668541,0,0
18247,2024 8 08,15:42:41.456,-0.486223,-0.521121,0.497592,-0.494342,-1.211918,-0.536833,0.03542,66.88755,-48.329124,95.359802,0,0
18248,2024 8 08,15:42:41.465,-0.477808,-0.52202,0.50025,-0.498878,-1.193117,-0.558121,0.043863,71.549866,-44.010277,91.357025,0,0
18249,2024 8 08,15:42:41.473,-0.469227,-0.523296,0.502321,-0.503575,-1.176436,-0.580516,0.0525,76.801414,-41.280724,83.538681,0,0
18250,2024 8 08,15:42:41.481,-0.460771,-0.525057,0.503629,-0.508221,-1.148451,-0.60585,0.05209,82.084106,-39.106129,74.085114,0,0
18251,2024 8 08,15:42:41.490,-0.453265,-0.527022,0.504199,-0.51237,-1.112216,-0.63753,0.056853,86.911766,-36.997925,65.779037,0,0
18252,2024 8 08,15:42:41.498,-0.450157,-0.527902,0.504338,-0.51409,-1.096778,-0.651085,0.058356,88.852196,-36.204792,62.41848,0,0
18253,2024 8 08,15:42:41.506,-0.443759,-0.530132,0.504022,-0.51764,-1.063549,-0.681683,0.059414,92.525269,-35.150345,55.88258,0,0
18254,2024 8 08,15:42:41.515,-0.433757,-0.534097,0.502919,-0.523131,-1.019408,-0.732063,0.065387,98.223518,-34.732166,45.307007,0,0
18255,2024 8 08,15:42:41.523,-0.426058,-0.537973,0.501216,-0.527106,-1.012401,-0.780631,0.085473,102.321587,-36.995644,35.506485,0,0
18256,2024 8 08,15:42:41.531,-0.418503,-0.542516,0.498968,-0.530621,-1.012714,-0.811798,0.105191,104.880661,-40.453518,25.476629,0,0
18257,2024 8 08,15:42:41.540,-0.411309,-0.547479,0.496046,-0.533877,-1.031244,-0.853228,0.078143,107.463638,-38.382381,15.499579,0,0
18258,2024 8 08,15:42:41.548,-0.410941,-0.547733,0.495897,-0.534043,-1.032191,-0.855346,0.07676,107.59568,-38.276501,14.989542,0,0
18259,2024 8 08,15:42:41.556,-0.404726,-0.552695,0.492484,-0.536821,-1.057878,-0.911229,0.074872,107.60424,-34.841839,4.785468,0,0
18260,2024 8 08,15:42:41.565,-0.398928,-0.558035,0.488191,-0.53955,-1.089134,-0.974537,0.041045,104.890724,-28.092442,-6.370689,0,0
18261,2024 8 08,15:42:41.573,-0.395229,-0.564874,0.483161,-0.539681,-1.47035,-1.45698,0.848872,79.958511,-51.342796,-62.327866,0,0
18262,2024 8 08,15:42:41.581,-0.39649,-0.57076,0.474988,-0.539815,-1.066131,-1.268782,-0.276272,73.170624,17.440735,-95.008125,0,0
18263,2024 8 08,15:42:41.590,-0.399722,-0.577012,0.466159,-0.538474,-1.014979,-0.773117,0.220414,45.027184,10.708067,-113.885605,0,0
18264,2024 8 08,15:42:41.598,-0.400135,-0.577812,0.465029,-0.538303,-1.008433,-0.709691,0.283971,41.425892,9.84654,-116.301208,1,0
18265,2024 8 08,15:42:41.606,-0.4051,-0.580359,0.458542,-0.537404,-1.50761,-0.26238,-0.183258,20.448709,38.93869,-101.179062,0,0
18266,2024 8 08,15:42:41.615,-0.410906,-0.581371,0.452308,-0.537183,-1.482101,-0.122637,-0.228854,1.823381,60.574265,-79.406273,0,0
18267,2024 8 08,15:42:41.623,-0.417203,-0.579994,0.446589,-0.538598,-1.357904,-0.199531,-0.013025,-12.322012,85.732666,-60.36982,0,0
18268,2024 8 08,15:42:41.631,-0.425699,-0.576185,0.440956,-0.540664,-1.035368,-0.031829,0.227484,-30.62368,112.647316,-61.806686,0,0
18269,2024 8 08,15:42:41.640,-0.433691,-0.572791,0.435497,-0.54234,-0.977886,-0.074956,0.13603,-25.531319,92.638176,-59.664429,0,0
18270,2024 8 08,15:42:41.648,-0.435236,-0.572135,0.434442,-0.542664,-0.966775,0.214026,0.064749,-24.547016,88.770607,-59.250351,0,0
18271,2024 8 08,15:42:41.656,-0.440118,-0.570274,0.430567,-0.543766,-1.009332,-0.10567,-0.054541,-12.71266,75.009682,-48.106419,0,0
18272,2024 8 08,15:42:41.665,-0.443825,-0.568769,0.426602,-0.545453,-1.040718,-0.11342,0.054717,5.036251,59.6409,-31.11936,0,0
18273,2024 8 08,15:42:41.673,-0.446174,-0.567555,0.422746,-0.547799,-1.022279,-0.146292,0.008361,15.478726,54.820869,-19.584747,0,0
18274,2024 8 08,15:42:41.681,-0.448326,-0.566327,0.419533,-0.549781,-1.0169,-0.08254,0.049685,8.017536,45.532204,-17.882168,0,0
18275,2024 8 08,15:42:41.690,-0.45032,-0.565458,0.417143,-0.550867,-0.998814,-0.05953,0.073137,3.073409,31.661564,-17.928642,0,0
18276,2024 8 08,15:42:41.698,-0.450817,-0.565241,0.416546,-0.551138,-0.994301,-0.053788,0.078989,1.839788,28.200668,-17.940237,0,0
18277,2024 8 08,15:42:41.706,-0.451954,-0.564975,0.414879,-0.551738,-1.061255,-0.114719,-0.050746,7.940783,25.078341,-15.848001,0,0
18278,2024 8 08,15:42:41.715,-0.453026,-0.564657,0.412973,-0.552612,-1.077692,-0.096054,-0.080038,8.50925,25.391987,-12.866282,0,0
18279,2024 8 08,15:42:41.723,-0.45389,-0.564194,0.411125,-0.553752,-1.105219,-0.071749,-0.040672,7.88104,25.260279,-9.257922,0,0
18280,2024 8 08,15:42:41.731,-0.454721,-0.563542,0.409243,-0.555127,-1.067494,-0.09556,-0.057809,10.50453,28.110386,-6.470467,0,0
18281,2024 8 08,15:42:41.740,-0.455478,-0.562823,0.407389,-0.556597,-1.069826,-0.078954,-0.001073,11.054086,28.342224,-5.106052,0,0
18282,2024 8 08,15:42:41.748,-0.455704,-0.562608,0.406836,-0.557036,-1.070522,-0.073998,0.015858,11.218079,28.411407,-4.698899,0,0
18283,2024 8 08,15:42:41.756,-0.456025,-0.562066,0.405296,-0.55844,-1.05939,-0.099175,0.002353,14.187678,28.766222,-2.280497,0,0
18284,2024 8 08,15:42:41.765,-0.456374,-0.561362,0.403604,-0.560086,-1.068117,-0.079664,0.004393,14.622963,27.722033,-1.027606,0,0
18285,2024 8 08,15:42:41.773,-0.456617,-0.560696,0.4018,-0.561848,-1.081693,-0.051525,0.028239,15.783214,27.550642,-0.870974,0,0
18286,2024 8 08,15:42:41.781,-0.456755,-0.560284,0.400606,-0.563002,-1.087011,-0.040468,0.040732,16.940172,28.001003,-0.933581,0,0
18287,2024 8 08,15:42:41.790,-0.456894,-0.559659,0.398361,-0.565099,-1.067817,-0.062415,0.047984,20.711992,31.540991,-1.822873,0,0
18288,2024 8 08,15:42:41.798,-0.457047,-0.559064,0.396253,-0.567043,-1.001328,-0.088939,0.064855,21.340799,32.676025,-1.889801,0,0
18289,2024 8 08,15:42:41.806,-0.457063,-0.55896,0.395907,-0.567374,-0.996584,-0.089363,0.070121,20.889664,32.03701,-1.679752,0,0
18290,2024 8 08,15:42:41.815,-0.457122,-0.55836,0.393939,-0.569284,-0.985443,-0.089459,0.088997,17.857943,26.833567,-0.015054,0,0
18291,2024 8 08,15:42:41.823,-0.457031,-0.557892,0.392347,-0.570914,-1.022441,-0.102482,0.032698,16.804045,20.376411,1.988037,0,0
18292,2024 8 08,15:42:41.831,-0.456879,-0.557533,0.391058,-0.572269,-1.049709,-0.076785,0.092179,12.765691,17.281322,1.601412,0,0
18293,2024 8 08,15:42:41.840,-0.456741,-0.557155,0.389891,-0.573542,-1.045959,-0.099562,0.011531,12.021865,15.52005,2.003373,0,0
18294,2024 8 08,15:42:41.848,-0.456679,-0.556862,0.389043,-0.574451,-1.057183,-0.080136,0.053235,10.076667,14.315031,1.201672,0,0
18295,2024 8 08,15:42:41.856,-0.456672,-0.55679,0.388834,-0.574668,-1.056194,-0.077723,0.056997,9.663443,13.984946,0.989012,0,0
18296,2024 8 08,15:42:41.865,-0.456666,-0.556522,0.388,-0.575495,-1.045402,-0.097265,0.003029,8.276745,12.231513,0.039602,0,0
18297,2024 8 08,15:42:41.873,-0.456658,-0.556392,0.387227,-0.576148,-1.066933,-0.058672,0.047024,7.442721,8.968157,-1.214878,0,0
18298,2024 8 08,15:42:41.881,-0.456672,-0.55679,0.388834,-0.574668,-1.071833,-0.076421,0.061455,7.483092,8.712635,-2.662563,0,0
18299,2024 8 08,15:42:41.890,-0.456787,-0.556313,0.385527,-0.57726,-1.054201,-0.091216,0.060606,7.258471,8.807281,-3.653254,0,0
18300,2024 8 08,15:42:41.898,-0.45696,-0.556313,0.384712,-0.577667,-1.049456,-0.104293,0.057156,6.206012,7.535013,-4.304013,0,0
18301,2024 8 08,15:42:41.906,-0.457139,-0.556361,0.384051,-0.577919,-1.046215,-0.087722,0.077063,5.334798,5.985016,-5.01772,0,0
18302,2024 8 08,15:42:41.915,-0.457199,-0.556375,0.383848,-0.577993,-1.046809,-0.138663,0.020367,4.998021,5.749419,-5.12715,0,0
18303,2024 8 08,15:42:41.923,-0.457402,-0.556408,0.38325,-0.578198,-1.052132,-0.096232,0.071518,3.940988,6.134775,-4.924335,0,0
18304,2024 8 08,15:42:41.931,-0.457648,-0.5564,0.382597,-0.578443,-1.03843,-0.095166,0.070798,4.216714,6.386194,-4.435246,0,0
18305,2024 8 08,15:42:41.940,-0.45787,-0.556392,0.382006,-0.578666,-1.038453,-0.107026,0.048222,3.72716,5.355351,-3.828507,0,0
18306,2024 8 08,15:42:41.948,-0.458072,-0.556357,0.381449,-0.578906,-1.034763,-0.077217,0.067762,3.23319,5.957033,-3.540581,0,0
18307,2024 8 08,15:42:41.956,-0.458176,-0.556382,0.38098,-0.579109,-1.044973,-0.117188,0.03499,3.234445,4.555812,-3.036468,0,0
18308,2024 8 08,15:42:41.965,-0.458216,-0.556387,0.380813,-0.579184,-1.047542,-0.105689,0.00125,3.259233,4.283367,-2.899794,0,0
18309,2024 8 08,15:42:41.973,-0.45833,-0.556376,0.380402,-0.579373,-1.04875,-0.102581,0.059915,3.408218,4.653803,-2.835887,0,0
18310,2024 8 08,15:42:41.981,-0.458488,-0.556364,0.379955,-0.579554,-1.050934,-0.085998,0.07434,3.191657,4.568712,-3.130969,0,0
18311,2024 8 08,15:42:41.990,-0.458665,-0.556362,0.37951,-0.579708,-1.0527,-0.089409,0.077592,2.09873,4.244123,-3.290521,0,0
18312,2024 8 08,15:42:41.998,-0.458862,-0.556401,0.379069,-0.579801,-1.046838,-0.103624,0.026618,2.328593,3.372451,-3.655489,0,0
18313,2024 8 08,15:42:42.006,-0.459063,-0.556464,0.37872,-0.57981,-1.042781,-0.09312,0.072814,1.76616,2.677336,-4.130544,0,0
18314,2024 8 08,15:42:42.015,-0.459145,-0.556491,0.378586,-0.579807,-1.040115,-0.118737,0.043781,1.502408,2.397178,-4.282635,0,0
18315,2024 8 08,15:42:42.023,-0.45933,-0.556568,0.378321,-0.57976,-1.031762,-0.088968,0.077577,0.829793,1.728537,-4.35027,0,0
18316,2024 8 08,15:42:42.031,-0.459509,-0.556697,0.378061,-0.579663,-1.039778,-0.070708,0.015721,0.735764,0.782147,-4.093892,0,0
18317,2024 8 08,15:42:42.040,-0.45973,-0.556844,0.377813,-0.579509,-1.041649,-0.104189,0.07526,0.434566,0.195175,-4.356572,0,0
18318,2024 8 08,15:42:42.048,-0.459974,-0.557038,0.377613,-0.579259,-1.048138,-0.109845,0.045649,-0.32512,-0.896266,-4.91533,0,0
18319,2024 8 08,15:42:42.056,-0.460367,-0.557317,0.377393,-0.578821,-1.04596,-0.077349,0.077298,-1.329039,-1.336747,-6.027268,0,0
18320,2024 8 08,15:42:42.065,-0.460373,-0.557321,0.37739,-0.578815,-1.045931,-0.091804,0.072754,-1.342381,-1.342601,-6.042046,0,0
18321,2024 8 08,15:42:42.073,-0.460671,-0.557542,0.377258,-0.57845,-1.054807,-0.086661,0.076494,-1.751557,-2.160367,-6.042462,0,0
18322,2024 8 08,15:42:42.081,-0.461015,-0.557765,0.377017,-0.578119,-1.051042,-0.091045,0.064225,-1.078545,-0.469111,-6.847964,0,0
18323,2024 8 08,15:42:42.090,-0.461372,-0.557988,0.376753,-0.577792,-1.049015,-0.118246,0.047025,-0.700343,-0.486918,-6.836793,0,0
18324,2024 8 08,15:42:42.098,-0.461733,-0.558176,0.376437,-0.577526,-1.040826,-0.095091,0.062308,-0.226805,0.350011,-6.612496,0,0
18325,2024 8 08,15:42:42.106,-0.462056,-0.558368,0.376151,-0.577269,-1.047196,-0.121042,0.050226,-0.462794,0.034118,-6.373472,0,0
18326,2024 8 08,15:42:42.115,-0.462087,-0.558387,0.376123,-0.577245,-1.047808,-0.088937,0.095348,-0.485475,0.003756,-6.350499,0,0
18327,2024 8 08,15:42:42.123,-0.462407,-0.558524,0.375751,-0.577098,-1.037161,-0.116068,0.054221,0.583375,1.660995,-6.562267,0,0
18328,2024 8 08,15:42:42.131,-0.462727,-0.558714,0.375393,-0.57689,-1.053206,-0.106911,0.066328,0.236871,0.804315,-6.27081,0,0
18329,2024 8 08,15:42:42.140,-0.46307,-0.558899,0.375032,-0.576671,-1.058669,-0.110686,0.061809,0.295207,1.159933,-6.54495,0,0
18330,2024 8 08,15:42:42.148,-0.463463,-0.559041,0.374615,-0.576488,-1.052049,-0.100691,-0.003467,0.149298,2.291317,-6.89305,0,0
18331,2024 8 08,15:42:42.156,-0.463896,-0.559119,0.3742,-0.576334,-1.02706,-0.114268,0.054361,-0.584046,2.619206,-6.74402,0,0
18332,2024 8 08,15:42:42.165,-0.463968,-0.559132,0.374131,-0.576308,-1.022909,-0.115866,0.053027,-0.70586,2.673671,-6.719265,0,0
18333,2024 8 08,15:42:42.173,-0.464305,-0.559229,0.373843,-0.576129,-1.065315,-0.102692,0.091577,-0.232684,1.99071,-6.418067,0,0
18334,2024 8 08,15:42:42.181,-0.464731,-0.559257,0.373356,-0.576074,-1.045111,-0.118595,0.031573,1.17474,4.158792,-6.410563,0,0
18335,2024 8 08,15:42:42.190,-0.465109,-0.559407,0.373005,-0.575851,-1.05232,-0.101242,0.000298,-0.380888,0.968239,-6.553807,0,0
18336,2024 8 08,15:42:42.198,-0.465491,-0.559561,0.372647,-0.575625,-1.049238,-0.105694,0.0662,-0.274132,1.117684,-6.869359,0,0
18337,2024 8 08,15:42:42.206,-0.465865,-0.55975,0.372295,-0.575366,-1.024469,-0.109665,0.106655,-0.251002,0.396921,-7.031869,0,0
18338,2024 8 08,15:42:42.215,-0.465949,-0.559792,0.372216,-0.575308,-1.01887,-0.110563,0.115799,-0.245774,0.233998,-7.068604,0,0
18339,2024 8 08,15:42:42.223,-0.466205,-0.560002,0.37189,-0.575107,-1.050643,-0.102685,0.085596,0.077155,-0.263892,-7.169158,0,0
18340,2024 8 08,15:42:42.231,-0.466543,-0.560256,0.371523,-0.574823,-1.045683,-0.110923,0.004766,0.428514,0.432096,-7.647902,0,0
18341,2024 8 08,15:42:42.240,-0.466869,-0.560558,0.371087,-0.574544,-1.051611,-0.113302,0.075982,1.190782,-0.469354,-8.038336,0,0
18342,2024 8 08,15:42:42.248,-0.467191,-0.560937,0.370673,-0.574181,-1.04677,-0.110804,0.09423,1.25692,-1.193212,-8.761742,0,0
18343,2024 8 08,15:42:42.256,-0.467514,-0.33683,0.565523,-0.590016,-1.058453,-0.11013,0.07493,1.4064,-2.134443,-9.395695,0,0
18344,2024 8 08,15:42:42.265,-0.467604,-0.561508,0.37009,-0.573662,-1.0617,-0.109943,0.069566,1.447947,-2.396048,-9.571895,0,0
18345,2024 8 08,15:42:42.273,-0.467888,-0.561891,0.369712,-0.573299,-1.058852,-0.109889,0.075928,1.416916,-1.870113,-10.223006,0,0
18346,2024 8 08,15:42:42.281,-0.468272,-0.56237,0.36928,-0.572794,-1.046811,-0.109534,0.079834,0.474113,-2.776643,-11.05086,0,0
18347,2024 8 08,15:42:42.290,-0.468655,-0.562923,0.36881,-0.57224,-1.051243,-0.111442,0.087057,1.029618,-3.1338,-11.46827,0,0
18348,2024 8 08,15:42:42.298,-0.469085,-0.563499,0.368296,-0.571651,-1.075206,-0.109706,0.085632,0.868918,-2.870311,-12.344765,0,0
18349,2024 8 08,15:42:42.306,-0.469606,-0.564054,0.367689,-0.571066,-1.068317,-0.127895,0.061183,0.941391,-1.677502,-13.443726,0,0
18350,2024 8 08,15:42:42.315,-0.469774,-0.564234,0.367493,-0.570877,-1.06609,-0.133776,0.053278,0.964823,-1.291852,-13.799034,0,0
18351,2024 8 08,15:42:42.323,-0.469953,-0.564398,0.367314,-0.570683,-1.068714,-0.132967,0.053345,0.665616,-1.223035,-14.171806,0,0
18352,2024 8 08,15:42:42.331,-0.470661,-0.564941,0.366697,-0.569959,-1.090424,-0.113786,0.073073,-1.173733,-1.737419,-15.612763,0,0
18353,2024 8 08,15:42:42.340,-0.471494,-0.56547,0.365948,-0.569226,-1.083697,-0.139512,0.04452,-0.741762,-0.538518,-17.161173,0,0
18354,2024 8 08,15:42:42.348,-0.472462,-0.56606,0.365268,-0.568273,-1.106681,-0.134534,0.076419,-2.766855,-2.716664,-19.035418,0,0
18355,2024 8 08,15:42:42.356,-0.473632,-0.566594,0.364514,-0.56725,-1.089438,-0.137155,0.084823,-4.445643,-0.28184,-21.008066,0,0
18356,2024 8 08,15:42:42.365,-0.47497,-0.567054,0.363628,-0.566239,-1.082464,-0.138955,0.083724,-4.946299,0.755329,-22.673384,0,0
18357,2024 8 08,15:42:42.373,-0.476194,-0.567524,0.362832,-0.56525,-1.089184,-0.144456,0.056078,-5.607981,-0.980521,-24.527849,0,0
18358,2024 8 08,15:42:42.381,-0.476494,-0.567643,0.362644,-0.564999,-1.092164,-0.145141,0.054,-5.705889,-1.088998,-24.912788,0,0
18359,2024 8 08,15:42:42.390,-0.477924,-0.568196,0.36179,-0.563782,-1.10649,-0.146154,0.060832,-6.341509,-0.731096,-26.665852,0,0
18360,2024 8 08,15:42:42.398,-0.479705,-0.56874,0.360821,-0.562339,-1.101111,-0.144368,0.085261,-8.678377,0.396756,-29.308678,0,0
18361,2024 8 08,15:42:42.406,-0.481696,-0.569165,0.359559,-0.561013,-1.090696,-0.138955,0.079168,-7.862404,4.87859,-31.000629,0,0
18362,2024 8 08,15:42:42.415,-0.483737,0.005459,0.615372,-0.622225,-1.097132,-0.140161,0.102364,-8.742518,0.902835,-34.052147,0,0
18363,2024 8 08,15:42:42.423,-0.485532,-0.570373,0.356976,-0.558121,-1.145713,-0.15727,0.10659,-5.570425,2.238592,-34.515423,0,0
18364,2024 8 08,15:42:42.431,-0.486076,-0.570563,0.356586,-0.557703,-1.150955,-0.293786,0.70817,-5.230835,2.40845,-35.101013,0,0
18365,2024 8 08,15:42:42.440,-0.488016,-0.571252,0.355132,-0.556228,-1.135298,-0.135079,0.096034,-6.127409,2.332024,-38.846817,0,0
18366,2024 8 08,15:42:42.448,-0.490236,-0.572143,0.353226,-0.554569,-1.148594,-0.155668,0.068489,-4.651341,2.75873,-42.287033,0,0
18367,2024 8 08,15:42:42.456,-0.492429,-0.573356,0.351226,-0.55264,-1.250705,-0.183624,0.067826,-1.246785,-1.218598,-44.393738,0,0
18368,2024 8 08,15:42:42.465,-0.49513,-0.574478,0.348947,-0.550498,-1.316344,-0.139428,0.088309,-5.748074,5.554276,-51.501408,0,0
18369,2024 8 08,15:42:42.473,-0.498082,-0.575122,0.346143,-0.548932,-1.291477,-0.155477,-0.01747,-6.873648,18.074474,-57.8419,0,0
18370,2024 8 08,15:42:42.481,-0.499154,-0.575353,0.345144,-0.548346,-1.295722,-0.16017,-0.030476,-7.187992,20.23785,-60.153336,0,0
18371,2024 8 08,15:42:42.490,-0.502508,-0.576034,0.342128,-0.546448,-1.353626,-0.163841,0.038204,-8.046591,17.587654,-67.470894,0,0
18372,2024 8 08,15:42:42.498,-0.506968,-0.576761,0.338212,-0.543984,-1.332717,-0.136315,0.082359,-10.611577,22.334696,-77.353729,0,0
18373,2024 8 08,15:42:42.506,-0.512072,-0.577615,0.333521,-0.541179,-1.31667,-0.129681,0.079001,-10.671436,23.819452,-87.740471,0,0
18374,2024 8 08,15:42:42.515,-0.517646,-0.578826,0.328304,-0.537751,-1.38282,-0.142215,0.066151,-10.654566,22.0856,-99.484467,0,0
18375,2024 8 08,15:42:42.523,-0.523151,-0.580129,0.323132,-0.534144,-1.430048,-0.138253,0.039565,-11.906623,22.840717,-111.419006,0,0
18376,2024 8 08,15:42:42.531,-0.525362,-0.580644,0.321039,-0.532686,-1.44805,-0.138292,0.029557,-12.492883,23.566767,-116.078201,0,0
18377,2024 8 08,15:42:42.540,-0.531146,-0.581942,0.315468,-0.528823,-1.49898,-0.145172,0.007319,-14.150721,27.520672,-127.512352,0,0
18378,2024 8 08,15:42:42.548,-0.538488,-0.583459,0.308202,-0.523954,-1.607746,-0.145041,-0.013743,-14.263099,33.037338,-141.378967,0,0
18379,2024 8 08,15:42:42.556,-0.546862,-0.584909,0.299458,-0.518673,-1.664806,-0.144265,-0.015971,-13.087666,44.995361,-156.095764,0,0
18380,2024 8 08,15:42:42.565,-0.556081,-0.586139,0.289044,-0.513324,-1.688228,-0.158354,-0.01905,-10.444344,58.982086,-171.293762,0,0
18381,2024 8 08,15:42:42.573,-0.564872,-0.587295,0.278411,-0.508264,-1.70756,-0.189588,-0.01146,-5.657168,65.975571,-185.084824,0,0
18382,2024 8 08,15:42:42.581,-0.568639,-0.587791,0.273737,-0.506084,-1.721623,-0.200766,-0.00814,-3.623389,69.08744,-190.705124,0,0
18383,2024 8 08,15:42:42.590,-0.579491,-0.589218,0.259419,-0.499711,-1.803432,-0.217225,0.001912,2.112826,78.87851,-204.837357,0,0
18384,2024 8 08,15:42:42.598,-0.589999,-0.590362,0.243841,-0.493869,-1.774552,-0.340825,-0.034916,8.120784,95.9151,-216.744217,0,0
18385,2024 8 08,15:42:42.606,-0.601018,-0.590841,0.22724,-0.487883,-1.588682,-0.394587,0.07425,4.345529,104.728439,-224.221695,0,1
18386,2024 8 08,15:42:42.615,-0.611979,-0.590927,0.210367,-0.481674,-1.56057,-0.493483,0.128568,4.682443,103.923103,-223.951813,0,0
18387,2024 8 08,15:42:42.623,-0.622639,-0.590578,0.193693,-0.475386,-1.527642,-0.493656,0.172366,1.666781,107.545517,-219.362488,0,0
18388,2024 8 08,15:42:42.631,-0.623298,-0.590556,0.192662,-0.474997,-1.525606,-0.493667,0.175074,1.480265,107.769562,-219.078644,0,0
18389,2024 8 08,15:42:42.640,-0.633108,-0.589164,0.17676,-0.469871,-1.28495,-0.482109,0.035689,-2.756876,119.955627,-213.333862,0,0
18390,2024 8 08,15:42:42.648,-0.64297,0.214362,0.722761,0.135056,-1.204965,-0.539379,0.029952,-3.076335,112.485794,-204.225525,0,0
18391,2024 8 08,15:42:42.656,-0.652507,-0.585228,0.144638,-0.459096,-1.012346,-0.555104,0.020297,-8.240581,114.162209,-194.229996,0,0
18392,2024 8 08,15:42:42.665,-0.661771,-0.582499,0.129947,-0.453665,-0.791028,-0.438816,-0.001683,-17.670321,102.630737,-185.691193,0,0
18393,2024 8 08,15:42:42.673,-0.67064,-0.579546,0.116571,-0.448023,-0.477782,-0.380089,-0.101149,-22.741636,93.301544,-174.424576,0,0
18394,2024 8 08,15:42:42.681,-0.671855,0.142439,0.695112,0.212466,-0.434857,-0.372041,-0.114778,-23.436563,92.023155,-172.880692,0,0
18395,2024 8 08,15:42:42.690,-0.679052,-0.57607,0.104647,-0.442769,0.167182,-0.081405,-0.315767,-31.983196,85.180984,-152.54068,0,0
18396,2024 8 08,15:42:42.698,-0.685743,-0.572369,0.097149,-0.438953,0.304817,0.156071,-0.500559,-45.518444,52.169315,-98.133148,0,0
18397,2024 8 08,15:42:42.706,-0.690916,-0.568737,0.095929,-0.435837,-0.469507,0.109153,-0.0071,-66.320671,6.212692,-45.442074,0,0
18398,2024 8 08,15:42:42.715,-0.695075,-0.563908,0.097658,-0.435118,-0.640221,0.435026,-0.066354,-77.121025,16.31448,-1.506485,0,0
18399,2024 8 08,15:42:42.723,-0.697369,-0.558304,0.100362,-0.438046,-0.704725,0.549397,0.090715,-66.254227,34.431583,41.157612,0,0
18400,2024 8 08,15:42:42.731,-0.69783,-0.557178,0.100906,-0.438635,-0.717694,0.572392,0.122295,-64.069382,38.074158,49.735535,0,0
18401,2024 8 08,15:42:42.740,-0.698026,-0.552252,0.102434,-0.444149,-0.533009,0.485806,0.110742,-47.959366,60.561562,67.904648,0,0
18402,2024 8 08,15:42:42.748,-0.69708,-0.547388,0.103687,-0.451296,-0.25281,0.447987,0.038481,-27.918423,59.285332,77.061539,0,0
18403,2024 8 08,15:42:42.756,-0.69492,-0.544224,0.10544,-0.457998,-0.161061,0.401898,0.008555,-8.178965,36.818581,78.932816,0,0
18404,2024 8 08,15:42:42.765,-0.691658,-0.543154,0.107939,-0.463593,-0.244928,0.357958,0.015684,10.53141,11.784645,77.595413,0,0
18405,2024 8 08,15:42:42.773,-0.687327,0.319264,0.632685,0.159253,-0.328992,0.312354,0.012747,28.59207,-6.16869,78.304214,0,0
18406,2024 8 08,15:42:42.781,-0.686218,-0.544104,0.111651,-0.469662,-0.350533,0.300669,0.011994,33.219917,-10.769034,78.485832,0,0
18407,2024 8 08,15:42:42.790,-0.681581,-0.546203,0.114293,-0.473315,-0.406076,0.235362,0.000837,46.772354,-19.056255,83.526741,0,0
18408,2024 8 08,15:42:42.798,-0.675142,0.343158,0.613947,0.222393,-0.452694,0.138895,-0.013043,60.039349,-27.696804,92.154861,0,0
18409,2024 8 08,15:42:42.806,-0.667416,-0.553835,0.121666,-0.48266,-0.499322,0.041967,-0.036645,69.946014,-35.179897,103.047348,0,0
18410,2024 8 08,15:42:42.815,-0.658646,-0.558665,0.126334,-0.48789,-0.580134,-0.04005,-0.045858,76.440506,-42.597603,114.312912,0,0
18411,2024 8 08,15:42:42.823,-0.649068,-0.563724,0.131598,-0.493461,-0.659898,-0.108339,-0.044197,79.550835,-46.488995,124.459557,0,0
18412,2024 8 08,15:42:42.831,-0.638938,-0.568736,0.137355,-0.499308,-0.737013,-0.169921,-0.033992,79.619362,-48.341995,132.521942,0,0
18413,2024 8 08,15:42:42.840,-0.63578,-0.570299,0.13915,-0.501131,-0.76105,-0.189117,-0.030811,79.640717,-48.919579,135.035004,0,0
18414,2024 8 08,15:42:42.848,-0.627526,-0.573988,0.144066,-0.50588,-0.822084,-0.236492,-0.014081,77.765015,-49.717667,139.642517,0,0
18415,2024 8 08,15:42:42.856,-0.617545,-0.578077,0.150287,-0.511622,-0.91553,-0.292762,0.004334,73.832642,-49.937393,144.911102,0,0
18416,2024 8 08,15:42:42.865,-0.611087,-0.580603,0.154364,-0.515378,-0.972822,-0.328293,0.014445,71.030388,-49.347935,148.40538,0,0
18417,2024 8 08,15:42:42.873,-0.600279,-0.584044,0.161515,-0.521954,-1.047353,-0.108444,0.047743,64.770256,-43.934521,154.725113,0,0
18418,2024 8 08,15:42:42.881,-0.589447,-0.586614,0.168921,-0.529021,-1.096845,-0.438642,0.00676,57.625095,-36.524231,160.845642,0,0
18419,2024 8 08,15:42:42.890,-0.580099,-0.588171,0.175514,-0.535463,-1.122465,-0.484011,0.005453,50.951931,-30.23702,165.138428,0,0
18420,2024 8 08,15:42:42.898,-0.578225,-0.588369,0.176873,-0.536811,-1.12284,-0.493427,4.8e-05,49.52581,-29.024569,165.669266,0,0
18421,2024 8 08,15:42:42.906,-0.568397,-0.589085,0.18413,-0.544017,-1.114105,-0.54064,-0.034534,41.939594,-23.339359,167.560806,0,0
18422,2024 8 08,15:42:42.915,-0.558263,-0.58926,0.191986,-0.551547,-1.102901,-0.570165,-0.041377,34.832523,-21.411457,168.059357,0,0
18423,2024 8 08,15:42:42.923,-0.548288,-0.58904,0.200055,-0.558869,-1.110869,-0.586675,-0.040622,29.570282,-21.972023,167.36142,0,0
18424,2024 8 08,15:42:42.931,-0.538414,-0.588647,0.208269,-0.565836,-1.133364,-0.581671,-0.024586,26.610668,-24.044907,165.817108,0,0
18425,2024 8 08,15:42:42.940,-0.529705,-0.455741,0.658215,-0.280112,-1.151073,-0.577776,-0.008393,26.980673,-25.894627,163.666595,0,0
18426,2024 8 08,15:42:42.948,-0.52737,-0.588216,0.217359,-0.573245,-1.15507,-0.57489,-0.003697,27.480648,-26.36685,162.943008,0,0
18427,2024 8 08,15:42:42.956,-0.518452,-0.588048,0.224308,-0.578825,-1.166514,-0.556707,0.013702,31.237406,-28.086397,159.458069,0,0
18428,2024 8 08,15:42:42.965,-0.508404,-0.588195,0.231502,-0.584716,-1.171041,-0.534221,0.019992,38.179085,-30.288795,154.192505,0,0
18429,2024 8 08,15:42:42.973,-0.497939,-0.588892,0.238178,-0.590308,-1.164729,-0.519384,0.012102,47.044167,-34.224041,147.602768,0,0
18430,2024 8 08,15:42:42.981,-0.487159,-0.590249,0.244182,-0.59547,-1.149857,-0.516267,-0.007356,56.478771,-38.871258,140.539673,0,0
18431,2024 8 08,15:42:42.990,-0.477296,-0.592037,0.249061,-0.599665,-1.14875,-0.512643,-0.01709,64.708389,-44.977325,134.654724,0,0
18432,2024 8 08,15:42:42.998,-0.474097,-0.592709,0.250546,-0.600935,-1.153118,-0.512447,-0.021155,67.24382,-46.86417,132.792114,0,0
18433,2024 8 08,15:42:43.006,-0.464301,-0.59523,0.254586,-0.60436,-1.185633,0.217983,-0.240638,74.207024,-51.949329,127.356804,0,0
18434,2024 8 08,15:42:43.015,-0.452991,-0.598538,0.258711,-0.607897,-1.21077,-0.517354,-0.048412,80.743713,-55.886597,121.536095,0,0
18435,2024 8 08,15:42:43.023,-0.441272,-0.602286,0.262479,-0.611183,-1.226145,-0.522359,-0.056334,85.616562,-58.427109,116.222839,0,0
18436,2024 8 08,15:42:43.031,-0.429453,-0.60625,0.265918,-0.614184,-1.230606,-0.538971,-0.057082,87.716675,-60.334335,112.220634,0,0
18437,2024 8 08,15:42:43.040,-0.418919,-0.609838,0.268831,-0.616654,-1.222909,-0.596407,-0.058207,87.210747,-61.036839,108.925385,0,0
18438,2024 8 08,15:42:43.048,-0.415098,-0.611153,0.269908,-0.617491,-1.227264,-0.621016,-0.058153,86.433548,-61.688026,107.792511,0,0
18439,2024 8 08,15:42:43.056,-0.405763,-0.614417,0.272689,-0.619213,-1.270778,-0.697057,-0.054744,81.059952,-64.453827,105.215042,0,0
18440,2024 8 08,15:42:43.065,-0.395564,-0.617852,0.27605,-0.620891,-1.298365,-0.761311,-0.047786,71.595963,-62.225616,101.331833,0,0
18441,2024 8 08,15:42:43.073,-0.385944,-0.610781,0.308597,-0.618678,-1.302413,-0.813497,-0.056278,59.462196,-58.142796,95.28463,0,0
18442,2024 8 08,15:42:43.081,-0.377464,-0.623369,0.283442,-0.623317,-1.275505,-0.837006,-0.049544,44.773796,-53.980198,87.167526,0,0
18443,2024 8 08,15:42:43.090,-0.370825,-0.625233,0.287087,-0.623783,-1.247636,-0.834246,-0.040228,30.036144,-52.35149,79.571182,0,0
18444,2024 8 08,15:42:43.098,-0.368302,-0.625932,0.288621,-0.623889,-1.235318,-0.830554,-0.035373,24.076874,-51.740532,76.619247,0,0
18445,2024 8 08,15:42:43.106,-0.363825,-0.62711,0.292312,-0.62361,-1.204573,-0.807959,-0.018528,11.363356,-51.03915,71.055031,0,0
18446,2024 8 08,15:42:43.115,-0.359455,-0.62824,0.297019,-0.622778,-1.180987,-0.774302,0.006366,-2.142099,-52.56575,65.942673,0,0
18447,2024 8 08,15:42:43.123,-0.355629,-0.629226,0.302421,-0.621374,-1.176079,-0.725812,0.046405,-14.26957,-54.575432,62.316856,0,0
18448,2024 8 08,15:42:43.131,-0.351117,-0.630346,0.310374,-0.618908,-1.178237,-0.656972,0.116476,-27.876343,-56.619774,57.483383,0,0
18449,2024 8 08,15:42:43.140,-0.348732,-0.630952,0.316499,-0.616533,-1.143513,-0.621543,0.136211,-34.079918,-55.628716,51.605011,0,0
18450,2024 8 08,15:42:43.148,-0.348673,-0.630967,0.316652,-0.616474,-1.142649,-0.620661,0.136702,-34.234295,-55.604053,51.458729,0,0
18451,2024 8 08,15:42:43.156,-0.346922,-0.631639,0.322499,-0.613734,-1.163858,-0.615547,0.139493,-39.089188,-58.893349,45.391949,0,0
18452,2024 8 08,15:42:43.165,-0.345745,-0.632281,0.328465,-0.610564,-1.167267,-0.619824,0.147833,-44.865906,-56.850925,38.469761,0,0
18453,2024 8 08,15:42:43.173,-0.34532,-0.632883,0.33439,-0.606953,-1.163011,-0.62325,0.185167,-52.372902,-57.834976,31.334335,0,0
18454,2024 8 08,15:42:43.181,-0.345649,-0.633444,0.34042,-0.602813,-1.20113,-0.57799,0.214252,-60.768017,-58.8535,24.958427,0,0
18455,2024 8 08,15:42:43.190,-0.346757,-0.63379,0.346502,-0.598329,-1.225174,-0.47613,0.25881,-68.852142,-55.951927,19.133083,0,0
18456,2024 8 08,15:42:43.198,-0.346874,-0.633827,0.347146,-0.597855,-1.227719,-0.465347,0.263527,-69.70787,-55.644787,18.516457,0,0
18457,2024 8 08,15:42:43.206,-0.348661,-0.659057,0.090195,-0.660204,-1.2153,-0.347479,0.302666,-73.995605,-47.394093,13.197021,0,0
18458,2024 8 08,15:42:43.215,-0.351227,-0.523665,0.434726,-0.642984,-1.192354,-0.244744,0.306915,-76.121208,-37.120293,8.218664,0,0
18459,2024 8 08,15:42:43.223,-0.354245,-0.631945,0.362557,-0.586258,-1.199013,-0.19554,0.243958,-75.338623,-25.349003,6.172963,0,0
18460,2024 8 08,15:42:43.231,-0.35767,-0.630165,0.366914,-0.583376,-1.1426,-0.110636,0.228232,-74.048119,-10.873941,4.740424,0,0
18461,2024 8 08,15:42:43.240,-0.361419,-0.62789,0.370722,-0.581108,-0.992653,-0.003464,0.191886,-71.826736,-1.368238,2.395283,0,0
18462,2024 8 08,15:42:43.248,-0.362073,-0.627493,0.371386,-0.580712,-0.966501,0.015227,0.185547,-71.439316,0.289604,1.986279,0,0
18463,2024 8 08,15:42:43.256,-0.365129,-0.625698,0.374386,-0.578802,-0.863304,0.105681,0.180065,-68.526611,-3.567674,0.784043,0,0
18464,2024 8 08,15:42:43.265,-0.368024,-0.624166,0.377948,-0.5763,-0.857889,0.167049,0.210344,-63.846893,-14.575081,2.291103,0,0
18465,2024 8 08,15:42:43.273,-0.370262,-0.622957,0.381724,-0.573679,-0.903795,0.205233,0.229926,-57.10685,-19.553728,6.613301,0,0
18466,2024 8 08,15:42:43.281,-0.371758,-0.621873,0.385549,-0.571326,-0.978591,0.205873,0.255272,-49.761013,-21.471466,12.63802,0,0
18467,2024 8 08,15:42:43.290,-0.372655,-0.620631,0.389201,-0.569614,-0.998701,0.17356,0.253488,-42.146873,-16.351902,18.837103,0,0
18468,2024 8 08,15:42:43.298,-0.373015,-0.619246,0.392669,-0.568505,-0.994544,0.113311,0.265606,-35.164513,-13.637484,24.521847,0,0
18469,2024 8 08,15:42:43.306,-0.373102,-0.618911,0.393508,-0.568237,-0.993537,-0.115755,0.085269,-33.473469,-12.980083,25.898624,0,0
18470,2024 8 08,15:42:43.315,-0.372927,-0.617606,0.396207,-0.567894,-0.981402,0.038523,0.234709,-29.49332,-9.844475,30.880123,0,0
18471,2024 8 08,15:42:43.323,-0.372375,-0.615996,0.399469,-0.567718,-1.019899,-0.025511,0.253337,-26.235565,-9.431046,36.088543,0,0
18472,2024 8 08,15:42:43.331,-0.3716,-0.61408,0.402792,-0.567953,-1.078428,-0.121853,0.242491,-23.647072,-4.217494,40.431416,0,0
18473,2024 8 08,15:42:43.340,-0.370938,-0.611679,0.40607,-0.56864,-1.084151,-0.242761,0.250632,-24.585136,3.529228,43.675034,0,0
18474,2024 8 08,15:42:43.348,-0.370699,-0.6087,0.409315,-0.569664,-1.038632,-0.375195,0.210273,-29.110161,11.623613,44.897865,0,0
18475,2024 8 08,15:42:43.356,-0.370629,-0.60783,0.410262,-0.569963,-1.02534,-0.413868,0.198488,-30.43152,13.987268,45.254948,0,0
18476,2024 8 08,15:42:43.365,-0.371039,-0.605058,0.413017,-0.570651,-0.980283,-0.522418,0.188896,-38.444397,15.537267,44.351986,0,0
18477,2024 8 08,15:42:43.373,-0.372127,-0.60151,0.416685,-0.571022,-0.950455,0.253557,0.083553,-50.397781,14.722857,42.700779,0,0
18478,2024 8 08,15:42:43.381,-0.373907,-0.597555,0.421044,-0.570806,-0.980945,-0.627481,0.191772,-62.889797,13.272198,40.698582,0,0
18479,2024 8 08,15:42:43.390,-0.376478,-0.593206,0.425807,-0.570112,-1.023362,-0.634641,0.22153,-74.163719,15.576935,37.242165,0,0
18480,2024 8 08,15:42:43.398,-0.37828,-0.590392,0.428813,-0.569608,-1.033845,-0.634835,0.237044,-80.678581,17.333103,34.423565,0,0
18481,2024 8 08,15:42:43.406,-0.381626,-0.58621,0.432916,-0.568596,-0.967734,0.159465,0.109586,-86.605766,21.219193,27.430416,0,0
18482,2024 8 08,15:42:43.415,-0.382305,-0.585509,0.433578,-0.568353,-0.954289,-0.608413,0.246585,-87.212036,21.290394,25.759743,0,0
18483,2024 8 08,15:42:43.423,-0.386856,-0.581104,0.437745,-0.566595,-1.151897,-0.660636,0.283457,-90.621506,19.81575,13.587643,0,0
18484,2024 8 08,15:42:43.431,-0.392796,-0.608711,0.312493,-0.614436,-2.557002,-0.972321,0.265184,-101.709808,16.397953,-11.526909,0,0
18485,2024 8 08,15:42:43.440,-0.403259,-0.575107,0.443059,-0.557047,-0.671653,0.29112,-0.139059,-151.103348,41.064854,-69.854126,0,0
18486,2024 8 08,15:42:43.448,-0.413002,-0.573712,0.444969,-0.549768,-1.3451,-0.013765,0.21878,-113.603317,-17.872528,-80.591202,0,0
18487,2024 8 08,15:42:43.456,-0.423103,-0.571491,0.447078,-0.54266,-1.543107,0.498059,-0.569207,-130.550827,19.162056,-83.633194,1,0
18488,2024 8 08,15:42:43.465,-0.425163,-0.57117,0.447399,-0.541127,-1.560864,0.513756,-0.639472,-128.143753,19.965063,-83.272446,0,0
18489,2024 8 08,15:42:43.473,-0.432547,-0.570578,0.447889,-0.535462,-1.507651,0.263994,-0.569684,-92.412079,4.194048,-76.975113,0,0
18490,2024 8 08,15:42:43.481,-0.437809,-0.570957,0.446072,-0.532295,-1.228255,0.061795,-0.421756,-22.443535,20.638233,-60.887924,0,0
18491,2024 8 08,15:42:43.490,-0.439817,-0.572358,0.442158,-0.532406,-1.040028,-0.211067,-0.044224,27.022633,23.893414,-40.820335,0,0
18492,2024 8 08,15:42:43.498,-0.440697,-0.573367,0.438207,-0.533859,-0.946546,-0.265723,0.173018,28.234808,28.927317,-25.452484,0,0
18493,2024 8 08,15:42:43.506,-0.441988,-0.573257,0.435581,-0.535059,-1.02789,-0.083209,0.145034,9.537367,31.654488,-18.8426,0,0
18494,2024 8 08,15:42:43.515,-0.44239,-0.573171,0.434866,-0.535402,-1.04774,-0.126313,0.020224,6.767895,31.946213,-17.549557,0,0
18495,2024 8 08,15:42:43.523,-0.443665,-0.572743,0.432734,-0.53653,-1.087121,-0.004321,-0.081007,10.941154,30.787176,-15.935008,0,0
18496,2024 8 08,15:42:43.531,-0.444307,-0.572731,0.429956,-0.538241,-1.078958,0.461586,0.038626,24.271839,29.984783,-13.042384,0,0
18497,2024 8 08,15:42:43.540,-0.444594,-0.572818,0.426981,-0.540276,-1.043746,-0.111666,-0.006106,27.61211,30.351557,-10.247154,0,0
18498,2024 8 08,15:42:43.548,-0.444901,-0.57271,0.42415,-0.542362,-1.031969,-0.08616,0.05619,25.428394,29.787556,-8.102553,0,0
18499,2024 8 08,15:42:43.556,-0.445048,-0.572614,0.421745,-0.544217,-1.004108,-0.112576,0.069642,27.131136,27.67959,-6.61646,0,0
18500,2024 8 08,15:42:43.565,-0.445072,-0.572595,0.420935,-0.544847,-0.996388,-0.118412,0.06939,27.317108,26.806219,-6.15525,0,0
18501,2024 8 08,15:42:43.573,-0.445011,-0.572586,0.418914,-0.54646,-0.991015,-0.115115,0.044289,25.291191,24.047869,-5.089977,0,0
18502,2024 8 08,15:42:43.581,-0.444983,-0.572405,0.416957,-0.548166,-1.020981,-0.088794,0.014756,19.437546,22.542509,-3.231044,0,0
18503,2024 8 08,15:42:43.590,-0.44497,-0.572077,0.415331,-0.549751,-1.038392,-0.051066,0.014881,14.668193,20.612194,-0.865009,0,0
18504,2024 8 08,15:42:43.598,-0.444896,-0.571788,0.413894,-0.551194,-1.041201,-0.08004,0.015225,13.044519,17.956062,-0.265523,0,0
18505,2024 8 08,15:42:43.606,-0.444839,-0.571495,0.412807,-0.552359,-1.049821,-0.052943,0.040647,12.751158,15.98361,1.408313,0,0
18506,2024 8 08,15:42:43.615,-0.444815,-0.571388,0.412417,-0.552781,-1.049261,-0.105013,-0.023654,12.347533,15.013549,1.792357,0,0
18507,2024 8 08,15:42:43.623,-0.44474,-0.571189,0.411703,-0.553578,-1.031583,-0.07624,0.008394,10.084899,11.938505,1.401819,0,0
18508,2024 8 08,15:42:43.631,-0.444579,-0.571029,0.410981,-0.554409,-1.031939,-0.05426,0.008357,8.847381,9.723197,1.408783,0,0
18509,2024 8 08,15:42:43.640,-0.444348,-0.570996,0.410281,-0.555146,-1.016581,-0.08505,0.011561,9.280328,7.436765,0.189644,0,0
18510,2024 8 08,15:42:43.648,-0.444114,-0.571036,0.40974,-0.555691,-1.040178,-0.073948,0.015017,7.691145,4.734856,0.242138,0,0
18511,2024 8 08,15:42:43.656,-0.443919,-0.571099,0.409313,-0.556097,-1.048284,-0.069551,-0.004529,5.768929,3.729997,-0.165401,0,0
18512,2024 8 08,15:42:43.665,-0.443823,-0.571131,0.409102,-0.556297,-1.052276,-0.067386,-0.014155,4.822345,3.23516,-0.366091,0,0
18513,2024 8 08,15:42:43.673,-0.443616,-0.571256,0.408746,-0.556595,-1.060926,-0.107743,-0.035301,5.782667,1.913658,0.114231,0,0
18514,2024 8 08,15:42:43.681,-0.443612,-0.57123,0.408513,-0.556795,-1.053493,-0.060674,0.059632,2.604281,3.075564,-0.528715,0,0
18515,2024 8 08,15:42:43.690,-0.443605,-0.571244,0.408251,-0.55698,-1.059324,-0.059848,0.001431,1.400279,2.703326,-1.0144,0,0
18516,2024 8 08,15:42:43.698,-0.443714,-0.57117,0.407985,-0.557163,-1.05729,-0.099011,0.005284,0.600113,3.604877,-1.150996,0,0
18517,2024 8 08,15:42:43.706,-0.443856,-0.571107,0.407727,-0.557304,-1.051741,-0.074254,0.018026,0.553044,3.544797,-1.837701,0,0
18518,2024 8 08,15:42:43.715,-0.443866,-0.571103,0.407708,-0.557314,-1.05134,-0.062942,-0.009379,0.54964,3.540452,-1.887375,0,0
18519,2024 8 08,15:42:43.723,-0.444115,-0.571002,0.407477,-0.557388,-1.060099,3.414058,0.27535,-0.165063,4.089627,-2.880805,0,0
18520,2024 8 08,15:42:43.731,-0.444449,-0.570907,0.407214,-0.557411,-1.057491,-0.067896,-0.001281,-1.427399,3.547509,-3.466081,0,0
18521,2024 8 08,15:42:43.740,-0.444786,-0.570819,0.406963,-0.557416,-1.065326,-0.094811,-0.001014,-1.29986,3.327201,-3.477396,0,0
18522,2024 8 08,15:42:43.748,-0.445207,-0.570698,0.406761,-0.557351,-1.061648,-0.079558,-0.006886,-2.443965,3.194732,-3.795082,0,0
18523,2024 8 08,15:42:43.756,-0.445697,-0.570544,0.406582,-0.557247,-1.055328,-0.077507,-0.003515,-3.377965,3.592999,-4.149862,0,0
18524,2024 8 08,15:42:43.765,-0.446231,-0.57036,0.406419,-0.557128,-1.052353,-0.067353,-0.007539,-4.130118,3.805079,-4.458241,0,0
18525,2024 8 08,15:42:43.773,-0.446315,-0.570331,0.406393,-0.557109,-1.051886,-0.065759,-0.008171,-4.248248,3.838388,-4.506674,0,0
18526,2024 8 08,15:42:43.781,-0.446764,-0.570176,0.406225,-0.55703,-1.057007,-0.077091,-0.005077,-3.468074,4.143984,-4.164803,0,0
18527,2024 8 08,15:42:43.790,-0.447275,-0.56999,0.405998,-0.556975,-1.060291,-0.084643,-0.004525,-3.03263,4.692179,-4.350605,0,0
18528,2024 8 08,15:42:43.798,-0.447828,-0.56976,0.40574,-0.556955,-1.062861,-0.086849,-0.006761,-3.291632,5.721838,-4.288196,0,0
18529,2024 8 08,15:42:43.806,-0.448425,-0.569481,0.405439,-0.556978,-1.05644,-0.08151,-0.002584,-3.391278,6.552428,-4.323926,0,0
18530,2024 8 08,15:42:43.815,-0.449061,-0.569142,0.405097,-0.557062,-1.05548,-0.08344,-0.013125,-3.31697,8.00963,-4.23628,0,0
18531,2024 8 08,15:42:43.823,-0.4492,-0.569067,0.405022,-0.55708,-1.055271,-0.083861,-0.015425,-3.300752,8.327666,-4.217151,0,0
18532,2024 8 08,15:42:43.831,-0.449754,-0.568731,0.404722,-0.557196,-1.057822,-0.083214,0.009301,-3.389889,8.678535,-4.305625,0,0
18533,2024 8 08,15:42:43.840,-0.450405,-0.56833,0.404355,-0.557345,-1.058426,-0.079759,0.016255,-3.502722,8.761593,-4.005508,0,0
18534,2024 8 08,15:42:43.848,-0.451048,-0.567964,0.403969,-0.557478,-1.048783,-0.07347,0.020502,-3.077134,8.102039,-4.067781,0,0
18535,2024 8 08,15:42:43.856,-0.451655,-0.567642,0.403565,-0.557607,-1.045255,-0.115523,0.047938,-2.431205,7.93429,-4.576498,0,0
18536,2024 8 08,15:42:43.865,-0.452239,-0.56736,0.403161,-0.557713,-1.055668,-0.084148,0.005805,-2.261425,7.402942,-4.665916,0,0
18537,2024 8 08,15:42:43.873,-0.452397,-0.567283,0.403051,-0.557742,-1.058491,-0.087186,0.004443,-2.215387,7.258861,-4.690163,0,0
18538,2024 8 08,15:42:43.881,-0.452851,-0.567088,0.402764,-0.55778,-1.056162,-0.088034,0.044599,-2.505683,6.179235,-4.61032,0,0
18539,2024 8 08,15:42:43.890,-0.453382,-0.566836,0.402379,-0.557882,-1.047954,-0.125621,0.021137,-1.946619,6.9827,-4.330405,0,0
18540,2024 8 08,15:42:43.898,-0.453933,-0.56659,0.402055,-0.557917,-1.064173,-0.105834,-0.003062,-2.459486,6.330122,-4.078375,0,0
18541,2024 8 08,15:42:43.906,-0.454542,-0.566334,0.401719,-0.557924,-1.046619,-0.097204,-0.004312,-3.075654,6.467877,-4.840211,0,0
18542,2024 8 08,15:42:43.915,-0.455195,-0.566058,0.401438,-0.557874,-1.043166,-0.083915,0.008235,-4.261703,6.303301,-5.159354,0,0
18543,2024 8 08,15:42:43.923,-0.455402,-0.565971,0.401348,-0.557858,-1.04207,-0.115182,0.042322,-4.638112,6.251071,-5.260638,0,0
18544,2024 8 08,15:42:43.931,-0.455934,-0.565771,0.401107,-0.5578,-1.050483,-0.084823,-0.001103,-4.516711,6.355896,-5.821189,0,0
18545,2024 8 08,15:42:43.940,-0.456293,-0.565639,0.400943,-0.557758,-1.055063,-0.129179,0.036244,-4.399152,6.359138,-6.083983,0,0
18546,2024 8 08,15:42:43.948,-0.456989,-0.565393,0.400617,-0.557672,-1.055653,-0.093441,0.029839,-4.078323,6.171386,-5.984164,0,0
18547,2024 8 08,15:42:43.956,-0.457721,-0.565104,0.400257,-0.557623,-1.045104,-0.089147,0.009544,-4.362549,6.783175,-5.910342,0,0
18548,2024 8 08,15:42:43.965,-0.458411,-0.564841,0.39996,-0.557536,-1.054773,-0.087016,0.027354,-4.646752,5.926171,-5.58336,0,0
18549,2024 8 08,15:42:43.973,-0.459046,-0.564616,0.399693,-0.557433,-1.056087,-0.08965,0.020074,-4.809657,5.977618,-6.351537,0,0
18550,2024 8 08,15:42:43.981,-0.459187,-0.564569,0.399633,-0.557406,-1.05654,-0.089649,0.018729,-4.835916,5.981129,-6.479671,0,0
18551,2024 8 08,15:42:43.990,-0.459909,-0.564345,0.399324,-0.55726,-1.059107,-0.08904,0.016258,-4.926054,5.899324,-6.982343,0,0
18552,2024 8 08,15:42:43.998,-0.460672,-0.564133,0.398987,-0.557086,-1.060973,-0.093784,0.032319,-4.769768,5.469585,-7.160696,0,0
18553,2024 8 08,15:42:44.006,-0.461442,-0.563929,0.398589,-0.55694,-1.06296,-0.101461,0.018651,-4.017745,5.881862,-7.375532,0,0
18554,2024 8 08,15:42:44.015,-0.462175,-0.563763,0.398194,-0.556783,-1.068071,-0.093335,0.017364,-3.823672,5.273061,-7.250954,0,0
18555,2024 8 08,15:42:44.023,-0.462818,-0.563627,0.397781,-0.556681,-1.057901,-0.104555,-0.00376,-2.849856,6.819202,-7.731431,0,0
18556,2024 8 08,15:42:44.031,-0.463,-0.563586,0.397663,-0.556655,-1.059685,-0.107492,-0.006212,-2.815647,7.053389,-7.834713,0,0
18557,2024 8 08,15:42:44.040,-0.463714,-0.563413,0.397214,-0.556557,-1.075525,-0.113801,0.00056,-3.738254,7.280482,-8.24239,0,0
18558,2024 8 08,15:42:44.048,-0.464671,-0.563149,0.396711,-0.556385,-1.047951,-0.097703,0.025086,-5.651027,7.969027,-9.462643,0,0
18559,2024 8 08,15:42:44.056,-0.465707,-0.562868,0.396202,-0.556165,-1.046429,-0.074959,0.021323,-6.207157,7.975809,-10.152011,0,0
18560,2024 8 08,15:42:44.065,-0.4667,-0.56266,0.395637,-0.555946,-1.050102,-0.093106,0.053924,-4.853056,7.416481,-10.569613,0,0
18561,2024 8 08,15:42:44.073,-0.467573,-0.562488,0.395063,-0.555795,-1.039454,-0.096324,0.042159,-3.668525,8.309906,-10.609599,0,0
18562,2024 8 08,15:42:44.081,-0.467847,-0.562435,0.394872,-0.555753,-1.037521,-0.100807,0.03788,-3.334509,8.409791,-10.546834,0,0
18563,2024 8 08,15:42:44.090,-0.468595,-0.562301,0.394306,-0.55566,-1.040981,-0.133017,0.005933,-2.768237,7.926733,-10.046545,0,0
18564,2024 8 08,15:42:44.098,-0.469449,-0.562143,0.393696,-0.555532,-1.053571,-0.11157,0.027924,-3.155876,8.048586,-9.698684,0,0
18565,2024 8 08,15:42:44.106,-0.470341,-0.561941,0.393036,-0.555449,-1.039008,-0.113253,0.018518,-3.308676,8.627013,-9.557521,0,0
18566,2024 8 08,15:42:44.115,-0.471241,-0.561676,0.39239,-0.555411,-1.023799,-0.072737,0.015217,-2.664823,9.28499,-8.819953,0,0
18567,2024 8 08,15:42:44.123,-0.472009,-0.561441,0.391853,-0.555376,-1.047658,-0.123097,-0.024263,-3.669334,8.245148,-8.167677,0,0
18568,2024 8 08,15:42:44.131,-0.472285,-0.561357,0.391658,-0.555365,-1.052329,-0.100348,0.028119,-3.690365,8.064664,-7.991899,0,0
18569,2024 8 08,15:42:44.140,-0.472918,-0.561169,0.391194,-0.555342,-1.045851,-0.090708,0.048015,-2.30653,8.431759,-7.930442,0,0
18570,2024 8 08,15:42:44.148,-0.473648,-0.560975,0.390644,-0.555303,-1.054005,-0.106957,0.040239,-2.403535,7.662066,-8.040246,0,0
18571,2024 8 08,15:42:44.156,-0.474339,-0.560824,0.390025,-0.5553,-1.039195,-0.115789,0.034804,-0.348893,7.867733,-7.917055,0,0
18572,2024 8 08,15:42:44.165,-0.474981,-0.560736,0.389423,-0.555264,-1.036029,-0.117602,0.053955,-0.440214,6.361136,-7.821255,0,0
18573,2024 8 08,15:42:44.173,-0.475519,-0.560688,0.388905,-0.555215,-1.049913,-0.116982,0.058833,-0.431281,5.763235,-7.647048,0,0
18574,2024 8 08,15:42:44.181,-0.475744,-0.560671,0.388689,-0.55519,-1.055132,-0.116477,0.059345,-0.467899,5.590438,-7.70028,0,0
18575,2024 8 08,15:42:44.190,-0.476255,-0.560654,0.388203,-0.555109,-1.060084,-0.116417,0.052085,-0.656221,5.646107,-8.448877,0,0
18576,2024 8 08,15:42:44.198,-0.476856,-0.560672,0.387606,-0.554992,-1.044777,-0.105378,0.053125,-0.402285,5.739871,-9.075366,0,0
18577,2024 8 08,15:42:44.206,-0.47774,-0.560718,0.38679,-0.554755,-1.037192,-0.097789,0.047848,-1.639634,4.161001,-9.70039,0,0
18578,2024 8 08,15:42:44.215,-0.478511,-0.560663,0.386195,-0.554561,-1.017561,-0.136085,0.027256,-2.781982,5.702707,-9.585107,0,0
18579,2024 8 08,15:42:44.223,-0.479276,-0.56062,0.385713,-0.554279,-1.059468,-0.124,0.067321,-3.629757,4.795368,-9.347448,0,0
18580,2024 8 08,15:42:44.231,-0.480127,-0.5605,0.385184,-0.554032,-1.044306,-0.127137,0.011215,-3.312968,6.152463,-9.68633,0,0
18581,2024 8 08,15:42:44.240,-0.48017,-0.560494,0.385157,-0.55402,-1.043542,-0.111445,0.009413,-3.297009,6.220828,-9.703402,0,0
18582,2024 8 08,15:42:44.248,-0.480823,-0.560527,0.384683,-0.553749,-1.096132,-0.13874,0.060974,-2.058775,3.41337,-9.592023,0,0
18583,2024 8 08,15:42:44.256,-0.481728,-0.560494,0.384143,-0.55337,-1.101982,-0.114734,0.045066,-4.401912,5.856638,-11.745314,0,0
18584,2024 8 08,15:42:44.265,-0.482787,-0.560414,0.383437,-0.553018,-1.089831,-0.122181,0.040128,-4.668571,6.95216,-13.743709,0,0
18585,2024 8 08,15:42:44.273,-0.483951,-0.56043,0.38265,-0.55253,-1.083404,-0.102684,0.056435,-4.588275,5.879426,-16.159443,0,0
18586,2024 8 08,15:42:44.281,-0.485101,-0.560661,0.381884,-0.551815,-1.11073,-0.120847,0.050662,-5.429522,2.778858,-18.298676,0,0
18587,2024 8 08,15:42:44.290,-0.485248,-0.560691,0.381786,-0.551724,-1.11421,-0.12316,0.049927,-5.53664,2.384055,-18.57107,0,0
18588,2024 8 08,15:42:44.298,-0.486545,-0.560853,0.381069,-0.550912,-1.100619,-0.150387,0.066796,-7.362432,4.450539,-21.351152,0,0
18589,2024 8 08,15:42:44.306,-0.488144,-0.561041,0.380212,-0.549897,-1.090816,-0.160606,0.0101,-8.504838,3.280371,-23.50499,0,0
18590,2024 8 08,15:42:44.315,-0.489897,-0.561376,0.379528,-0.548467,-1.114635,-0.16669,0.05861,-11.813737,0.168582,-26.1203,0,0
18591,2024 8 08,15:42:44.323,-0.491913,-0.561621,0.378728,-0.546961,-1.066195,-0.170921,0.010438,-12.731334,2.070964,-28.411091,0,0
18592,2024 8 08,15:42:44.331,-0.494032,-0.562062,0.378156,-0.54499,-1.098616,-0.162261,0.033869,-17.761877,-4.213207,-31.383575,0,0
18593,2024 8 08,15:42:44.340,-0.49444,-0.562147,0.378046,-0.54461,-1.104865,-0.160592,0.038386,-18.731522,-5.42449,-31.956528,0,0
18594,2024 8 08,15:42:44.348,-0.496495,-0.562414,0.377536,-0.542815,-1.114181,-0.177502,0.033169,-19.934179,-0.400002,-33.509953,0,0
18595,2024 8 08,15:42:44.356,-0.49923,-0.562483,0.376866,-0.540694,-1.091172,-0.189045,0.015023,-24.164993,1.519215,-35.874943,0,0
18596,2024 8 08,15:42:44.365,-0.502192,-0.562597,0.376301,-0.538219,-1.095417,-0.185996,0.043913,-26.693563,-1.421275,-37.84919,0,0
18597,2024 8 08,15:42:44.373,-0.505356,-0.562698,0.375713,-0.535555,-1.134467,-0.180855,0.048374,-28.433083,0.255114,-40.245949,0,0
18598,2024 8 08,15:42:44.381,-0.508803,-0.562715,0.374925,-0.532817,-1.125585,-0.182177,0.063325,-30.037994,2.027483,-43.652348,0,0
18599,2024 8 08,15:42:44.390,-0.509662,-0.562719,0.374728,-0.532135,-1.123373,-0.182507,0.067049,-30.437691,2.468885,-44.500698,0,0
18600,2024 8 08,15:42:44.398,-0.512453,-0.562826,0.373926,-0.529899,-1.166697,-0.195439,0.036247,-27.908886,1.824308,-44.986938,0,0
18601,2024 8 08,15:42:44.406,-0.515879,-0.56316,0.373079,-0.526803,-1.18881,-0.163599,0.052747,-32.439762,-2.007522,-50.099632,0,0
18602,2024 8 08,15:42:44.415,-0.519742,-0.563413,0.371787,-0.523637,-1.176388,-0.20126,0.041576,-29.889187,4.266822,-54.641838,0,0
18603,2024 8 08,15:42:44.423,-0.524055,-0.563513,0.370153,-0.520374,-1.137003,-0.187058,0.015308,-32.230438,6.987395,-58.684303,0,0
18604,2024 8 08,15:42:44.431,-0.52851,-0.563732,0.368268,-0.516953,-1.143311,-0.216372,0.040436,-31.843908,7.52127,-63.226887,0,0
18605,2024 8 08,15:42:44.440,-0.529838,-0.563798,0.367707,-0.515934,-1.145191,-0.225107,0.047925,-31.728722,7.680366,-64.580582,0,0
18606,2024 8 08,15:42:44.448,-0.53364,-0.563906,0.366007,-0.513091,-1.139088,-0.213421,0.067573,-31.651798,10.19105,-65.870529,0,0
18607,2024 8 08,15:42:44.456,-0.538226,-0.564168,0.363732,-0.509611,-1.111085,-0.2058,0.112697,-32.742455,9.366556,-70.485397,0,0
18608,2024 8 08,15:42:44.465,-0.542954,-0.564745,0.361231,-0.505714,-1.091334,-0.198131,0.121261,-27.985155,5.793583,-73.229309,0,0
18609,2024 8 08,15:42:44.473,-0.545915,-0.565204,0.359628,-0.503173,-1.091018,-0.189077,0.128515,-25.713402,3.249197,-75.356636,0,0
18610,2024 8 08,15:42:44.481,-0.550502,-0.566529,0.356871,-0.498625,-1.153275,-0.158913,0.146579,-25.227093,-1.885754,-81.12014,0,0
18611,2024 8 08,15:42:44.490,-0.554435,-0.567995,0.354165,-0.494519,-1.172727,-0.177605,0.140349,-19.242619,-3.250373,-86.786072,0,0
18612,2024 8 08,15:42:44.498,-0.55515,-0.29323,0.617211,-0.474197,-1.171268,-0.182541,0.138766,-18.360046,-3.08137,-87.556252,0,0
18613,2024 8 08,15:42:44.506,-0.559482,-0.570336,0.350084,-0.489005,-1.156192,-0.212799,0.12693,-13.778931,-2.021953,-92.239571,0,0
18614,2024 8 08,15:42:44.515,-0.564,-0.572769,0.345996,-0.483851,-1.147511,-0.234107,0.107682,-11.94531,-4.216453,-99.23774,0,0
18615,2024 8 08,15:42:44.523,-0.568556,-0.575642,0.341613,-0.478186,-1.176752,-0.258041,0.105904,-8.953239,-7.105482,-106.025208,0,0
18616,2024 8 08,15:42:44.531,-0.573255,-0.578771,0.336795,-0.472174,-1.197964,-0.299219,0.076021,-7.945143,-7.103669,-113.235138,0,0
18617,2024 8 08,15:42:44.540,-0.577523,-0.581736,0.33231,-0.466484,-1.217295,-0.334387,0.053207,-7.611022,-10.005461,-120.691055,0,0
18618,2024 8 08,15:42:44.548,-0.578624,-0.582505,0.331152,-0.464979,-1.215008,-0.341144,0.042287,-7.797458,-10.423336,-122.64962,0,0
18619,2024 8 08,15:42:44.556,-0.583358,-0.585798,0.326184,-0.458372,-1.192655,-0.36621,-0.011261,-9.645099,-11.437237,-130.871353,0,0
18620,2024 8 08,15:42:44.565,-0.58884,-0.589467,0.320533,-0.450566,-1.220567,-0.417448,-0.023945,-13.175474,-14.353315,-138.705139,0,0
18621,2024 8 08,15:42:44.573,-0.594747,-0.593297,0.314689,-0.441802,-1.1721,-0.475295,-0.084707,-18.691692,-18.35096,-148.265747,0,0
18622,2024 8 08,15:42:44.581,-0.601011,-0.597158,0.308894,-0.432095,-1.108733,-0.505856,-0.08635,-24.607632,-23.814768,-155.385162,0,0
18623,2024 8 08,15:42:44.590,-0.606657,-0.600477,0.303789,-0.423158,-1.130864,-0.549027,-0.049652,-27.895542,-24.305185,-157.191711,0,0
18624,2024 8 08,15:42:44.598,-0.608407,-0.601462,0.302236,-0.420364,-1.111843,-0.565198,-0.056246,-29.345413,-25.013241,-158.089157,0,0
18625,2024 8 08,15:42:44.606,-0.614106,-0.604484,0.297394,-0.411054,-0.965512,0.237352,0.110587,-35.210567,-30.347614,-161.222397,0,1
18626,2024 8 08,15:42:44.615,-0.620417,-0.607742,0.292711,-0.399958,-0.949847,-0.644063,-0.188007,-38.719444,-40.198814,-156.954514,0,0
18627,2024 8 08,15:42:44.623,-0.626722,-0.610685,0.288802,-0.388308,-0.921549,-0.595833,-0.199358,-48.340759,-46.721046,-150.634888,0,0
18628,2024 8 08,15:42:44.631,-0.632893,-0.613186,0.285562,-0.376574,-0.824615,-0.632738,-0.225408,-53.723167,-50.202248,-143.265228,0,0
18629,2024 8 08,15:42:44.640,-0.638303,-0.615028,0.283346,-0.365998,-0.703032,-0.696984,-0.275627,-58.721577,-56.530792,-135.046234,0,0
18630,2024 8 08,15:42:44.648,-0.640155,-0.61566,0.282775,-0.36216,-0.664345,-0.034449,-0.562387,-60.86269,-60.69154,-132.437683,0,0
18631,2024 8 08,15:42:44.656,-0.64471,-0.617251,0.282545,-0.351335,-0.597431,-0.819147,-0.336407,-68.566292,-81.879074,-127.123283,0,0
18632,2024 8 08,15:42:44.665,-0.649597,-0.619095,0.284102,-0.337494,-0.62102,-0.898644,-0.301048,-79.253059,-110.690338,-121.617874,0,0
18633,2024 8 08,15:42:44.673,-0.654362,-0.620671,0.287642,-0.321979,-0.70564,-0.827367,-0.244624,-92.319313,-133.152283,-113.942741,0,0
18634,2024 8 08,15:42:44.681,-0.658903,-0.621708,0.292748,-0.305653,-0.762909,-0.758277,-0.211697,-102.490326,-147.282837,-105.477165,0,0
18635,2024 8 08,15:42:44.690,-0.663343,-0.621799,0.299032,-0.289314,-0.681577,-0.691458,-0.282999,-113.611404,-151.129456,-91.841759,0,0
18636,2024 8 08,15:42:44.698,-0.667444,0.160652,0.672631,0.276171,-0.536487,-0.48364,-0.365993,-125.361237,-145.391052,-72.041153,0,0
18637,2024 8 08,15:42:44.706,-0.669106,-0.619939,0.308323,-0.269842,-0.506591,-0.397427,-0.373134,-130.037018,-141.502609,-62.158024,0,0
18638,2024 8 08,15:42:44.715,-0.67291,-0.616473,0.315399,-0.259897,-0.592198,-0.210953,-0.26011,-140.105637,-124.724068,-30.812714,0,0
18639,2024 8 08,15:42:44.723,-0.677475,-0.610677,0.32434,-0.250468,-0.698884,-0.125745,-0.186563,-151.081543,-107.872437,-1.40538,0,0
18640,2024 8 08,15:42:44.731,-0.682547,-0.602995,0.334308,-0.241992,-0.731249,-0.054522,-0.125919,-163.239975,-97.74353,19.247707,0,0
18641,2024 8 08,15:42:44.740,-0.687913,-0.593841,0.344964,-0.234285,-0.683138,0.083853,-0.093486,-173.220627,-91.289772,35.681038,0,0
18642,2024 8 08,15:42:44.748,-0.695113,-0.579972,0.360391,-0.224855,-0.792564,0.247901,0.104878,-178.822113,-87.0298,57.580132,0,0
18643,2024 8 08,15:42:44.756,-0.695203,-0.579798,0.360583,-0.224737,-0.79393,0.249949,0.107354,-178.892044,-86.976616,57.853519,0,0
18644,2024 8 08,15:42:44.765,-0.699993,-0.569029,0.371519,-0.219493,-0.787889,0.246264,0.086848,-172.873917,-75.519547,63.062782,0,0
18645,2024 8 08,15:42:44.773,-0.704545,-0.557958,0.38231,-0.214758,-0.764143,0.258088,0.144034,-166.058365,-70.664833,66.10183,0,0
18646,2024 8 08,15:42:44.781,-0.708653,-0.54702,0.392734,-0.210521,-0.723328,0.237867,0.156302,-159.323456,-67.103195,68.370674,0,0
18647,2024 8 08,15:42:44.790,-0.712245,-0.536249,0.403037,-0.206592,-0.6856,0.200225,0.133889,-153.3759,-68.589661,70.988632,0,0
18648,2024 8 08,15:42:44.798,-0.715146,-0.525673,0.413695,-0.202635,-0.721295,0.165362,0.152326,-148.309097,-75.878998,74.016357,0,0
18649,2024 8 08,15:42:44.806,-0.715423,-0.524664,0.414712,-0.202257,-0.724701,0.162035,0.154085,-147.825531,-76.574669,74.305313,0,0
18650,2024 8 08,15:42:44.815,-0.717488,-0.515123,0.424634,-0.198788,-0.749085,0.147095,0.154275,-145.521927,-80.187691,78.571304,0,0
18651,2024 8 08,15:42:44.823,-0.719239,-0.50453,0.435899,-0.195176,-0.788815,0.142763,0.168258,-143.870575,-84.851532,85.269936,0,0
18652,2024 8 08,15:42:44.831,-0.720556,-0.493494,0.447675,-0.191828,-0.817008,0.125915,0.174692,-143.652756,-87.605438,93.091377,0,0
18653,2024 8 08,15:42:44.840,-0.721421,-0.482039,0.459884,-0.188771,-0.823934,0.106204,0.174792,-144.187729,-91.500542,101.316315,0,0
18654,2024 8 08,15:42:44.848,-0.721858,-0.470063,0.472592,-0.185864,-0.86971,0.081617,0.186186,-146.759628,-95.760353,108.937965,0,0
18655,2024 8 08,15:42:44.856,-0.72193,-0.46808,0.474695,-0.185382,-0.877287,0.077547,0.188073,-147.185364,-96.465492,110.199593,0,0
18656,2024 8 08,15:42:44.865,-0.721872,-0.457422,0.485923,-0.182989,-0.96298,0.064552,0.208207,-148.200943,-100.203522,114.976242,0,0
18657,2024 8 08,15:42:44.873,-0.721603,-0.444876,0.498766,-0.180316,-1.022373,0.066039,0.22917,-150.247864,-99.825455,118.360229,0,0
18658,2024 8 08,15:42:44.881,-0.72115,-0.4317,0.51178,-0.177612,-1.049501,0.057062,0.252216,-152.243423,-99.509735,120.232552,0,0
18659,2024 8 08,15:42:44.890,-0.720468,-0.418189,0.524747,-0.174809,-1.091723,0.033084,0.265749,-153.513809,-100.112061,121.096039,0,0
18660,2024 8 08,15:42:44.898,-0.719582,-0.404364,0.537584,-0.171925,-1.130619,0.021872,0.252847,-155.013046,-99.818336,122.318924,0,0
18661,2024 8 08,15:42:44.906,-0.719382,-0.401246,0.54048,-0.171275,-1.139392,0.019343,0.249938,-155.351196,-99.752083,122.594742,0,0
18662,2024 8 08,15:42:44.915,-0.718483,-0.389581,0.550821,-0.168859,-1.154695,-1.3e-05,0.232699,-157.591919,-98.724838,123.809128,0,0
18663,2024 8 08,15:42:44.923,-0.717363,-0.375576,0.562734,-0.165891,-1.156606,-0.028364,0.214318,-161.773743,-97.656464,124.650421,0,0
18664,2024 8 08,15:42:44.931,-0.716005,-0.360736,0.574993,-0.162525,-1.173621,-0.059958,0.197459,-166.243423,-100.082092,124.683105,0,0
18665,2024 8 08,15:42:44.940,-0.714354,-0.345398,0.587388,-0.158664,-1.196891,-0.067138,0.192704,-171.273422,-103.424026,124.114326,0,0
18666,2024 8 08,15:42:44.948,-0.712362,-0.329712,0.599835,-0.154293,-1.247768,-0.077151,0.210743,-176.228485,-107.221916,122.775673,0,0
18667,2024 8 08,15:42:44.956,-0.71181,-0.325359,0.603289,-0.153079,-1.261887,-0.079929,0.215748,-177.603546,-108.275864,122.40419,0,0
18668,2024 8 08,15:42:44.965,-0.710006,0.297337,0.596559,0.227156,-1.305762,-0.074883,0.233665,-180.743942,-108.190346,120.623672,0,0
18669,2024 8 08,15:42:44.973,-0.70782,0.069942,0.686124,0.152751,-1.345131,-0.081217,0.271195,-183.830795,-106.211868,116.789139,0,0
18670,2024 8 08,15:42:44.981,-0.705566,-0.28152,0.635188,-0.138591,-1.36202,-0.084468,0.30803,-185.473907,-102.634018,110.930458,0,0
18671,2024 8 08,15:42:44.990,-0.703273,-0.265601,0.645787,-0.132478,-1.364902,-0.08547,0.345656,-186.520935,-99.743546,103.928879,0,0
18672,2024 8 08,15:42:44.998,-0.700927,-0.249901,0.655816,-0.126003,-1.353641,-0.110786,0.362142,-185.618073,-96.898384,97.565315,0,0
18673,2024 8 08,15:42:45.006,-0.700169,-0.244831,0.659055,-0.123912,-1.350005,-0.118961,0.367466,-185.326508,-95.979584,95.5103,0,0
18674,2024 8 08,15:42:45.015,-0.699453,-0.240227,0.661922,-0.121941,-1.347283,-0.127013,0.374168,-184.870728,-95.204399,93.901169,0,0
18675,2024 8 08,15:42:45.023,-0.696976,-0.225003,0.671037,-0.11513,-1.335038,-0.153527,0.399214,-182.617752,-92.421753,89.99099,0,0
18676,2024 8 08,15:42:45.031,-0.694497,-0.209801,0.679606,-0.108331,-1.292801,-0.162067,0.400195,-180.476273,-87.55809,89.027473,0,0
18677,2024 8 08,15:42:45.040,-0.691815,-0.194573,0.687837,-0.101747,-1.282003,-0.159998,0.427908,-178.33876,-86.978706,91.217613,0,0
18678,2024 8 08,15:42:45.048,-0.689006,-0.179277,0.69566,-0.095514,-1.281253,-0.15505,0.444013,-174.925858,-83.12886,93.888931,0,0
18679,2024 8 08,15:42:45.056,-0.686479,-0.165977,0.702138,-0.090403,-1.312292,-0.171437,0.455557,-170.040024,-80.546051,95.277626,0,0
18680,2024 8 08,15:42:45.065,-0.685941,-0.163074,0.703475,-0.089319,-1.317906,-0.174642,0.456584,-168.907364,-79.047905,95.154694,0,0
18681,2024 8 08,15:42:45.073,-0.683473,-0.149333,0.709503,-0.0843,-1.341389,-0.193339,0.455425,-163.071655,-69.326599,93.222374,0,0
18682,2024 8 08,15:42:45.081,-0.681281,-0.135139,0.715008,-0.079309,-1.364204,-0.242416,0.435654,-155.074326,-57.104912,89.647133,0,0
18683,2024 8 08,15:42:45.090,-0.679853,-0.121445,0.719312,-0.074681,-1.362545,-0.298412,0.388754,-146.992828,-38.865097,85.249969,0,0
18684,2024 8 08,15:42:45.098,-0.67943,-0.108442,0.722232,-0.070264,-1.244949,-0.333592,0.372619,-140.018311,-20.062754,77.724693,0,0
18685,2024 8 08,15:42:45.106,-0.679536,-0.097696,0.724049,-0.06638,-1.098341,-0.341375,0.327096,-132.1595,-12.738943,68.760834,0,0
18686,2024 8 08,15:42:45.115,-0.679526,-0.094826,0.724549,-0.065274,-1.070709,-0.342994,0.326667,-130.1297,-12.348628,66.329468,0,0
18687,2024 8 08,15:42:45.123,-0.679289,-0.085402,0.726273,-0.061342,-1.031037,-0.145141,-0.037488,-123.073288,-17.187346,58.483273,0,0
18688,2024 8 08,15:42:45.131,-0.678737,-0.075826,0.728182,-0.057231,-1.02406,-0.340558,0.387761,-111.307434,-20.448479,52.655003,0,0
18689,2024 8 08,15:42:45.140,-0.677994,-0.067051,0.730009,-0.053636,-1.054313,-0.327111,0.420609,-97.110054,-20.698671,49.304955,0,0
18690,2024 8 08,15:42:45.148,-0.677375,-0.059381,0.731451,-0.050872,-1.088008,-0.326847,0.43515,-80.299622,-15.253025,45.720024,0,0
18691,2024 8 08,15:42:45.156,-0.677121,-0.053034,0.732306,-0.048998,-1.104745,-0.358781,0.423608,-61.725922,-7.437649,40.430595,0,0
18692,2024 8 08,15:42:45.165,-0.677283,-0.048499,0.732547,-0.047956,-1.076586,-0.394046,0.377645,-44.927574,1.301904,34.028587,0,0
18693,2024 8 08,15:42:45.173,-0.677392,-0.047168,0.732555,-0.047688,-1.064303,-0.40761,0.363013,-39.468727,3.886088,31.598677,0,0
18694,2024 8 08,15:42:45.181,-0.677961,-0.044676,0.732205,-0.04739,-1.111175,-0.483982,0.300436,-25.886116,8.491672,23.52202,0,0
18695,2024 8 08,15:42:45.190,-0.678646,-0.043228,0.731684,-0.046961,-1.588984,-0.725961,0.141292,-14.789482,9.048983,8.717268,0,0
18696,2024 8 08,15:42:45.198,-0.679109,-0.044,0.731371,-0.044329,-1.132053,-0.751932,0.363146,-18.267138,8.491292,-31.101805,0,0
18697,2024 8 08,15:42:45.206,-0.680872,-0.046414,0.729781,-0.040807,-0.934725,-0.868304,-0.063558,-6.443537,18.4566,-50.163773,0,0
18698,2024 8 08,15:42:45.215,-0.681739,-0.048336,0.729081,-0.036377,-1.199695,-0.140361,0.056693,-28.359283,13.152325,-52.239643,1,0
18699,2024 8 08,15:42:45.223,-0.682116,-0.049035,0.728763,-0.034798,-1.276953,0.049338,0.067382,-32.867107,12.859769,-51.874008,0,0
18700,2024 8 08,15:42:45.231,-0.683294,-0.050447,0.727698,-0.031784,-1.314752,0.015974,-0.103974,-23.58765,20.724352,-45.124615,0,0
18701,2024 8 08,15:42:45.240,-0.685062,-0.051834,0.726059,-0.028805,-1.242781,-0.098677,-0.323607,-15.777122,27.009449,-38.966427,0,0
