frame,date,time,quaternion_x_left,quaternion_y_left,quaternion_z_left,quaternion_w_left,accel_x_left,accel_y_left,accel_z_left,gyro_x_left,gyro_y_left,gyro_z_left,HS_left,TO_left,filtered_quaternion_x_left,filtered_quaternion_y_left,filtered_quaternion_z_left,filtered_quaternion_w_left,filtered_accel_x_left,filtered_accel_y_left,filtered_accel_z_left,filtered_gyro_x_left,filtered_gyro_y_left,filtered_gyro_z_left,quaternion_x_right,quaternion_y_right,quaternion_z_right,quaternion_w_right,accel_x_right,accel_y_right,accel_z_right,gyro_x_right,gyro_y_right,gyro_z_right,HS_right,TO_right,filtered_quaternion_x_right,filtered_quaternion_y_right,filtered_quaternion_z_right,filtered_quaternion_w_right,filtered_accel_x_right,filtered_accel_y_right,filtered_accel_z_right,filtered_gyro_x_right,filtered_gyro_y_right,filtered_gyro_z_right
21160,2024 10 23,05:27:06.317,-0.336145,-0.659334,0.221435,-0.635021,-1.046907,0.096683,-0.064455,22.094727,3.051758,69.091797,0,0,-0.336145,-0.659334,0.221435,-0.635021,-1.046907,0.096683,-0.064455,22.094727,3.051758,69.091797,-0.635171,0.388768,0.611534,0.267287,-1.903867,0.257332,0.437025,20.385742,-147.827148,189.51416,0,0,-0.635171,0.388768,0.611534,0.267287,-1.903867,0.257332,0.437025,20.385742,-147.827148,189.51416
21161,2024 10 23,05:27:06.326,-0.338537,-0.661373,0.216405,-0.633362,-1.034211,0.075686,-0.050783,22.033691,1.89209,66.955566,0,0,-0.3362646,-0.65943595,0.2211834999999999,-0.6349380499999999,-1.0462722,0.09563315,-0.0637713999999999,22.0916752,2.9937746,68.98498545,-0.633004,0.400212,0.613778,0.249827,-1.933653,0.126957,0.428724,39.978027,-147.521973,192.321777,0,0,-0.63506265,0.3893401999999999,0.6116462,0.266414,-1.9053563,0.25081325,0.4366099499999999,21.36535625,-147.81188924999998,189.65454085
21162,2024 10 23,05:27:06.334,-0.34084,-0.663307,0.211573,-0.631735,-1.027863,0.051759,-0.052248,20.812988,2.075195,64.51416,0,0,-0.33649337,-0.6596295025,0.2207029749999999,-0.6347778974999999,-1.04535174,0.0934394425,-0.0631952299999999,22.02774084,2.9478456199999994,68.7614441775,-0.631496,0.410694,0.615697,0.231216,-1.9859,-0.061525,0.423353,57.556152,-141.357422,198.608398,0,0,-0.6348843175,0.39040789,0.61184874,0.2646540999999999,-1.9093834849999995,0.2351963374999999,0.4359471024999999,23.1748960375,-147.48916588749995,190.1022337075
21163,2024 10 23,05:27:06.342,-0.343039,-0.66513,0.206982,-0.630146,-1.026887,0.034669,-0.047853,19.40918,2.197266,61.584473,0,0,-0.3368206514999999,-0.6599045273749999,0.2200169262499999,-0.6345463026249999,-1.044428503,0.0905009203749999,-0.0624281184999999,21.896812798,2.9103166389999995,68.402595618625,-0.630653,0.420049,0.617134,0.21209,-1.998108,-0.314951,0.375988,69.824219,-132.202148,197.875977,0,0,-0.634672751625,0.3918899454999999,0.6121130029999999,0.2620258949999999,-1.9138197107499997,0.2076889706249999,0.4329491473749999,25.507362185625,-146.72481499312494,190.490920872125
21164,2024 10 23,05:27:06.351,-0.345143,-0.666852,0.20264,-0.628587,-1.010285,0.01709,-0.04004,17.944336,2.563477,58.776855,0,0,-0.3372367689249999,-0.6602519010062499,0.2191480799374999,-0.6342483374937499,-1.04272132785,0.0868303743562499,-0.0613087125749999,21.6991889581,2.8929746570499995,67.92130858769376,-0.630143,0.42807,0.618334,0.193235,-1.939512,-0.660176,0.296396,76.599121,-123.779297,188.110352,0,0,-0.63444626404375,0.3936989482249999,0.6124240528499999,0.2585863502499999,-1.9151043252124995,0.1642957220937499,0.4261214900062499,28.061950126343746,-145.5775390934687,190.37189242851875
21165,2024 10 23,05:27:06.359,-0.345143,-0.666852,0.20264,-0.628587,-1.010285,0.01709,-0.04004,17.944336,2.563477,58.776855,0,0,-0.3376320804787499,-0.6605819059559374,0.2183226759406249,-0.6339652706190624,-1.0410995114575,0.0833433556384374,-0.0602452769462499,21.511446310195,2.8764997741975,67.46408590830907,-0.6294,0.434844,0.619695,0.175345,-1.864315,-0.993683,0.249519,76.477051,-120.361328,171.386719,0,0,-0.6341939508415625,0.3957562008137499,0.6127876002074999,0.2544242827374999,-1.9125648589518744,0.1063967859890624,0.4172913655059374,30.48270517002656,-144.31672853879525,189.42263375709285
21166,2024 10 23,05:27:06.367,-0.347171,-0.668536,0.198562,-0.62698,-1.003449,-0.001953,-0.041993,16.357422,4.211426,56.640625,0,0,-0.3381090264548124,-0.6609796106581405,0.2173346421435937,-0.6336160070881092,-1.039216985884625,0.0790785378565155,-0.0593326630989374,21.25374509468525,2.9432460854876243,66.92291286289361,-0.6294,0.434844,0.619695,0.175345,-1.864315,-0.993683,0.249519,76.477051,-120.361328,171.386719,0,0,-0.6339542532994843,0.3977105907730623,0.6131329701971249,0.2504703186006248,-1.9101523660042805,0.0513927966896093,0.4089027472306406,32.78242246152523,-143.11895851185548,188.5208380192382
21167,2024 10 23,05:27:06.376,-0.349171,-0.670203,0.194758,-0.625281,-1.028352,-0.025391,-0.057131,14.160156,5.859375,54.870605,0,0,-0.3386621251320718,-0.6614407801252334,0.2162058100364139,-0.6331992567337037,-1.0386737365903935,0.0738550609636898,-0.0592225799439906,20.899065639950987,3.089052531213243,66.32029746974894,-0.627961,0.440661,0.621474,0.158912,-1.819391,-1.277383,0.338878,69.702148,-119.018555,151.977539,0,0,-0.63365459063451,0.3998581112344092,0.6135500216872686,0.2458924026705936,-1.9056142977040664,-0.0150459931448711,0.4054015098691085,34.62840873844897,-141.9139383362627,186.6936730682763
21168,2024 10 23,05:27:06.384,-0.351207,-0.671669,0.191229,-0.623655,-1.053743,-0.06592,-0.074221,10.864258,3.601074,52.185059,0,0,-0.3392893688754682,-0.6619521911189717,0.2149569695345932,-0.6327220438970185,-1.039427199760874,0.0668663079155053,-0.059972500946791,20.39732525795344,3.114653604652581,65.61353554626149,-0.626007,0.445615,0.623459,0.144366,-1.734428,-1.473678,0.533219,58.898926,-111.999512,131.347656,0,0,-0.6332722111027844,0.4021459556726888,0.6140454706029052,0.2408160825370639,-1.897054982818863,-0.0879775934876276,0.4117923843756531,35.84193460152652,-140.41821701944954,183.92637221486245
21169,2024 10 23,05:27:06.392,-0.353297,-0.672726,0.187878,-0.622353,-1.052767,-0.128422,-0.059572,8.850098,-1.220703,49.743652,0,0,-0.3399897504316948,-0.662490881563023,0.2136030210578636,-0.6322035917021676,-1.0400941897728302,0.05710189251973,-0.0599524758994515,19.819963895055764,2.8978857744199518,64.82004136894841,-0.623714,0.44959,0.625677,0.131827,-1.694876,-1.720267,0.8052,51.147461,-106.201172,108.459473,0,0,-0.6327943005476452,0.4045181578890543,0.6146270470727598,0.2353666284102107,-1.88694603367792,-0.1695920638132462,0.4314627651568705,36.60721092145019,-138.70736476847705,180.1530272541193
21170,2024 10 23,05:27:06.401,-0.355453,-0.673495,0.184618,-0.621268,-1.047395,-0.198248,-0.075686,7.263184,-5.004883,48.400879,0,0,-0.34076291291011,-0.6630410874848719,0.2121537700049704,-0.6316568121170592,-1.0404592302841886,0.0443343978937435,-0.0607391521044789,19.19212490030297,2.502747335698954,63.99908325050099,-0.621475,0.452448,0.627877,0.121775,-1.735404,-1.947813,1.114292,40.527344,-88.317871,83.618164,0,0,-0.6322283355202629,0.4069146499946016,0.6152895447191218,0.2296870469897001,-1.879368931994024,-0.2585031106225839,0.465604226899027,36.80321757537768,-136.1878900800532,175.32628409141333
21171,2024 10 23,05:27:06.409,-0.355453,-0.673495,0.184618,-0.621268,-1.047395,-0.198248,-0.075686,7.263184,-5.004883,48.400879,0,0,-0.3414974172646045,-0.6635637831106282,0.2107769815047219,-0.6311373715112061,-1.0408060187699792,0.0322052779990563,-0.0614864944992549,18.595677855287825,2.127365818914006,63.219173037975935,-0.620035,0.454034,0.629439,0.114963,-1.799371,-2.10651,1.245643,29.11377,-58.654785,56.57959,0,0,-0.6316186687442498,0.4092706174948715,0.6159970174831657,0.2239508446402151,-1.8753690353943224,-0.3509034550914547,0.5046061655540756,36.4187451966088,-132.31123482605054,169.38894938684265
21172,2024 10 23,05:27:06.417,-0.357494,-0.673881,0.181387,-0.62063,-0.983917,-0.281747,-0.055177,7.8125,-10.620117,44.189453,0,0,-0.3422972464013743,-0.6640796439550969,0.2093074824294858,-0.6306120029356458,-1.0379615678314802,0.0165076640991035,-0.0611710197742922,18.056518962523437,1.4899916779683058,62.267687036077135,-0.620035,0.454034,0.629439,0.114963,-1.799371,-2.10651,1.245643,29.11377,-58.654785,56.57959,0,0,-0.6310394853070374,0.4115087866201278,0.6166691166090075,0.2185014524082043,-1.8715691336246063,-0.438683782336882,0.5416580072763718,36.05349643677835,-128.62841233474802,163.74848141750053
21173,2024 10 23,05:27:06.426,-0.359069,-0.674053,0.178492,-0.620373,-0.907254,-0.337901,-0.043947,9.155273,-11.71875,35.522461,0,0,-0.3431358340813055,-0.664578311757342,0.2077667083080115,-0.6301000527888635,-1.0314261894399062,-0.0012127691058516,-0.0603098187855776,17.611456664397263,0.8295545940698905,60.93042573427328,-0.620014,0.454311,0.629833,0.111782,-1.729057,-2.21247,1.189978,18.127441,-16.845703,30.273438,0,0,-0.6304882110416854,0.4136488972891214,0.6173273107785571,0.2131654797877941,-1.864443526943376,-0.5273730932200379,0.5740740069125532,35.157193664939435,-123.0392768680106,157.07472924662548
21174,2024 10 23,05:27:06.434,-0.359938,-0.674247,0.176173,-0.620321,-0.870144,-0.341319,-0.049806,10.742188,-8.300781,25.268555,0,0,-0.3439759423772402,-0.665061746169475,0.2061870228926109,-0.6296111001494202,-1.0233620799679108,-0.018218080650559,-0.0597846278462987,17.267993231177396,0.3730378143663958,59.14733219755961,-0.621147,0.453565,0.629169,0.112257,-1.518601,-2.163152,0.972686,3.234863,16.235352,4.02832,0,0,-0.6300211504896011,0.4156447024246654,0.6179193952396292,0.2081200557984044,-1.847151400596207,-0.609162038559036,0.5940046065669256,33.561077131692464,-116.07554542461008,149.4224087842942
21175,2024 10 23,05:27:06.442,-0.358167,-0.675313,0.176693,-0.620039,-1.57915,-0.4756,-1.036164,14.221191,26.489258,-29.23584,0,0,-0.3446854952583782,-0.6655743088610012,0.2047123217479803,-0.6291324951419492,-1.0511514759695153,-0.0410871766180311,-0.1086035964539837,17.11565311961853,1.678848823648076,54.72817358768162,-0.622608,0.452124,0.628169,0.11553,-1.337931,-1.963927,0.788598,-10.437012,33.691406,-18.371582,0,0,-0.629650492965121,0.4174686673034321,0.6184318754776478,0.2034905530084842,-1.8216903805663969,-0.6769002866310841,0.6037342762385792,31.36117267510784,-108.58719785337956,141.03270924507947
21176,2024 10 23,05:27:06.451,-0.357355,-0.669475,0.178902,-0.626175,-1.25248,-1.14066,-0.024415,-5.67627,-87.890625,-65.917969,0,0,-0.3453189704954593,-0.6657693434179511,0.2034218056605813,-0.6289846203848517,-1.0612179021710395,-0.0960658177871295,-0.1043941666312846,15.9760569636376,-2.799624867534328,48.69586645829754,-0.621169,0.44982,0.629934,0.122449,-4.480117,-2.105045,0.911649,-56.57959,-11.71875,-96.923828,0,0,-0.6292264183168649,0.4190862339382605,0.6190069817037654,0.1994384753580599,-1.9546117115380768,-0.7483075222995299,0.6191300124266503,26.964134541352447,-103.74377546071057,129.13488238282548
21177,2024 10 23,05:27:06.459,-0.357355,-0.669475,0.178902,-0.626175,-1.25248,-1.14066,-0.024415,-5.67627,-87.890625,-65.917969,0,0,-0.3459207719706863,-0.6659546262470535,0.2021958153775523,-0.6288441393656091,-1.0707810070624877,-0.1482955268977731,-0.1003952082997203,14.893440615455718,-7.054174874157611,42.96517468538266,-0.626491,0.440209,0.628452,0.137015,-1.18656,-1.840876,0.904324,9.521484,224.121094,-129.394531,0,0,-0.6290896474010216,0.4201423722413475,0.6194792326185771,0.1963173015901569,-1.9162091259611729,-0.8029359461845534,0.6333897118053178,26.092002014284823,-87.35053198767504,116.2084117136842
21178,2024 10 23,05:27:06.467,-0.354368,-0.664393,0.183235,-0.632005,-1.35551,-1.501511,-0.525407,-26.367188,-48.76709,-85.754395,0,0,-0.346343133372152,-0.6658765449347008,0.2012477746086746,-0.6290021823973286,-1.0850174567093631,-0.2159563005528844,-0.1216457978847343,12.830409184682932,-9.13982063044973,36.52919620111352,-0.626491,0.440209,0.628452,0.137015,-1.18656,-1.840876,0.904324,9.521484,224.121094,-129.394531,0,0,-0.6289597150309705,0.4211457036292801,0.6199278709876481,0.1933521865106491,-1.8797266696631143,-0.8548329488753258,0.6469364262150519,25.26347611357058,-71.7769506882913,103.92826457799998
21179,2024 10 23,05:27:06.476,-0.349509,-0.659364,0.185989,-0.639133,-1.041047,-0.424818,-0.92288,29.23584,-85.083008,-83.007813,0,0,-0.3465014267035444,-0.6655509176879658,0.2004848358782409,-0.6295087232774622,-1.082818933873895,-0.2263993855252402,-0.1617075079904976,13.650680725448783,-12.936979998927244,30.55234574105784,-0.634968,0.436114,0.616038,0.164676,-0.131352,2.191473,-1.920957,-152.282715,242.919922,-151.123047,0,0,-0.629260129279422,0.421894118447816,0.6197333774382657,0.1919183771851166,-1.7923079361799583,-0.7025176514315595,0.5185417549042992,16.38616655789205,-56.04210705387672,91.17569899909998
21180,2024 10 23,05:27:06.484,-0.343908,-0.654432,0.183188,-0.647987,-0.721213,0.808618,0.275887,65.368652,-88.134766,-57.617188,0,0,-0.3463717553683672,-0.6649949718035675,0.1996199940843288,-0.6304326371135891,-1.0647386371802,-0.1746485162489782,-0.1398277825909727,16.236579289176344,-16.696869298980882,26.143869054004945,-0.635256,0.429264,0.618308,0.172852,-1.675832,0.206061,0.307626,-0.061035,24.414063,-126.159668,0,0,-0.6295599228154508,0.4222626125254252,0.6196621085663525,0.1909650583258607,-1.7864841393709603,-0.6570887188599815,0.5079959671590842,15.563806479997448,-52.019298551182885,80.30893064914498
21181,2024 10 23,05:27:06.492,-0.340785,-0.652105,0.18396,-0.651754,-1.070833,0.561052,0.053224,-4.699707,-27.770996,-53.527832,0,0,-0.3460924175999488,-0.6643504732133891,0.1988369943801124,-0.6314987052579096,-1.06504335532119,-0.1378634904365292,-0.1301751934614241,15.189764974717525,-17.250575634031836,22.1602840013047,-0.639667,0.421389,0.614275,0.189534,-1.123081,1.20658,-0.647969,-14.587402,197.631836,-148.376465,0,0,-0.6300652766746782,0.4222189318991539,0.6193927531380349,0.1908935054095677,-1.7533139824024122,-0.5639052829169825,0.4501977188011299,14.056246055997574,-39.536741823623736,68.87466086668773
21182,2024 10 23,05:27:06.501,-0.339036,-0.647708,0.187201,-0.656113,-1.047884,0.222663,-0.196783,-20.751953,-59.387207,-67.138672,0,0,-0.3457395967199513,-0.6635183495527197,0.1982551946611067,-0.6327294199950141,-1.0641853875551304,-0.1198371659147027,-0.1335055837883528,13.392679075981649,-19.357407202330243,17.695336201239463,-0.648695,0.407037,0.610936,0.200684,-0.738792,0.356945,-0.515641,70.3125,146.850586,-153.015137,1,0,-0.6309967628409442,0.4214598353041962,0.6189699154811331,0.1913830301390893,-1.7025878832822914,-0.5178627687711334,0.4019057828610734,16.869058753197695,-30.217375432442548,57.78017097335334
21183,2024 10 23,05:27:06.509,-0.339036,-0.647708,0.187201,-0.656113,-1.047884,0.222663,-0.196783,-20.751953,-59.387207,-67.138672,0,0,-0.3454044168839538,-0.6627278320750837,0.1977024849280514,-0.6338985989952634,-1.0633703181773737,-0.1027121576189676,-0.1366694545989352,11.685447472182563,-21.35889719221373,13.453635791177488,-0.653478,0.393186,0.61201,0.20932,-0.972198,0.149419,1.064974,70.800781,97.717285,-152.526855,0,0,-0.632120824698897,0.4200461435389864,0.6186219197070765,0.1922798786321348,-1.666068389118177,-0.4844986803325767,0.4350591937180197,19.56564486553781,-23.82064241082042,47.26481967468568
21184,2024 10 23,05:27:06.517,-0.336994,-0.643602,0.189664,-0.660484,-1.024445,0.22071,0.10303,-8.544922,-39.0625,-55.175781,0,0,-0.3449838960397561,-0.6617715404713295,0.1973005606816488,-0.6352278690455001,-1.0614240522685048,-0.0865410497380192,-0.1246844818689884,10.673928998573436,-22.24407733260304,10.022164951618612,-0.653478,0.393186,0.61201,0.20932,-0.972198,0.149419,1.064974,70.800781,97.717285,-152.526855,0,0,-0.6331886834639521,0.418703136362037,0.6182913237217227,0.1931318847005281,-1.631374869662268,-0.4528027963159479,0.4665549340321187,22.12740167226092,-17.743746040279397,37.27523594095139
21185,2024 10 23,05:27:06.526,-0.33724,-0.640116,0.192824,-0.662827,-1.087924,0.059084,-0.277352,-38.330078,-35.217285,-32.348633,0,0,-0.3445967012377682,-0.660688763447763,0.1970767326475663,-0.636607825593225,-1.0627490496550795,-0.0792597972511182,-0.132317857775539,8.223728648644762,-22.89273771597289,7.903625054037683,-0.659557,0.380063,0.61093,0.217488,-0.743675,-0.267098,0.0,53.588867,104.003906,-125.854492,0,0,-0.6345070992907544,0.4167711295439352,0.6179232575356366,0.1943496904655017,-1.5869898761791543,-0.4435175565001504,0.4432271873305127,23.700474938647872,-11.656363438265426,29.118749543903817
21186,2024 10 23,05:27:06.534,-0.33827,-0.636735,0.194367,-0.665104,-0.846706,0.086428,-0.112796,-21.66748,-34.057617,-15.991211,0,0,-0.3442803661758798,-0.6594910752753748,0.196941246015188,-0.6380326343135638,-1.0519468971723256,-0.0709754073885623,-0.131341764886762,6.729168216212524,-23.45098168017424,6.708883251335799,-0.661322,0.371532,0.611649,0.224728,-1.245643,0.042482,0.57033,14.160156,59.082031,-106.262207,0,0,-0.6358478443262167,0.4145091730667384,0.6176095446588548,0.1958686059422266,-1.5699225323701966,-0.4192175786751429,0.449582327963987,23.22345899171548,-8.119443716352153,22.349701716708623
21187,2024 10 23,05:27:06.542,-0.338188,-0.635015,0.195383,-0.666491,-0.789087,0.186041,-0.30958,-6.958008,-15.50293,-18.554688,0,0,-0.3439757478670859,-0.658267271511606,0.1968633337144286,-0.6394555525978857,-1.0388039023137092,-0.0581245870191342,-0.1402536766424239,6.044809405401897,-23.053579096165528,5.445704688769008,-0.664023,0.364583,0.609821,0.232961,-1.030305,0.194342,-0.33253,0.0,83.618164,-92.407227,0,0,-0.6372566021099058,0.4120128644134014,0.617220117425912,0.1977232256451153,-1.5429416557516868,-0.3885395997413858,0.4104767115657877,22.062286042129703,-3.532563330534545,16.61185528087319
21188,2024 10 23,05:27:06.551,-0.337135,-0.6339,0.1963,-0.667816,-0.920438,0.241218,0.121097,-0.793457,-9.094238,-23.4375,0,0,-0.3436337104737316,-0.6570489079360258,0.1968351670287071,-0.6408735749679912,-1.0328856071980237,-0.0431574576681775,-0.1271861428103027,5.702896085131802,-22.35561204135725,4.001544454330557,-0.665208,0.358645,0.609893,0.238543,-1.061556,0.176763,-0.014649,19.226074,38.024902,-76.11084,0,0,-0.6386541720044104,0.4093444711927314,0.6168537615546164,0.1997642143628595,-1.5188723729641025,-0.3602744697543165,0.3892204259874983,21.92047544002321,-1.4546900640078178,11.97572051682953
21189,2024 10 23,05:27:06.559,-0.337135,-0.6339,0.1963,-0.667816,-0.920438,0.241218,0.121097,-0.793457,-9.094238,-23.4375,0,0,-0.3433087749500449,-0.6558914625392245,0.1968084086772718,-0.6422206962195915,-1.0272632268381223,-0.0289386847847686,-0.1147719856697876,5.378078430875212,-21.692543339289383,2.629592231614029,-0.666259,0.353244,0.610569,0.241913,-1.104038,0.092288,-0.02295,23.681641,30.395508,-59.570313,0,0,-0.6400344134041899,0.4065394476330948,0.6165395234768856,0.2018716536447165,-1.4981306543158972,-0.3376463462666006,0.3686119046881233,22.00853371802205,0.1378198391925733,8.398418840988052
21190,2024 10 23,05:27:06.567,-0.336798,-0.633018,0.198198,-0.668261,-0.951689,0.08301,-0.267098,-17.39502,-3.295898,-19.165039,0,0,-0.3429832362025427,-0.6547477894122633,0.1968778882434082,-0.643522711408612,-1.0234845154962162,-0.0233412505455302,-0.1223882863862982,4.239423509331451,-20.77271107232492,1.539860670033327,-0.666259,0.353244,0.610569,0.241913,-1.104038,0.092288,-0.02295,23.681641,30.395508,-59.570313,0,0,-0.6413456427339803,0.40387467525144,0.6162409973030413,0.2038737209624807,-1.4784260216001022,-0.3161496289532705,0.3490338094537171,22.09218908212095,1.6507042472329447,4.9999822489386485
21191,2024 10 23,05:27:06.576,-0.335986,-0.631768,0.19911,-0.66958,-0.83401,0.153325,-0.145024,3.051758,-14.221191,-20.935059,0,0,-0.3426333743924156,-0.65359879994165,0.1969894938312378,-0.6448255758381813,-1.0140107897214052,-0.0145079380182536,-0.1235200720669833,4.180040233864879,-20.445135068708677,0.4161146865316607,-0.667563,0.348564,0.610861,0.24436,-0.981964,-0.02588,0.06006,22.460938,29.724121,-45.654297,0,0,-0.6426565105972812,0.401109141488868,0.6159719974378892,0.2058980349143566,-1.4536029205200969,-0.301636147505607,0.3345851189810312,22.1106265280149,3.0543750848712974,2.467268286491716
21192,2024 10 23,05:27:06.584,-0.334583,-0.631466,0.19986,-0.670344,-0.885769,0.201666,-0.079592,2.502441,3.112793,-19.53125,0,0,-0.3422308556727948,-0.6524921599445676,0.1971330191396759,-0.6461014970462723,-1.0075987002353348,-0.003699241117341,-0.1213236684636341,4.096160272171635,-19.26723866527324,-0.5812535477949223,-0.668288,0.345169,0.610836,0.24724,-0.89114,0.101077,-0.010254,5.004883,23.498535,-42.053223,0,0,-0.6439380850674171,0.3983121344144246,0.6157151975659947,0.2079651331686388,-1.425479774494092,-0.2815004901303266,0.3173431630319797,21.255339351614158,4.076583080627732,0.2412437221671295
21193,2024 10 23,05:27:06.592,-0.333316,-0.631379,0.201132,-0.670676,-0.898465,0.156743,-0.188971,0.610352,3.662109,-21.240234,0,0,-0.3417851128891551,-0.6514365019473392,0.1973329681826921,-0.6473302221939587,-1.002142015223568,0.004322870938526,-0.1247060350404524,3.9218698585630527,-18.12077128200957,-1.614202570405176,-0.668159,0.342614,0.61154,0.249395,-0.976104,0.107425,-0.037599,7.507324,5.493164,-35.766602,0,0,-0.6451491308140462,0.3955272276937034,0.6155064376876949,0.2100366265102068,-1.403010985769387,-0.2620542156238103,0.2995960548803807,20.567938584033445,4.147412126596345,-1.559148563941227
21194,2024 10 23,05:27:06.601,-0.331605,-0.631397,0.202179,-0.671193,-0.885769,0.145512,-0.147465,6.408691,6.591797,-22.705078,0,0,-0.3412761072446973,-0.6504345268499722,0.1975752697735575,-0.6485233610842608,-0.9963233644623896,0.0113823273915997,-0.1258439832884298,4.0462109156349,-16.885142867909092,-2.6687463418849173,-0.668105,0.340318,0.612345,0.250706,-1.017609,0.049806,-0.023438,10.925293,7.141113,-27.160645,0,0,-0.6462969242733438,0.3927667663090182,0.6153483658033101,0.2120700951846965,-1.3837408864809178,-0.2464612048426198,0.2834443521363616,20.08580630483177,4.297097170266528,-2.8392233857441656
21195,2024 10 23,05:27:06.609,-0.32965,-0.632039,0.203292,-0.671216,-0.90286,0.121097,-0.178716,9.460449,15.930176,-21.30127,0,0,-0.3406948018824624,-0.6495147505074735,0.1978611062848796,-0.6496579930300477,-0.9916501962392702,0.0168680610220197,-0.1284875841240083,4.316922819853154,-15.244376924513636,-3.6003725247906715,-0.668459,0.338393,0.612504,0.251975,-0.924345,0.041017,0.008789,6.591797,12.268066,-20.935059,0,0,-0.6474050280596766,0.3900480779935673,0.6152061475131446,0.2140653404254617,-1.360771092156872,-0.2320872946004888,0.2697115845295436,19.411105839590185,4.695645611753201,-3.7440151664569568
21196,2024 10 23,05:27:06.617,-0.32965,-0.632039,0.203292,-0.671216,-0.90286,0.121097,-0.178716,9.460449,15.930176,-21.30127,0,0,-0.3401425617883393,-0.6486409629820998,0.1981326509706356,-0.6507358933785452,-0.9872106864273068,0.0220795079709187,-0.1309990049178078,4.574099128860497,-13.685649278287954,-4.485417398551138,-0.668459,0.338393,0.612504,0.251975,-0.924345,0.041017,0.008789,6.591797,12.268066,-20.935059,0,0,-0.6484577266566927,0.3874653240938889,0.6150710401374874,0.2159608234041886,-1.3389497875490282,-0.2184320798704643,0.2566654553030664,18.770140397610675,5.074266631165541,-4.603567358134109
21197,2024 10 23,05:27:06.626,-0.3272,-0.633133,0.204066,-0.671148,-0.936552,0.169927,-0.0918,16.906738,18.310547,-21.911621,0,0,-0.3394954336989223,-0.6478655648329947,0.1984293184221038,-0.6517564987096178,-0.9846777521059412,0.0294718825723728,-0.1290390546719174,5.190731072417472,-12.085839464373556,-5.35672757862358,-0.668506,0.33721,0.612667,0.253037,-0.930204,0.083987,0.053224,1.342773,4.211426,-15.136719,0,0,-0.649460140323858,0.3849525578891944,0.614950838130613,0.2178146322339791,-1.3185124981715766,-0.2033111258769411,0.246493382537913,17.89877202773014,5.031124599607264,-5.130224940227404
21198,2024 10 23,05:27:06.634,-0.324663,-0.634422,0.204881,-0.670914,-0.955107,0.169927,-0.11182,16.296387,21.179199,-21.606445,0,0,-0.3387538120139761,-0.6471933865913451,0.1987519025009986,-0.6527143737741369,-0.9831992145006442,0.0364946384437541,-0.1281781019383215,5.746013868796599,-10.422587541154876,-6.169213449692402,-0.668242,0.336536,0.613046,0.253713,-0.976104,0.10596,0.026856,-0.061035,-1.464844,-11.230469,0,0,-0.6503992333076651,0.3825317299947346,0.6148555962240823,0.2196095506222802,-1.3013920732629978,-0.187847569583094,0.2355115134110174,17.00078167634363,4.7063261696269,-5.435237143216034
21199,2024 10 23,05:27:06.642,-0.322192,-0.635732,0.205724,-0.670608,-0.950224,0.148442,-0.113773,15.50293,21.42334,-20.812988,0,0,-0.3379257214132773,-0.6466203172617778,0.1991005073759486,-0.65360905508543,-0.981550453775612,0.0420920065215664,-0.1274578468414055,6.2338596753567685,-8.830291164097133,-6.901402177207782,-0.667674,0.33619,0.613652,0.254203,-1.001495,0.110843,0.010743,-1.525879,-7.446289,-10.009766,0,0,-0.6512629716422819,0.3802146434949979,0.6147954164128782,0.2213392230911661,-1.286397219599848,-0.1729130411039393,0.2242730877404665,16.07444864252645,4.098695411145554,-5.663963586055232
21200,2024 10 23,05:27:06.651,-0.319701,-0.637136,0.206469,-0.670239,-0.962432,0.149419,-0.084964,17.028809,22.399902,-19.65332,0,0,-0.3370144853426134,-0.6461461013986889,0.1994689320071512,-0.6544405523311584,-0.9805945310868311,0.0474583561954881,-0.1253331544993352,6.77360714158893,-7.268781505892276,-7.538998068347392,-0.666925,0.336031,0.614364,0.254657,-1.023957,0.120609,-0.013672,-3.051758,-8.422852,-9.277344,0,0,-0.6520460730601677,0.378005461320248,0.6147738455922342,0.2230051119366078,-1.2732752086198555,-0.1582369390487423,0.2123758333534431,15.118138310400123,3.4726180405882765,-5.84463260675247
21201,2024 10 23,05:27:06.659,-0.317293,-0.638545,0.207125,-0.669839,-0.974639,0.152348,-0.072268,16.296387,21.42334,-18.249512,0,0,-0.3360284110754827,-0.6457660463287543,0.1998517354067936,-0.6552104747146005,-0.9802967545324895,0.0527028383857137,-0.1226798967743684,7.249746134509483,-5.834175430597663,-8.074523764930023,-0.666291,0.335909,0.614976,0.255003,-1.014191,0.104007,-0.018067,-2.258301,-7.080078,-7.080078,0,0,-0.6527583194071593,0.3759006382542355,0.6147839533126225,0.2246050063397774,-1.2603209981888628,-0.1451247420963052,0.200853691685771,14.249316344880118,2.9449832385588626,-5.906404876414847
21202,2024 10 23,05:27:06.667,-0.317293,-0.638545,0.207125,-0.669839,-0.974639,0.152348,-0.072268,16.296387,21.42334,-18.249512,0,0,-0.3350916405217085,-0.6454049940123165,0.200215398636454,-0.6559419009788705,-0.9800138668058652,0.057685096466428,-0.12015930193565,7.702078177784008,-4.471299659067779,-8.583273176683521,-0.666291,0.335909,0.614976,0.255003,-1.014191,0.104007,-0.018067,-2.258301,-7.080078,-7.080078,0,0,-0.6534349534368014,0.3739010563415237,0.6147935556469913,0.2261249060227885,-1.2480144982794197,-0.1326681549914899,0.1899076571014824,13.423935477636112,2.443730176630919,-5.9650885325941045
21203,2024 10 23,05:27:06.676,-0.315046,-0.639831,0.207688,-0.669498,-0.993194,0.161138,-0.074709,15.808105,18.859863,-16.906738,0,0,-0.3340893584956231,-0.6451262943117007,0.2005890287046313,-0.6566197059299269,-0.9806728734655716,0.0628577416431066,-0.1178867868388675,8.107379518894808,-3.3047415261143898,-8.999446417849345,-0.665789,0.335882,0.615404,0.255315,-1.00882,0.115238,-0.023927,-2.746582,-4.882813,-5.187988,0,0,-0.6540526557649613,0.3720001035244475,0.6148240778646418,0.2275844107216491,-1.2360547733654486,-0.1202728472419154,0.1792159242464083,12.615409603754305,2.0774030177993734,-5.926233505964399
21204,2024 10 23,05:27:06.684,-0.312968,-0.640897,0.208122,-0.669319,-1.003937,0.17481,-0.043458,15.136719,15.258789,-15.74707,0,0,-0.3330332905708419,-0.6449148295961156,0.2009656772693997,-0.6572546706334305,-0.981836079792293,0.0684553545609513,-0.1141653474969241,8.458846492950066,-2.3765649998086698,-9.336827596956878,-0.665379,0.335892,0.615745,0.255551,-1.004425,0.11475,-0.021485,-2.075195,-4.516602,-3.845215,0,0,-0.6546189729767131,0.3701946983482251,0.6148701239714097,0.2289827401855666,-1.2244732846971762,-0.1085217048798197,0.1691808780340878,11.88087937356659,1.7477027669094043,-5.822182580666179
21205,2024 10 23,05:27:06.692,-0.311123,-0.641796,0.208568,-0.669179,-0.989776,0.162603,-0.049806,12.207031,13.244629,-14.831543,0,0,-0.3319377760422998,-0.6447588881163098,0.2013457934059297,-0.6578508871017589,-0.9822330758026784,0.0731627368329037,-0.1109473801220779,8.646255718302562,-1.5955052998182362,-9.611563367109031,-0.665084,0.3359,0.61598,0.255741,-1.004913,0.113285,-0.013672,-1.831055,-2.380371,-2.929688,0,0,-0.6551422243278775,0.3684799634308138,0.6149256177728393,0.2303206531762882,-1.2134952704623172,-0.0974313696358287,0.1600382341323834,11.19528265488826,1.5412990785639342,-5.67755785163287
21206,2024 10 23,05:27:06.701,-0.309401,-0.642577,0.208977,-0.6691,-0.989288,0.16895,-0.038087,12.023926,11.474609,-14.343262,0,0,-0.3308109372401848,-0.6446497937104942,0.2017273537356332,-0.658413342746671,-0.9825858220125444,0.0779520999912585,-0.107304361115974,8.815139232387434,-0.9419995848273244,-9.848148298753582,-0.664906,0.3359,0.616097,0.255921,-1.00589,0.118168,-0.015625,-1.525879,-1.403809,-2.197266,0,0,-0.6556304131114836,0.3668509652592731,0.6149841868841973,0.2316006705174738,-1.2031150069392011,-0.0866514011540372,0.1512550724257642,10.559224572143846,1.3940436746357376,-5.503543259051226
21207,2024 10 23,05:27:06.709,-0.307796,-0.643256,0.209431,-0.669046,-0.999542,0.166021,-0.057619,9.887695,10.681152,-13.977051,0,0,-0.3296601903781755,-0.6445801040249696,0.2021125360488515,-0.6589449756093374,-0.9834336309119172,0.0823555449916956,-0.1048200930601753,8.868767020768061,-0.3608420055859581,-10.054593433815905,-0.664763,0.335885,0.616187,0.256097,-1.00589,0.124516,-0.009278,-1.403809,-0.549316,-2.258301,0,0,-0.6560870424559094,0.3653026669963095,0.6150443275399874,0.2328254869916001,-1.193253756592241,-0.0760930310963354,0.143228418804476,9.961072893536652,1.2968756909039505,-5.341281146098664
21208,2024 10 23,05:27:06.717,-0.307796,-0.643256,0.209431,-0.669046,-0.999542,0.166021,-0.057619,9.887695,10.681152,-13.977051,0,0,-0.3285669808592668,-0.6445138988237211,0.2024784592464089,-0.6594500268288704,-0.9842390493663212,0.0865388177421108,-0.1024600384071665,8.919713419729657,0.1912576946933398,-10.250716312125109,-0.66465,0.335816,0.616256,0.256314,-0.987823,0.120121,-0.011231,-1.342773,-0.427246,-2.990723,0,0,-0.6565151903331139,0.363828333646494,0.6151049111629879,0.2339999126420201,-1.1829822187626289,-0.0662823295415186,0.1355054478642522,9.39588059885982,1.2106696063587528,-5.223753238793731
21209,2024 10 23,05:27:06.726,-0.306313,-0.643831,0.209905,-0.669025,-0.993194,0.165532,-0.054201,8.972168,9.643555,-13.73291,0,0,-0.3274542818163034,-0.644479753882535,0.2028497862840885,-0.6599287754874269,-0.9846867968980052,0.0904884768550052,-0.1000470864868082,8.922336148743174,0.6638725599586728,-10.424825996518852,-0.66465,0.335816,0.616256,0.256314,-0.987823,0.120121,-0.011231,-1.342773,-0.427246,-2.990723,0,0,-0.6569219308164582,0.3624277169641692,0.6151624656048384,0.2351156170099191,-1.1732242578244974,-0.0569621630644427,0.1281686254710396,8.858947918916828,1.128773826040815,-5.1121017268540445
21210,2024 10 23,05:27:06.734,-0.304982,-0.644334,0.210444,-0.66898,-0.989776,0.153813,-0.059572,6.530762,9.033203,-12.756348,0,0,-0.3263306677254882,-0.6444724661884081,0.2032294969698841,-0.6603813367130554,-0.9849412570531048,0.093654703012255,-0.0980233321624678,8.802757441306015,1.0823390819607392,-10.541402096692908,-0.664441,0.335747,0.616407,0.256582,-0.999542,0.123539,-0.010743,-1.831055,-1.525879,-4.089355,0,0,-0.6572978842756353,0.3610936811159607,0.6152246923245965,0.2361889361594231,-1.1645401449332724,-0.0479371049112205,0.1212230441974876,8.324447772970986,0.9960411847387745,-5.060964390511342
21211,2024 10 23,05:27:06.742,-0.303798,-0.6448,0.210983,-0.668899,-0.994171,0.138676,-0.057619,5.859375,8.728027,-11.59668,0,0,-0.3252040343392138,-0.6444888428789878,0.2036171721213898,-0.6608072198774027,-0.9854027442004496,0.0959057678616422,-0.0960031155543444,8.655588319240714,1.4646234778627023,-10.594165991858262,-0.664206,0.33564,0.61657,0.256938,-0.997589,0.133305,-0.013672,-2.075195,-1.037598,-5.065918,0,0,-0.6576432900618535,0.3598209970601627,0.6152919577083668,0.237226389351452,-1.1561925876866086,-0.0388749996656595,0.1144782919876132,7.804465634322436,0.8943592255018357,-5.061212070985775
21212,2024 10 23,05:27:06.751,-0.302624,-0.64523,0.21142,-0.668879,-1.008332,0.158696,-0.021973,6.408691,7.202148,-11.169434,0,0,-0.3240750326222531,-0.6445259007350383,0.2040073135153203,-0.6612108088835325,-0.986549206990427,0.0990452794685601,-0.0923016097766272,8.543243453278677,1.751499703969567,-10.622929392265348,-0.664001,0.335442,0.616729,0.257347,-1.005402,0.127934,-0.010743,-1.953125,-0.183105,-6.103516,0,0,-0.6579611755587609,0.3586020472071545,0.6153638098229484,0.2382324198838794,-1.1486530583022785,-0.0305345496823765,0.1082172273882325,7.316586102606314,0.8404860142267438,-5.113327267436485
21213,2024 10 23,05:27:06.759,-0.301631,-0.645534,0.211854,-0.668897,-0.990753,0.147465,-0.055177,4.638672,5.371094,-10.192871,0,0,-0.3229528309911404,-0.6445763056982865,0.2043996478395543,-0.6615951184393558,-0.9867593966409056,0.1014662654951321,-0.0904453792877958,8.348014880614743,1.9324794187710888,-10.60142647265208,-0.663891,0.335104,0.616799,0.257902,-1.005402,0.135258,-0.029298,-1.403809,2.624512,-7.629395,0,0,-0.6582576667808229,0.3574271448467968,0.6154355693318009,0.2392158988896854,-1.1414905053871645,-0.0222449221982577,0.1013414660188209,6.880566347475997,0.9296873135154068,-5.2391306540646605
21214,2024 10 23,05:27:06.767,-0.301631,-0.645534,0.211854,-0.668897,-0.990753,0.147465,-0.055177,4.638672,5.371094,-10.192871,0,0,-0.3218867394415834,-0.6446241904133722,0.2047723654475766,-0.661960212517388,-0.9869590768088604,0.1037662022203755,-0.088681960323406,8.162547736584006,2.1044101478325343,-10.580998699019476,-0.663908,0.334582,0.616777,0.258586,-1.012238,0.130375,-0.02588,-0.610352,5.310059,-9.155273,0,0,-0.6585401834417817,0.356284887604457,0.6155026408652108,0.2401844039452011,-1.1350278801178062,-0.0146139260883448,0.0949803927178798,6.506020430102198,1.1487058978396365,-5.434937771361428
21215,2024 10 23,05:27:06.776,-0.300725,-0.645691,0.212226,-0.669034,-0.966826,0.142094,-0.06006,4.638672,3.295898,-9.82666,0,0,-0.3208286524695042,-0.6446775308927035,0.2051450471751978,-0.6623139018915185,-0.9859524229684172,0.1056825921093567,-0.0872508623072357,7.986353949754805,2.163984540440908,-10.543281764068505,-0.663908,0.334582,0.616777,0.258586,-1.012238,0.130375,-0.02588,-0.610352,5.310059,-9.155273,0,0,-0.6588085742696925,0.3551997432242341,0.6155663588219502,0.241104483747941,-1.128888386111916,-0.0073644797839275,0.0889373730819858,6.150201808597088,1.3567735529476543,-5.620954532793355
21216,2024 10 23,05:27:06.784,-0.299853,-0.645825,0.212587,-0.669183,-0.956084,0.142582,-0.064455,4.02832,3.295898,-9.70459,0,0,-0.3197798698460289,-0.6447349043480683,0.2055171448164379,-0.6626573567969426,-0.9844590018199962,0.1075275625038889,-0.0861110691918739,7.788452252267064,2.220580213418862,-10.501347175865078,-0.664169,0.333871,0.61655,0.259376,-1.015656,0.117191,-0.026856,0.244141,10.253906,-9.460449,0,0,-0.6590765955562079,0.3541333060630223,0.6156155408808527,0.2420180595605439,-1.12322676680632,-0.0011367057947312,0.0831477044278865,5.854898768167233,1.801630175300272,-5.812929256153688
21217,2024 10 23,05:27:06.792,-0.299033,-0.645976,0.212994,-0.669273,-0.946806,0.133305,-0.067873,3.723145,4.150391,-9.399414,0,0,-0.3187425263537274,-0.6447969591306648,0.205890987575616,-0.6629881389570954,-0.9825763517289964,0.1088164343786944,-0.0851991657322802,7.585186889653711,2.3170707527479197,-10.446250517071825,-0.664736,0.332951,0.616039,0.260321,-1.010285,0.123539,-0.041017,1.342773,15.869141,-10.314941,0,0,-0.6593595657783974,0.3530741907598712,0.61563671383681,0.2429332065825167,-1.117579678466004,0.0050970794950053,0.0769394692064922,5.629292479758872,2.505005716535258,-6.038029843346004
21218,2024 10 23,05:27:06.801,-0.298162,-0.646269,0.213359,-0.669263,-0.953154,0.136235,-0.053224,4.516602,6.04248,-8.728027,0,0,-0.317713500036041,-0.6448705611741316,0.2062643881968352,-0.6633018820092406,-0.9811052341425466,0.1101873626597597,-0.0836004074456662,7.431757645171024,2.5033412151105234,-10.360339341218232,-0.665534,0.33182,0.615321,0.261419,-0.999054,0.106449,-0.013184,1.586914,20.080566,-11.535645,0,0,-0.6596682874894775,0.3520114812218777,0.6156209281449694,0.2438574962533909,-1.1116533945427036,0.010164675520255,0.0724332957461676,5.427173555770929,3.383783730708495,-6.312910601178703
21219,2024 10 23,05:27:06.809,-0.29738,-0.646535,0.213753,-0.669229,-0.957549,0.138188,-0.049318,2.929688,5.004883,-8.056641,0,0,-0.316696825034239,-0.644953783115425,0.2066388187869934,-0.6635982379087785,-0.9799274224354192,0.1115873945267717,-0.0818862870733829,7.206654162912473,2.628418304354997,-10.24515442415732,-0.666577,0.330596,0.614347,0.2626,-0.949248,0.086428,0.019532,2.13623,23.803711,-10.314941,0,0,-0.6600137231150035,0.3509407071607838,0.6155572317377208,0.2447946214407213,-1.1035331248155682,0.0139778417442423,0.0697882309588592,5.262626377982382,4.40478009417307,-6.513012121119767
21220,2024 10 23,05:27:06.817,-0.29738,-0.646535,0.213753,-0.669229,-0.957549,0.138188,-0.049318,2.929688,5.004883,-8.056641,0,0,-0.315730983782527,-0.6450328439596537,0.2069945278476437,-0.6638797760133395,-0.9788085013136482,0.1129174248004331,-0.0802578727197137,6.99280585476685,2.747241539137247,-10.135728752949454,-0.667665,0.329478,0.61328,0.263735,-0.943876,0.092776,0.014649,1.342773,23.132324,-8.728027,0,0,-0.6603962869592532,0.3498675718027446,0.6154433701508347,0.2457416403686853,-1.0955502685747898,0.0179177496570302,0.0670312694109162,5.066633709083264,5.341157289464417,-6.623762865063778
21221,2024 10 23,05:27:06.826,-0.296666,-0.646771,0.214118,-0.669201,-0.959014,0.138676,-0.049318,3.662109,5.187988,-7.69043,0,0,-0.3147777345934007,-0.6451197517616709,0.2073507014552615,-0.6641458372126724,-0.9778187762479658,0.1142053535604114,-0.078710879083728,6.826271012028507,2.8692788621803844,-10.01346381530198,-0.667665,0.329478,0.61328,0.263735,-0.943876,0.092776,0.014649,1.342773,23.132324,-8.728027,0,0,-0.6607597226112906,0.3488480932126073,0.615335201643293,0.246641308350251,-1.0879665551460502,0.0216606621741787,0.0644121559403704,4.8804406736291,6.230715624991196,-6.728976071810589
21222,2024 10 23,05:27:06.834,-0.295981,-0.646985,0.214443,-0.669194,-0.95706,0.134281,-0.036622,3.051758,3.967285,-7.263184,0,0,-0.3138378978637306,-0.6452130141735873,0.2077053163824984,-0.6643982453520387,-0.9767808374355674,0.1152091358823908,-0.0766064351295416,6.637545361427082,2.924179169071365,-9.875949824536882,-0.668727,0.3285,0.612203,0.264764,-0.933622,0.08301,0.040529,0.427246,22.460938,-7.141113,0,0,-0.661158086480726,0.3478306885519769,0.6151785915611283,0.2475474429327384,-1.0802493273887477,0.0247281290654697,0.0632179981433519,4.657780939947645,7.042226743741636,-6.749582918220059
21223,2024 10 23,05:27:06.842,-0.295368,-0.64715,0.21479,-0.669194,-0.970733,0.128422,-0.044435,2.075195,3.601074,-6.958008,0,0,-0.312914402970544,-0.6453098634649079,0.2080595505633735,-0.6646380330844367,-0.9764784455637888,0.1158697790882713,-0.0749978633730645,6.409427843355728,2.958023910617797,-9.730052733310036,-0.669733,0.327674,0.611116,0.265753,-0.93704,0.089846,0.019044,0.0,21.057129,-5.92041,0,0,-0.6615868321566897,0.3468228541243781,0.6149754619830718,0.2484577207861015,-1.0730888610193103,0.0279840226121962,0.0610092982361843,4.424891892950263,7.742971856554553,-6.708124272309056
21224,2024 10 23,05:27:06.851,-0.294758,-0.647237,0.215052,-0.669294,-0.978057,0.150395,-0.039552,2.990723,1.831055,-6.958008,0,0,-0.3120065828220169,-0.6454062202916625,0.2084091730352048,-0.6648708314302149,-0.9765573732855994,0.1175960401338577,-0.0732255702044113,6.238492601187942,2.901675465086907,-9.591450496644535,-0.670594,0.326947,0.610149,0.266699,-0.957549,0.101077,0.053224,-1.098633,18.981934,-6.164551,0,0,-0.6620371905488551,0.3458290614181591,0.6147341388839183,0.2493697847467964,-1.0673118679683449,0.0316386714815864,0.0606200333243751,4.148715648302749,8.304919963726825,-6.6809456086936025
21225,2024 10 23,05:27:06.859,-0.294265,-0.64717,0.215319,-0.66949,-0.969268,0.132817,-0.039064,1.403809,-0.488281,-6.713867,0,0,-0.311119503680916,-0.6454944092770794,0.2087546643834446,-0.665101789858704,-0.9761929046213196,0.1183570881271648,-0.0715174916941907,5.996758421128545,2.732177641832562,-9.447571321812308,-0.67146,0.326188,0.609175,0.267672,-0.96585,0.098636,0.009278,-0.610352,19.348145,-6.591797,0,0,-0.6625083310214123,0.3448470083472512,0.6144561819397223,0.2502848955094566,-1.0622387745699275,0.0349885379075071,0.0580529316581563,3.910762265887612,8.857081215540482,-6.676488178258921
21226,2024 10 23,05:27:06.867,-0.294265,-0.64717,0.215319,-0.66949,-0.969268,0.132817,-0.039064,1.403809,-0.488281,-6.713867,0,0,-0.3102767784968702,-0.6455781888132253,0.2090828811642723,-0.6653212003657688,-0.9758466593902536,0.1190800837208066,-0.0698948171094812,5.767110950072118,2.571154709740934,-9.310886105721693,-0.672199,0.325404,0.608355,0.268636,-0.981964,0.121097,0.016602,-0.061035,17.028809,-7.93457,0,0,-0.6629928644703417,0.3438748579298886,0.6141511228427362,0.2512024507339838,-1.0582250358414311,0.0392939610121317,0.0559803850752485,3.712172402593231,9.265667604763458,-6.739392269345975
21227,2024 10 23,05:27:06.876,-0.293841,-0.64703,0.215571,-0.669731,-0.971709,0.133305,-0.054201,1.403809,-1.220703,-6.469727,0,0,-0.3094549895720266,-0.645650779372564,0.2094072871060587,-0.6655416903474803,-0.9756397764207408,0.1197913295347662,-0.0691101262540071,5.548945852568512,2.3815618242538874,-9.168828150435608,-0.672199,0.325404,0.608355,0.268636,-0.981964,0.121097,0.016602,-0.061035,17.028809,-7.93457,0,0,-0.6634531712468246,0.3429513150333942,0.6138613167005994,0.2520741281972846,-1.0544119840493595,0.0433841129615251,0.0540114658214861,3.5235120324635694,9.653824674525284,-6.799151155878676
21228,2024 10 23,05:27:06.884,-0.293469,-0.646757,0.215762,-0.670096,-0.964873,0.122562,-0.039552,1.220703,-3.78418,-6.347656,0,0,-0.3086556900934253,-0.6457060904039358,0.2097250227507557,-0.6657694058301062,-0.9751014375997036,0.1199298630580279,-0.0676322199413068,5.332533709940086,2.073274733041193,-9.027769542913829,-0.672927,0.324474,0.607619,0.269603,-0.987823,0.102542,0.021973,1.098633,17.39502,-9.399414,0,0,-0.6639268626844833,0.3420274492817245,0.6135492008655694,0.2529505717874204,-1.0510825348468915,0.0463420073134489,0.0524095425304118,3.4022680808403907,10.04088444079902,-6.929164298084743
21229,2024 10 23,05:27:06.892,-0.293091,-0.646392,0.215879,-0.670575,-0.95706,0.122074,-0.048341,1.89209,-5.615234,-6.469727,0,0,-0.307877455588754,-0.6457403858837389,0.2100327216132179,-0.6660096855386008,-0.9741993657197184,0.1200370699051265,-0.0666676589442414,5.1605115244430815,1.6888492963891333,-8.899867415768135,-0.673589,0.323479,0.606977,0.270588,-0.987823,0.109867,0.039552,1.403809,16.113281,-10.314941,0,0,-0.6644099695502592,0.3411000268176383,0.6132205908222909,0.2538324431980494,-1.0479195581045468,0.0495182569477764,0.0517666654038912,3.3023451267983712,10.344504268759067,-7.098453133180505
21230,2024 10 23,05:27:06.901,-0.292716,-0.645899,0.215936,-0.671196,-0.949248,0.118656,-0.052248,2.197266,-7.8125,-6.835938,0,0,-0.3071193828093163,-0.645748316589552,0.210327885532557,-0.6662690012616708,-0.9729517974337326,0.1199680164098702,-0.0659466759970293,5.012349248220927,1.2137818315696765,-8.796670944979729,-0.674237,0.322395,0.606412,0.271534,-0.980499,0.088382,0.039064,2.13623,15.74707,-11.047363,0,0,-0.6649013210727462,0.3401647754767563,0.6128801612811763,0.2547175210381469,-1.0445485301993194,0.0514614441003876,0.0511315321336966,3.2440393704584527,10.614632555321116,-7.295898626521479
21231,2024 10 23,05:27:06.909,-0.292328,-0.64535,0.215974,-0.67188,-0.95706,0.126469,-0.061525,2.441406,-8.483887,-7.141113,0,0,-0.3063798136688504,-0.6457284007600744,0.2106101912559292,-0.6665495511985872,-0.972157207562046,0.1202930655893767,-0.0657255921971779,4.88380208580988,0.7288983899911925,-8.71389304773074,-0.674816,0.321325,0.605896,0.272515,-0.952178,0.086917,0.051759,2.197266,14.526367,-11.352539,0,0,-0.665397055019109,0.3392227867029185,0.6125309532171174,0.2556073949862395,-1.0399300036893533,0.0532342218953682,0.0511629055270118,3.19170070193553,10.81021927755506,-7.498730645195406
21232,2024 10 23,05:27:06.917,-0.292328,-0.64535,0.215974,-0.67188,-0.95706,0.126469,-0.061525,2.441406,-8.483887,-7.141113,0,0,-0.3056772229854078,-0.6457094807220707,0.2108783816931327,-0.6668160736386578,-0.9714023471839436,0.1206018623099078,-0.065515562587319,4.761682281519386,0.2682591204916328,-8.635254045344203,-0.675183,0.320355,0.605589,0.273428,-0.962432,0.081057,0.058596,1.403809,10.375977,-11.413574,0,0,-0.6658863522681534,0.3382793973677725,0.6121838555562614,0.2564984252369275,-1.0360551035048855,0.0546253608005998,0.0515345602506612,3.102306116838754,10.788507163677306,-7.6944728129356355
21233,2024 10 23,05:27:06.926,-0.291951,-0.644745,0.216026,-0.672608,-0.955107,0.126957,-0.063967,1.89209,-9.033203,-7.507324,0,0,-0.3049909118361374,-0.6456612566859671,0.211135762608476,-0.6671056699567248,-0.9705875798247464,0.1209196191944124,-0.065438134457953,4.618202667443416,-0.1968139855329488,-8.578857543076992,-0.675183,0.320355,0.605589,0.273428,-0.962432,0.081057,0.058596,1.403809,10.375977,-11.413574,0,0,-0.6663511846547456,0.3373831774993839,0.6118541127784484,0.2573449039750811,-1.0323739483296417,0.0559469427605698,0.0518876322381281,3.017381260996816,10.76788065549344,-7.880427872288854
21234,2024 10 23,05:27:06.934,-0.291608,-0.644102,0.216108,-0.673346,-0.953642,0.123539,-0.073733,1.403809,-9.399414,-7.507324,0,0,-0.3043217662443305,-0.6455832938516687,0.2113843744780522,-0.6674176864588885,-0.969740300833509,0.1210505882346918,-0.0658528777350554,4.4574829840712455,-0.6569439862563013,-8.525280865923143,-0.67538,0.319463,0.605456,0.274277,-0.977081,0.08594,0.039552,1.342773,7.568359,-11.71875,0,0,-0.6668026254220084,0.3364871686244147,0.6115342071395259,0.258191508776327,-1.0296093009131593,0.0574465956225413,0.0512708506262217,2.933650847946975,10.607904572718766,-8.072343978674411
21235,2024 10 23,05:27:06.942,-0.291283,-0.643469,0.216202,-0.674061,-0.944853,0.128422,-0.074221,1.220703,-8.728027,-7.385254,0,0,-0.303669827932114,-0.6454775791590852,0.2116252557541496,-0.6677498521359441,-0.9684959357918336,0.1214191588229572,-0.0662712838483026,4.295643984867684,-1.0604981369434865,-8.468279522626986,-0.675464,0.318602,0.605457,0.275068,-1.01175,0.089846,0.04297,1.831055,5.92041,-11.779785,0,0,-0.6672356941509079,0.3355929101931939,0.6112303467825496,0.2590353333375107,-1.028716335867501,0.0590665658414143,0.0508558080949106,2.878521055549626,10.373529844082828,-8.25771602974069
21236,2024 10 23,05:27:06.951,-0.290966,-0.642884,0.216353,-0.674707,-0.955107,0.122562,-0.073733,0.976563,-7.629395,-7.507324,0,0,-0.3030346365355083,-0.6453479002011309,0.2118616429664421,-0.6680977095291469,-0.9678264890022418,0.1214763008818093,-0.0666443696558874,4.1296899356243,-1.3889429800963118,-8.420231746495636,-0.675565,0.317711,0.605429,0.275911,-1.059114,0.098148,-0.010254,1.159668,7.385254,-12.634277,0,0,-0.6676521594433624,0.3346988146835342,0.6109402794434221,0.2598791166706352,-1.030236219074126,0.0610206375493435,0.0478003176901651,2.7925784027721443,10.224116051878688,-8.476544078253655
21237,2024 10 23,05:27:06.959,-0.290602,-0.642326,0.216522,-0.675341,-0.96585,0.13184,-0.060549,0.854492,-7.629395,-7.8125,0,0,-0.3024130047087329,-0.6451968051910743,0.21209466081812,-0.6684598740526896,-0.9677276645521296,0.1219944858377189,-0.0663396011730931,3.965930038843085,-1.700965581091496,-8.389845159170854,-0.675875,0.316664,0.605233,0.276785,-1.078158,0.085452,0.001953,3.051758,11.962891,-12.268066,0,0,-0.6680633014711942,0.3337970739493575,0.6106549154712511,0.2607244108371034,-1.0326323081204196,0.0622422056718764,0.0455079518056568,2.805537382633537,10.311054799284753,-8.666120174340971
21238,2024 10 23,05:27:06.967,-0.290286,-0.641744,0.216753,-0.675956,-0.968291,0.124027,-0.075686,0.12207,-7.385254,-7.93457,0,0,-0.3018066544732962,-0.6450241649315205,0.212327577777214,-0.6688346803500551,-0.9677558313245233,0.1220961115458329,-0.0668069211144384,3.77373703690093,-1.9851800020369208,-8.36708140121231,-0.676516,0.315412,0.604702,0.277808,-1.054231,0.097171,0.00586,3.540039,17.76123,-12.634277,0,0,-0.6684859363976344,0.3328778202518896,0.6103572696976884,0.2615785902952482,-1.0337122427143983,0.0639886453882825,0.043525554215374,2.8422624635018603,10.683563559320516,-8.864528015623923
21239,2024 10 23,05:27:06.976,-0.290286,-0.641744,0.216753,-0.675956,-0.968291,0.124027,-0.075686,0.12207,-7.385254,-7.93457,0,0,-0.3012306217496313,-0.6448601566849445,0.2125488488883533,-0.6691907463325523,-0.967782589758297,0.1221926559685412,-0.0672508750587165,3.5911536850558834,-2.255183701935075,-8.345455831151694,-0.676516,0.315412,0.604702,0.277808,-1.054231,0.097171,0.00586,3.540039,17.76123,-12.634277,0,0,-0.6688874395777527,0.3320045292392951,0.6100745062128039,0.2623900607804858,-1.0347381805786786,0.0656477631188684,0.0416422765046053,2.8771512903267675,11.037446881354487,-9.053015464842728
21240,2024 10 23,05:27:06.984,-0.289966,-0.641153,0.216995,-0.676576,-0.973174,0.122074,-0.07178,-0.305176,-7.507324,-8.056641,0,0,-0.3006673906621497,-0.6446747988506972,0.2127711564439356,-0.6695600090159246,-0.9680521602703822,0.1221867231701142,-0.0674773313057807,3.396337200803089,-2.517790716838321,-8.331015089594109,-0.677361,0.313982,0.604,0.278892,-1.068392,0.083987,0.026856,4.699707,21.057129,-13.122559,0,0,-0.6693111175988651,0.3311034027773303,0.6097707809021636,0.2632151577414615,-1.0364208715497445,0.066564724962925,0.040902962679375,2.968279075810429,11.538430987286764,-9.256492641600593
21241,2024 10 23,05:27:06.992,-0.289644,-0.640597,0.217271,-0.677152,-0.973174,0.125492,-0.063478,-0.427246,-6.652832,-8.056641,0,0,-0.3001162211290422,-0.6444709089081624,0.2129961486217388,-0.6699396085651284,-0.9683082522568632,0.1223519870116085,-0.0672773647404916,3.2051580407629348,-2.724542780996405,-8.317296385114403,-0.678468,0.312381,0.603022,0.280114,-1.02884,0.083499,0.024415,4.882813,26.062012,-13.48877,0,0,-0.6697689617189219,0.3301672826384638,0.6094333418570554,0.2640600998543884,-1.0360418279722572,0.0674114387147787,0.0400785645454062,3.0640057720199074,12.264610037922424,-9.46810650952056
21242,2024 10 23,05:27:07.001,-0.289337,-0.640064,0.217572,-0.677691,-0.9888,0.117679,-0.046388,-0.305176,-6.164551,-7.93457,0,0,-0.2995772600725901,-0.6442505634627542,0.2132249411906518,-0.6703271781368719,-0.96933283964402,0.122118337661028,-0.066232896503467,3.029641338724788,-2.8965431919465843,-8.298160065858683,-0.679715,0.310634,0.601936,0.281366,-1.031281,0.067385,0.034669,6.347656,27.709961,-13.977051,0,0,-0.6702662636329758,0.3291906185065406,0.6090584747642027,0.2649253948616689,-1.0358037865736442,0.0674101167790398,0.0398080863181359,3.228188283418912,13.036877586026302,-9.693553734044531
21243,2024 10 23,05:27:07.009,-0.289005,-0.639487,0.217864,-0.678283,-0.984893,0.117191,-0.057619,-1.159668,-7.751465,-8.178711,0,0,-0.2990486470689606,-0.6440123852896166,0.2134568941311192,-0.6707249692300282,-0.9701108476618188,0.1218719707779766,-0.0658022016782937,2.820175871788549,-3.139289282349255,-8.29218761256575,-0.680836,0.308815,0.60087,0.282934,-1.011261,0.115238,0.083499,4.699707,28.320313,-18.310547,0,0,-0.670794750451327,0.3281718375812136,0.6086490510259925,0.2658258251185855,-1.034576647244962,0.0698015109400878,0.0419926320022291,3.301764219247966,13.801049356724986,-10.124403397342306
21244,2024 10 23,05:27:07.017,-0.288755,-0.6388,0.218167,-0.678939,-0.979522,0.124027,-0.074221,-1.159668,-8.422852,-8.361816,0,0,-0.2985339647155125,-0.6437517660251357,0.2136923994245632,-0.6711356707685268,-0.9705814052787278,0.1219797222390778,-0.066223141594379,2.621183678199121,-3.403467418231792,-8.295669031937463,-0.682166,0.306703,0.599786,0.284322,-0.993194,0.066408,0.049318,7.507324,29.11377,-17.39502,0,0,-0.6713633129287606,0.3270983957021529,0.6082058984746929,0.2667506338626562,-1.032507514882714,0.0696318353930834,0.0423589004021177,3.512042208285568,14.566685388888736,-10.48793422747519
21245,2024 10 23,05:27:07.026,-0.288755,-0.6388,0.218167,-0.678939,-0.979522,0.124027,-0.074221,-1.159668,-8.422852,-8.361816,0,0,-0.2980450164797369,-0.6435041777238789,0.2139161294533351,-0.6715258372301004,-0.9710284350147914,0.1220820861271239,-0.06662303451466,2.432141094289165,-3.6544366473202015,-8.298976380340589,-0.682166,0.306703,0.599786,0.284322,-0.993194,0.066408,0.049318,7.507324,29.11377,-17.39502,0,0,-0.6719034472823225,0.3260786259170453,0.6077849035509582,0.2676292021695234,-1.030541839138578,0.0694706436234292,0.0427068553820118,3.7118062978712887,15.294039619444298,-10.83328851610143
21246,2024 10 23,05:27:07.034,-0.288377,-0.638269,0.218526,-0.679483,-1.030793,0.13477,-0.062014,-0.915527,-5.493164,-8.850098,0,0,-0.29756161565575,-0.643242418837685,0.2141466229806683,-0.6719236953685954,-0.974016663264052,0.1227164818207677,-0.066392582788927,2.2647576895747066,-3.746373014954192,-8.32653246132356,-0.683253,0.304726,0.598892,0.28572,-1.065951,0.11475,0.070803,7.629395,24.902344,-17.700195,0,0,-0.6724709249182064,0.325010994621193,0.6073402583734102,0.2685337420610472,-1.0323122971816492,0.0717346114422577,0.0441116626129112,3.907685732977724,15.774454838472082,-11.176633840296358
21247,2024 10 23,05:27:07.042,-0.287897,-0.637683,0.218944,-0.680102,-1.022492,0.143071,0.007324,-0.061035,-7.324219,-11.59668,0,0,-0.2970783848729625,-0.6429644478958007,0.2143864918316349,-0.6723326106001656,-0.9764404301008492,0.1237342077297293,-0.0627067536494807,2.148468055095971,-3.9252653142064826,-8.490039838257381,-0.684138,0.302588,0.598237,0.287243,-1.149449,0.120609,0.050295,6.164551,23.742676,-23.31543,0,0,-0.6730542786722961,0.3238898448901333,0.6068850954547397,0.2694692049579948,-1.0381691323225666,0.0741783308701448,0.0444208294822656,4.020528996328838,16.172865896548476,-11.78357364828154
21248,2024 10 23,05:27:07.051,-0.287439,-0.636906,0.219587,-0.680817,-1.033235,0.123051,-0.038575,-2.01416,-7.995605,-13.671875,0,0,-0.2965964156293144,-0.6426615255010105,0.2146465172400531,-0.6727568300701573,-0.9792801585958066,0.1237000473432428,-0.0615001659670066,1.9403366523411725,-4.128782298496159,-8.749131596344512,-0.685072,0.29992,0.597655,0.289019,-1.146519,0.091311,0.036622,12.512207,26.184082,-28.259277,0,0,-0.6736551647386813,0.3226913526456266,0.6064235906820026,0.2704466947100951,-1.043586625706438,0.0750349643266376,0.0440308880081524,4.445112896512396,16.673426701721052,-12.607358815867462
21249,2024 10 23,05:27:07.059,-0.286752,-0.635991,0.220294,-0.681732,-1.016144,0.152348,-0.067385,0.366211,-10.192871,-17.578125,0,0,-0.2961041948478486,-0.64232799922596,0.2149288913780504,-0.6732055885666494,-0.9811233506660162,0.1251324449760807,-0.0617944076686563,1.8616303697241137,-4.431986733571351,-9.190581266527284,-0.685538,0.297097,0.597456,0.291235,-1.016633,0.085452,0.167974,9.277344,21.66748,-36.499023,0,0,-0.6742493065017472,0.3214116350133453,0.6059752111479024,0.2714861099745903,-1.0422389444211162,0.0755558161103057,0.0502280436077447,4.686724451686776,16.923129366635,-13.801942025074087
21250,2024 10 23,05:27:07.067,-0.285961,-0.634951,0.221314,-0.682703,-0.999542,0.139653,-0.058596,-4.760742,-8.544922,-20.446777,0,0,-0.2955970351054562,-0.6419591492646619,0.2152481468091479,-0.6736804591383169,-0.9820442831327152,0.1258584727272766,-0.0616344872852235,1.530511751237908,-4.637633496892782,-9.753391053200922,-0.685694,0.294041,0.597603,0.293659,-1.283242,0.186041,0.118168,2.441406,13.305664,-42.96875,0,0,-0.6748215411766598,0.320043103262678,0.6055566005905073,0.2725947544758608,-1.0542890972000605,0.0810800753047904,0.0536250414273575,4.574458529102436,16.74225609830325,-15.260282423820383
21251,2024 10 23,05:27:07.076,-0.285961,-0.634951,0.221314,-0.682703,-0.999542,0.139653,-0.058596,-4.760742,-8.544922,-20.446777,0,0,-0.2951152333501834,-0.6416087418014288,0.2155514394686905,-0.674131586181401,-0.9829191689760794,0.1265481990909128,-0.0614825629209623,1.2159490636760126,-4.832997922048143,-10.288060350540876,-0.685694,0.294041,0.597603,0.293659,-1.283242,0.186041,0.118168,2.441406,13.305664,-42.96875,0,0,-0.6753651641178269,0.3187429980995441,0.6051589205609819,0.2736479667520677,-1.0657367423400572,0.0863281215395509,0.0568521893559896,4.4678059026473145,16.570426493388087,-16.645705802629365
21252,2024 10 23,05:27:07.084,-0.284916,-0.634314,0.222844,-0.683234,-1.141636,0.173345,-0.145512,-6.652832,0.183105,-23.803711,0,0,-0.2946052716826742,-0.6412440047113573,0.215916067495256,-0.6745867068723309,-0.9908550105272754,0.1288880391363671,-0.0656840347749142,0.8225100104922118,-4.582192775945735,-10.963842883013832,-0.68568,0.2901,0.598149,0.296483,-1.238807,-0.015137,-0.04004,22.399902,23.4375,-52.67334,0,0,-0.6758809059119355,0.3173108481945669,0.6048084245329328,0.2747897184144643,-1.0743902552230542,0.0812548654625733,0.0520075798881901,5.364410707514949,16.91378016871868,-18.44708751249789
21253,2024 10 23,05:27:07.092,-0.283292,-0.633569,0.224773,-0.683969,-1.07474,0.185064,0.044435,-3.662109,-2.502441,-35.15625,0,0,-0.2940396080985404,-0.6408602544757894,0.2163589141204931,-0.6750558215287144,-0.9950492600009117,0.1316968371795488,-0.0601780830361685,0.5982790599676012,-4.478205187148448,-12.17346323886314,-0.684735,0.285982,0.599237,0.300445,-1.287637,0.202155,0.220222,-0.244141,9.338379,-71.166992,0,0,-0.6763236106163387,0.3157444057848385,0.6045298533062861,0.2760724824937411,-1.0850525924619014,0.0872998721894447,0.0604183008937806,5.083983122139202,16.535010110282744,-21.083082736873
21254,2024 10 23,05:27:07.101,-0.281611,-0.632547,0.227741,-0.684627,-1.113804,0.152348,-0.094729,-15.136719,3.234863,-41.687012,0,0,-0.2934181776936134,-0.6404445917519999,0.2169280184144685,-0.6755343804522786,-1.000986997000866,0.1327293953205713,-0.06190562888436,-0.1884708430307788,-4.092551777791025,-13.649140676919984,-0.68384,0.280386,0.60069,0.304825,-1.397015,0.08594,0.161138,15.197754,16.296387,-84.899902,0,0,-0.6766994300855218,0.3139764854955966,0.6043378606409717,0.277510108369054,-1.1006507128388063,0.0872318785799724,0.0654542858490916,5.589671666032242,16.523078954768607,-24.27392370002935
21255,2024 10 23,05:27:07.109,-0.279307,-0.631399,0.231261,-0.685449,-1.131871,0.142582,-0.093265,-10.375977,0.061035,-52.79541,0,0,-0.2927126188089327,-0.6399923121643998,0.217644667493745,-0.6760301114296647,-1.0075311971508227,0.1332220255545427,-0.063473597440142,-0.69784615087924,-3.8848724389014735,-15.606454143073986,-0.682352,0.273909,0.602428,0.310565,-1.471725,0.120609,0.090335,13.73291,17.76123,-106.079102,0,0,-0.6769820585812456,0.3119731112208167,0.604242367608923,0.2791628529506013,-1.119204427196866,0.0889007346509738,0.066698321556637,5.99683358273063,16.584986507030177,-28.36418261502788
21256,2024 10 23,05:27:07.117,-0.276185,-0.629888,0.235017,-0.686826,-1.185095,0.196783,-0.079592,-6.408691,-0.366211,-63.781738,0,0,-0.291886237868486,-0.6394870965561797,0.2185132841190578,-0.6765699058581814,-1.0164093872932816,0.1364000742768156,-0.0642795175681349,-0.983388393335278,-3.7089393669564,-18.015218335920288,-0.680324,0.266381,0.604587,0.317293,-1.543992,0.207526,0.170415,13.427734,16.906738,-123.962402,0,0,-0.6771491556521834,0.3096935056597759,0.6042595992284769,0.2810693603030712,-1.1404438058370223,0.0948319979184251,0.0718841554788052,6.368378603594098,16.601074081678668,-33.14409358427649
21257,2024 10 23,05:27:07.126,-0.276185,-0.629888,0.235017,-0.686826,-1.185095,0.196783,-0.079592,-6.408691,-0.366211,-63.781738,0,0,-0.2911011759750617,-0.6390071417283708,0.2193384699131049,-0.6770827105652724,-1.0248436679286177,0.1394192205629748,-0.0650451416897282,-1.254653523668514,-3.54180294860858,-20.30354431912427,-0.680324,0.266381,0.604587,0.317293,-1.543992,0.207526,0.170415,13.427734,16.906738,-123.962402,0,0,-0.6773078978695742,0.3075278803767871,0.6042759692670531,0.2828805422879176,-1.1606212155451714,0.1004666980225038,0.0768106977048649,6.721346373414393,16.616357277594734,-37.68500900506267
21258,2024 10 23,05:27:07.134,-0.272538,-0.627793,0.239516,-0.688644,-1.187536,0.155278,-0.097659,-12.573242,-7.751465,-76.23291,0,0,-0.2901730171763086,-0.6384464346419523,0.2203473464174496,-0.6776607750370087,-1.0329782845321864,0.140212159534826,-0.0666758346052418,-1.8205829474850883,-3.7522860511781504,-23.100012603168057,-0.677954,0.25744,0.607177,0.324714,-1.624073,0.042482,0.093753,20.385742,20.202637,-143.493652,0,0,-0.6773402029760955,0.3050234863579477,0.6044210208037004,0.2849722151735218,-1.1837938047679126,0.0975674631213786,0.0776578128196216,7.404566154743673,16.795671263714997,-42.97544115480953
21259,2024 10 23,05:27:07.142,-0.268206,-0.625118,0.244378,-0.691066,-1.230018,0.197272,-0.141118,-10.925293,-12.329102,-87.463379,0,0,-0.2890746663174932,-0.6377800129098546,0.2215488790965771,-0.6783310362851582,-1.0428302703055772,0.1430651515580847,-0.0703979428749797,-2.275818450110834,-4.181126848619243,-26.318180923009653,-0.674619,0.247582,0.609944,0.334007,-1.711478,0.253426,0.041993,11.047363,19.042969,-168.334961,0,0,-0.6772041428272908,0.3021514120400502,0.6046971697635154,0.2874239544148456,-1.210178014529517,0.1053603899653097,0.0758745721786405,7.586705997006489,16.908036150529245,-49.24341714706905
21260,2024 10 23,05:27:07.151,-0.263096,-0.622028,0.250085,-0.693771,-1.313028,0.229011,-0.145024,-10.437012,-11.657715,-102.905273,0,0,-0.2877757330016185,-0.636992412264362,0.2229756851417483,-0.6791030344709004,-1.056340156790298,0.1473624439801805,-0.0741292457312307,-2.683878127605292,-4.554956256188281,-30.14753552685917,-0.670391,0.236436,0.61321,0.344451,-1.997131,0.331065,0.049318,14.526367,20.690918,-192.993164,0,0,-0.6768634856859261,0.2988656414380477,0.6051228112753396,0.2902753066941033,-1.249525663803041,0.1166456204670442,0.0745467435697085,7.933689047156164,17.097180243002782,-56.4309044897156
21261,2024 10 23,05:27:07.159,-0.257183,-0.618325,0.256646,-0.696896,-1.367229,0.195807,-0.168462,-14.465332,-17.150879,-120.300293,0,0,-0.2862460963515376,-0.6360590416511438,0.2246592008846608,-0.6799926827473554,-1.0718845989507833,0.1497846717811714,-0.0788458834446691,-3.272950821225028,-5.184752393378867,-34.65517340051621,-0.666036,0.223256,0.615971,0.356556,-2.249092,0.421888,-0.090823,13.183594,38.818359,-220.64209,0,0,-0.6763221114016299,0.2950851593661453,0.6056652207115726,0.2935893413593982,-1.2995039806128887,0.131907739443692,0.0662782563912231,8.196184294798355,18.18323918085264,-64.64146376522982
21262,2024 10 23,05:27:07.167,-0.250307,-0.613733,0.264329,-0.700578,-1.392132,0.182134,-0.106449,-14.953613,-20.019531,-140.319824,0,0,-0.2844491415339607,-0.6349427395685866,0.2266426908404278,-0.6810219486099875,-1.087896969003244,0.1514021381921128,-0.0802260392724357,-3.856983930163776,-5.926491323709923,-39.9384059304904,-0.661308,0.2079,0.617981,0.370875,-2.277413,0.43263,-0.132328,16.662598,60.791016,-256.591797,0,0,-0.6755714058315484,0.290725901397838,0.606281009675994,0.2974536242914283,-1.3483994315822443,0.1469438524715074,0.0563479435716619,8.619504980058437,20.31362802181001,-74.23898042696833
21263,2024 10 23,05:27:07.176,-0.250307,-0.613733,0.264329,-0.700578,-1.392132,0.182134,-0.106449,-14.953613,-20.019531,-140.319824,0,0,-0.2827420344572626,-0.6338822525901573,0.2285270062984064,-0.6819997511794882,-1.1031087205530818,0.1529387312825072,-0.0815371873088139,-4.411815383655587,-6.631143307524427,-44.957476833965885,-0.656083,0.189638,0.619473,0.387099,-2.403882,0.441908,-0.270516,13.061523,71.228027,-292.358398,0,0,-0.6745969855399709,0.2856715063279461,0.6069406091921942,0.3019358930768568,-1.401173560003132,0.161692059847932,0.0400047463930788,8.841605881055516,22.85934797071951,-85.14495130561991
21264,2024 10 23,05:27:07.184,-0.241869,-0.609014,0.272673,-0.70445,-1.447798,0.237312,-0.08887,-7.69043,-13.61084,-158.325195,0,0,-0.2806983827343995,-0.6326388399606494,0.230734305983486,-0.6831222636205138,-1.1203431845254277,0.1571573947183818,-0.0819038279433732,-4.575746114472808,-6.980128142148206,-50.62586274226759,-0.656083,0.189638,0.619473,0.387099,-2.403882,0.441908,-0.270516,13.061523,71.228027,-292.358398,0,0,-0.6736712862629723,0.2808698310115488,0.6075672287325844,0.306194048423014,-1.4513089820029754,0.1757028568555354,0.0244787090734249,9.05260173700274,25.277781922183536,-95.50562364033892
21265,2024 10 23,05:27:07.192,-0.23191,-0.603672,0.281725,-0.708822,-1.578661,0.334971,-0.081545,-4.394531,-20.202637,-179.931641,0,0,-0.2782589635976795,-0.6311904979626168,0.2332838406843117,-0.684407250439488,-1.1432590752991565,0.1660480749824627,-0.0818858865462045,-4.566685358749167,-7.641253585040795,-57.09115165515421,-0.649694,0.169167,0.620186,0.405769,-2.530351,0.488296,-0.367687,12.268066,91.430664,-330.322266,0,0,-0.6724724219498237,0.2752846894609713,0.6081981672959552,0.3111727960018633,-1.5052610829028266,0.1913325140127586,0.0048704236197536,9.213374950152604,28.58542602607436,-107.24645575832196
21266,2024 10 23,05:27:07.201,-0.22093,-0.597157,0.291543,-0.71386,-1.571825,0.321787,-0.145512,-4.943848,-28.991699,-199.584961,0,0,-0.2753925154177955,-0.629488823064486,0.2361967986500961,-0.6858798879175135,-1.1646873715341983,0.1738350212333396,-0.0850671922188943,-4.585543490811709,-8.708775855788755,-64.2158421223965,-0.642785,0.145974,0.619569,0.426208,-2.583575,0.424818,-0.381848,8.056641,111.572266,-362.792969,0,0,-0.6709880508523325,0.2688191549879227,0.6087667089311575,0.3169245562017701,-1.5591767787576851,0.2030067883121207,-0.014465497561234,9.155538252644972,32.734768024770645,-120.02378142040588
21267,2024 10 23,05:27:07.209,-0.208279,-0.589094,0.302469,-0.719792,-1.646535,0.334971,-0.002441,-4.882813,-36.987305,-229.675293,0,0,-0.2720368396469057,-0.6274690819112616,0.2395104087175913,-0.6875754935216378,-1.1887797529574884,0.1818918201716726,-0.0809358826079496,-4.600406966271124,-10.122702312999316,-72.48881466627667,-0.634905,0.120715,0.617513,0.448331,-2.588946,0.412122,-0.192877,3.417969,129.516602,-392.211914,0,0,-0.6691838983097158,0.2614139472385266,0.6092040234845996,0.3234948783916815,-1.6106652398198011,0.2134625488965146,-0.0233860726831723,8.868659790012723,37.57385972353211,-133.63318804938558
21268,2024 10 23,05:27:07.217,-0.193602,-0.580432,0.314559,-0.72572,-1.828181,0.402844,-0.056154,2.746582,-32.836914,-257.629395,0,0,-0.2681150976645604,-0.6251172278156985,0.2432628382817117,-0.6894827188455559,-1.220749815309614,0.1929394291630889,-0.0796967884775521,-4.233057517957568,-11.258412897349348,-81.74584368296283,-0.626802,0.09289,0.61352,0.471257,-2.785241,0.358898,-0.201178,10.864258,153.930664,-411.010742,0,0,-0.66706480339423,0.2529877498766003,0.6094198223103696,0.3308829844720975,-1.6693940278288109,0.2207343214516889,-0.0322756690490136,8.968439700512087,43.3916999373555,-147.5020657469163
21269,2024 10 23,05:27:07.226,-0.193602,-0.580432,0.314559,-0.72572,-1.828181,0.402844,-0.056154,2.746582,-32.836914,-257.629395,0,0,-0.2643894427813324,-0.6228829664249135,0.2468276463676261,-0.6912945829032782,-1.2511213745441332,0.2034346577049345,-0.0785196490536745,-3.884075542059689,-12.337337952481882,-90.5400212488147,-0.618593,0.06354,0.607778,0.493873,-2.860439,0.5674,0.489761,20.812988,180.603027,-413.574219,0,0,-0.6646412132245185,0.2435153623827702,0.6093377311948511,0.3390324852484926,-1.7289462764373702,0.2380676053791044,-0.006173835596563,9.560667115486485,50.252266290487725,-160.8056734095705
21270,2024 10 23,05:27:07.234,-0.177099,-0.570206,0.327523,-0.732277,-1.947325,0.467299,0.184576,-0.488281,-44.677734,-286.804199,0,0,-0.2600249206422658,-0.6202491181036678,0.2508624140492448,-0.6933437037581142,-1.2859315558169266,0.2166278748196878,-0.0653648666009907,-3.7142858149567046,-13.954357754857789,-100.35323013637397,-0.618593,0.06354,0.607778,0.493873,-2.860439,0.5674,0.489761,20.812988,180.603027,-413.574219,0,0,-0.6623388025632926,0.2345165942636317,0.6092597446351086,0.346774510986068,-1.7855209126155016,0.2545342251101492,0.0186229061832651,10.12328315971216,56.769804325963335,-173.44410068909195
21271,2024 10 23,05:27:07.242,-0.160115,-0.558398,0.342921,-0.738214,-2.205634,0.267098,0.125492,-25.085449,-45.227051,-310.72998,0,0,-0.2550294246101525,-0.6171565621984844,0.2554653433467826,-0.6955872185702083,-1.3319166780260805,0.2191513810787033,-0.0558220232709412,-4.78284397420887,-15.5179924171149,-110.87206762955527,-0.611551,0.032741,0.599172,0.515681,-2.068423,0.271493,-0.194342,13.427734,204.101563,-412.353516,0,0,-0.6597994124351279,0.2244278145504501,0.6087553574033531,0.3552198354367646,-1.7996660169847265,0.2553821638546417,0.0079746608741018,10.28850570172655,64.13639225966517,-185.38957145463732
21272,2024 10 23,05:27:07.251,-0.142013,-0.544566,0.359312,-0.744429,-2.125553,0.278329,0.403821,-22.460938,-64.025879,-335.693359,0,0,-0.2493786033796448,-0.6135270340885601,0.2606576761794434,-0.6980293076416979,-1.3715984941247763,0.2221102620247682,-0.0328398721073941,-5.666748675498426,-17.94338674625915,-122.11313219807752,-0.60063,0.003643,0.591472,0.537951,-1.866756,0.54445,-0.244636,-12.329102,156.616211,-433.105469,0,0,-0.6568409418133714,0.2133885738229276,0.6078911895331853,0.3643563936649263,-1.8030205161354904,0.2698355556619096,-0.0046558721696032,9.157625316640225,68.76038319668191,-197.77536633190547
21273,2024 10 23,05:27:07.259,-0.123809,-0.528894,0.377426,-0.749995,-2.297433,0.255867,0.245125,-53.344727,-65.551758,-349.79248,0,0,-0.2431001232106626,-0.6092953823841321,0.2664960923704713,-0.700627592259613,-1.4178902194185374,0.2237980989235297,-0.0189416285020244,-8.050647591723505,-20.32380530894619,-133.49709958817365,-0.588008,-0.026137,0.582462,0.560625,-1.275429,0.598651,-0.766137,-3.845215,166.19873,-446.472168,0,1,-0.6533992947227028,0.2014122951317812,0.606619730056526,0.37416982398168,-1.7766409403287156,0.2862763278788141,-0.042729928561123,8.507483300808211,73.63230053684782,-210.2102064153102
21274,2024 10 23,05:27:07.267,-0.106343,-0.512054,0.396496,-0.754508,-2.825282,0.114261,-0.384777,-64.51416,-80.444336,-351.928711,0,0,-0.2362622670501294,-0.6044333132649254,0.2729960877519477,-0.7033216126466324,-1.4882598084476104,0.2183212439773532,-0.0372333970769232,-10.87382321213733,-23.32983184349888,-144.41868015876494,-0.572557,-0.053612,0.573304,0.583632,-1.308145,0.44142,-0.820338,-27.648926,114.685059,-444.824219,0,0,-0.6493571799865676,0.1886610803751921,0.6049539435536997,0.384642932782596,-1.7532161433122797,0.2940335114848734,-0.0816103321330669,6.6996628357678,75.68493846000543,-221.9409070445447
21275,2024 10 23,05:27:07.276,-0.106343,-0.512054,0.396496,-0.754508,-2.825282,0.114261,-0.384777,-64.51416,-80.444336,-351.928711,0,0,-0.2297663036976229,-0.5998143476016792,0.2791710833643503,-0.7058809320143008,-1.55511091802523,0.2131182317784856,-0.054610577223077,-13.555840051530463,-26.185557051323933,-154.7941817008267,-0.554868,-0.075664,0.564577,0.60634,-0.815943,0.884304,-0.073244,-70.007324,79.223633,-414.0625,0,0,-0.6446327209872392,0.1754448263564325,0.6029350963760146,0.3957277861434661,-1.7063524861466657,0.3235470359106298,-0.0811920155264135,2.864313493979409,75.86187318700516,-231.54698669231743
21276,2024 10 23,05:27:07.284,-0.090008,-0.49051,0.414162,-0.761425,-1.840876,0.101077,-0.013672,-42.907715,-150.756836,-363.525391,0,0,-0.2227783885127418,-0.5943491302215952,0.2859206291961328,-0.7086581354135857,-1.5693991721239686,0.2075161701895613,-0.0525636483619232,-15.02343379895394,-32.41412099875774,-165.23074216578536,-0.554868,-0.075664,0.564577,0.60634,-0.815943,0.884304,-0.073244,-70.007324,79.223633,-414.0625,0,0,-0.6401444849378772,0.1628893850386109,0.6010171915572138,0.4062583968362928,-1.6618320118393324,0.3515848841150983,-0.0807946147500928,-0.7792683807195613,76.0299611776549,-240.6727623577016
21277,2024 10 23,05:27:07.292,-0.073363,-0.467873,0.43253,-0.767223,-1.309122,-0.154302,0.248054,-58.959961,-109.680176,-366.943359,0,0,-0.2153076190871047,-0.5880253237105154,0.2932510977363262,-0.7115863786429063,-1.55638531351777,0.1894252616800832,-0.037532765943827,-17.22026015900624,-36.27742374881985,-175.31637300749608,-0.543754,-0.094462,0.55284,0.624321,1.884823,2.599689,-0.281747,-82.092285,138.85498,-291.564941,0,0,-0.6353249606909834,0.1500218157866803,0.5986083319793531,0.4171615269944781,-1.4844992612473658,0.4639900899093434,-0.0908422340125882,-4.844919211683584,79.17121211877216,-243.21737128981647
21278,2024 10 23,05:27:07.301,-0.05085,-0.448954,0.447897,-0.77152,-1.433149,0.211921,0.244636,-2.319336,-66.223145,-387.145996,0,0,-0.2070847381327494,-0.5810717575249896,0.3009833928495098,-0.714583059710761,-1.5502234978418816,0.190550048596079,-0.0234243276466357,-16.475213951055927,-37.774709811378855,-185.90785415712125,-0.548612,-0.108074,0.538776,0.630131,1.673391,0.731956,-2.95175,-17.822266,187.133789,-30.029297,0,0,-0.6309893126564342,0.1371170249973463,0.5956167153803855,0.4278100006447543,-1.3266047481849974,0.4773883854138762,-0.2338876223119588,-5.493786551099404,84.56934096283355,-232.5579675753256
21279,2024 10 23,05:27:07.309,-0.027034,-0.428483,0.462593,-0.77568,-1.147984,0.294443,0.498062,6.04248,-73.913574,-402.587891,0,0,-0.1980822012261119,-0.5734423196487402,0.3090638732070344,-0.717637906725223,-1.5301115229497877,0.195744696166275,0.002649988735696,-15.349329253503129,-39.58165302080991,-196.7418559992652,-0.555044,-0.095174,0.533886,0.630741,0.226081,2.1236,1.116733,-147.644043,-57.922363,159.484863,0,0,-0.6271920470236124,0.125502473747479,0.5925301796113661,0.4379565506125165,-1.2489704607757477,0.5596989661431824,-0.1663565911963608,-12.601299373544435,77.44475576469186,-212.9558260465593
21280,2024 10 23,05:27:07.317,-0.002464,-0.408773,0.476609,-0.778294,-0.913114,0.136723,0.415052,5.249023,-48.706055,-393.798828,0,0,-0.1883012911648063,-0.5652088536663031,0.3174411295466826,-0.7206707113889618,-1.499261646802298,0.1927936113579613,0.0232700892989112,-14.31941164082797,-40.03787311976941,-206.5947045993019,-0.569464,-0.081125,0.529514,0.623494,-0.022462,1.340861,-0.932157,-89.96582,42.297363,239.196777,0,0,-0.6243056446724318,0.115171100060105,0.5893793706307978,0.4472334230818907,-1.18764503773696,0.5987570678360232,-0.2046466116365428,-16.469525404867213,75.68738612645727,-190.3481958942313
21281,2024 10 23,05:27:07.326,-0.002464,-0.408773,0.476609,-0.778294,-0.913114,0.136723,0.415052,5.249023,-48.706055,-393.798828,0,0,-0.179009426606566,-0.557387060982988,0.3253995230693485,-0.7235518758195136,-1.4699542644621828,0.1899900807900632,0.0428591848339657,-13.340989908786572,-40.47128221378093,-215.9549107693368,-0.58227,-0.063572,0.529308,0.613802,-0.348155,1.3184,0.023438,-47.729492,-66.711426,261.047363,0,0,-0.6222038624388102,0.1062339450570997,0.5863758020992579,0.4555618519277961,-1.145670535850112,0.634739214444222,-0.1932423810547156,-18.03252373462385,68.5674455201344,-167.7784179495197
21282,2024 10 23,05:27:07.334,0.023176,-0.390867,0.486985,-0.780725,-0.834986,0.239753,0.59035,54.931641,-31.066895,-373.352051,0,0,-0.1689001552762377,-0.5490610579338385,0.333478796915881,-0.7264105320285379,-1.4382058512390736,0.1924782267505601,0.0702337255922674,-9.927358363347242,-40.00106285309188,-223.82476778087,-0.58227,-0.063572,0.529308,0.613802,-0.348155,1.3184,0.023438,-47.729492,-66.711426,261.047363,0,0,-0.6202071693168697,0.0977436478042447,0.5835224119942949,0.4634738593314063,-1.1057947590576065,0.6689222537220109,-0.1824083620019798,-19.517372147892655,61.80350194412768,-146.33712890204373
21283,2024 10 23,05:27:07.342,0.047885,-0.374279,0.494876,-0.782764,-0.841334,0.491714,0.223151,63.110352,-22.644043,-346.679688,0,0,-0.1580608975124258,-0.5403219550371465,0.3415486570700869,-0.729228205427111,-1.4083622586771198,0.2074400154130321,0.077879589312654,-6.2754728451798805,-39.133211860437285,-229.96751379182643,-0.59348,-0.047606,0.531981,0.602089,-0.607929,1.070833,0.178716,-15.808105,-37.536621,243.774414,0,0,-0.6188708108510261,0.0904761654140325,0.5809453413945801,0.4704046163648359,-1.0809014711047262,0.6890177910359103,-0.1643521439018808,-19.331908790498023,56.83649579692129,-126.83155175694154
21284,2024 10 23,05:27:07.351,0.069282,-0.357082,0.499017,-0.786559,-0.551286,0.621113,0.822779,82.15332,-66.223145,-292.724609,0,0,-0.1466937526368045,-0.5311599572852892,0.3494220742165826,-0.7320947451557553,-1.3655084457432638,0.2281236646423804,0.1151245598470213,-1.8540332029208857,-40.48770851741542,-233.1053685522351,-0.604013,-0.035762,0.535248,0.589406,-0.614277,0.882839,-0.380383,24.414063,-38.208008,223.022461,0,0,-0.6181279203084749,0.0841642571433309,0.578660474324851,0.4763546855465941,-1.0575702475494897,0.6987088514841148,-0.1751536867067868,-17.144610200973123,52.084270607075226,-109.33885111909446
21285,2024 10 23,05:27:07.359,0.082833,-0.345426,0.502811,-0.788036,-0.567888,0.837428,-0.340342,46.813965,-26.672363,-173.64502,0,0,-0.1352174150049643,-0.5218732594210247,0.3570915205057534,-0.7348918078979676,-1.3256274234561003,0.2585888814102615,0.0923512318546702,0.5793667072251591,-39.79694124154464,-230.1323511246233,-0.613204,-0.025536,0.540524,0.575467,-0.522477,0.667989,-0.070803,55.725098,-35.522461,218.322754,0,0,-0.6178817242930511,0.0786792442861643,0.5767536506086084,0.4813103012692643,-1.030815585172015,0.697172858909909,-0.1699361523714475,-13.501124790924468,47.70393402672146,-92.95577086313972
21286,2024 10 23,05:27:07.367,0.087175,-0.338532,0.500998,-0.791705,-0.097171,1.257851,0.425794,54.992676,-58.59375,-40.405273,0,0,-0.124097794254716,-0.5127061964499734,0.3642868444804658,-0.7377324675030692,-1.2642046022832951,0.3085519873397484,0.1090233702619367,3.3000321718639016,-40.73678167946741,-220.64599721839213,-0.623072,-0.017029,0.545198,0.56058,-0.299326,0.569842,-0.505875,60.546875,-23.31543,220.825195,0,0,-0.6181412380783985,0.0738938320718561,0.575175868078178,0.4852737862058011,-0.9942411059134144,0.6908063159644136,-0.1867330947528751,-9.798724801378244,44.15296582538539,-77.26672256998273
21287,2024 10 23,05:27:07.376,0.081037,-0.338265,0.498484,-0.794055,0.026856,1.047884,0.186041,-3.173828,-37.963867,97.961426,0,0,-0.1138410545419802,-0.5039841366274748,0.3709967022564425,-0.7405485941279157,-1.1996515721691303,0.3455185879727609,0.1128742517488399,2.9763391632707066,-40.59813594549404,-204.71562605747252,-0.631907,-0.007073,0.550925,0.545092,-0.390149,0.466323,-0.479995,59.265137,-49.987793,230.224609,0,0,-0.6188295261744786,0.0698454904682633,0.573963324674269,0.488264696895511,-0.9640365006177436,0.6795821501661928,-0.2013961900152313,-6.345531711309331,39.44592788411612,-61.89215599148359
21288,2024 10 23,05:27:07.384,0.081037,-0.338265,0.498484,-0.794055,0.026856,1.047884,0.186041,-3.173828,-37.963867,97.961426,0,0,-0.1040971518148812,-0.495698179796101,0.3773710671436203,-0.7432239144215199,-1.138326193560674,0.3806368585741229,0.1165325891613979,2.6688308051071714,-40.46642249821934,-189.5817734545989,-0.631907,-0.007073,0.550925,0.545092,-0.390149,0.466323,-0.479995,59.265137,-49.987793,230.224609,0,0,-0.6194833998657547,0.0659995659448501,0.5728114084405556,0.4911060620507355,-0.9353421255868564,0.6689191926578831,-0.2153261305144697,-3.0649982757438634,34.97424183991031,-47.28631774190941
21289,2024 10 23,05:27:07.392,0.067069,-0.344729,0.494084,-0.795326,-0.290536,0.881863,0.199713,-13.61084,-18.676758,201.843262,0,0,-0.0955388442241372,-0.4881497208062959,0.3832067137864393,-0.7458290187004439,-1.09593668388264,0.4056981656454167,0.120691609703328,1.8548472648518128,-39.376939273308366,-170.01052168186897,-0.640185,0.00443,0.556626,0.529444,-0.479507,0.371593,-0.54738,46.142578,-59.204102,236.450195,0,0,-0.620518479872467,0.0629210876476076,0.5720021380185277,0.4930229589481987,-0.9125503693075137,0.6540528830249889,-0.2319288239887462,-0.6046194619566703,30.2653246479148,-33.09949210481393
21290,2024 10 23,05:27:07.401,0.048425,-0.354746,0.488675,-0.795617,-0.4214,0.654317,0.339366,-37.17041,-9.765625,255.371094,0,0,-0.0883406520129303,-0.4814795347659811,0.3884801280971174,-0.7483184177654217,-1.062209849688508,0.4181291073631458,0.1316253292181616,-0.0964155983907779,-37.89637355964295,-148.7414408977755,-0.647664,0.017856,0.562101,0.514058,-0.601093,0.305673,-0.460463,26.794434,-75.439453,242.30957,0,0,-0.6218757558788437,0.0606678332652272,0.5715070811176013,0.4940747110007887,-0.8969775008421378,0.6366338888737394,-0.2433555327893089,0.7653332111411634,24.980085765519057,-19.329038999573232
21291,2024 10 23,05:27:07.409,0.028114,-0.36641,0.483193,-0.794656,-0.417005,0.411634,0.361339,-43.945313,0.549316,270.629883,0,0,-0.0825179194122838,-0.475726058027682,0.3932157716922615,-0.7506352968771506,-1.0299496072040826,0.4178043519949885,0.1431110127572535,-2.288860468471239,-35.97408908166079,-127.77287470288672,-0.654663,0.033237,0.566901,0.498933,-0.734886,0.267586,-0.394055,7.324219,-82.580566,250.854492,0,0,-0.6235151180849015,0.0592962916019658,0.5712767770617212,0.4943176254507492,-0.8888729258000309,0.6181814944300523,-0.2508905061498435,1.093277500584105,19.6020531772431,-5.81986244959457
21292,2024 10 23,05:27:07.417,0.008467,-0.378444,0.477599,-0.792847,-0.284188,0.320811,0.423841,-44.494629,11.84082,262.817383,0,0,-0.0779686734416696,-0.4708619551262979,0.3974349331076484,-0.7527458820332931,-0.9926615268438784,0.412954684395239,0.1571475121193908,-4.399148895047677,-33.58334362757775,-108.24336181774235,-0.661491,0.050457,0.570607,0.484036,-0.858425,0.24366,-0.286142,-14.160156,-84.960938,260.375977,0,0,-0.6254139121806563,0.0588543270218675,0.5712432882086351,0.4938035441782117,-0.8873505295100292,0.5994554197085498,-0.2526530808423513,0.3306058255549,14.373903618380943,7.489929522885158
21293,2024 10 23,05:27:07.426,-0.009307,-0.390645,0.472352,-0.790059,-0.206549,0.22071,0.375988,-44.372559,29.47998,243.469238,0,0,-0.0745355897695861,-0.466851107369983,0.4011807864522659,-0.7546115379316284,-0.9533559005016844,0.403342450175477,0.1680895365134212,-6.397819400295293,-30.430177446198854,-90.65773182685524,-0.668149,0.06925,0.573036,0.469479,-0.881375,0.245613,-0.250496,-35.339355,-84.960938,267.150879,0,0,-0.6275506665716235,0.0593741106707742,0.5713329237982033,0.4925873169693012,-0.8870517530345278,0.5817632987231223,-0.2525452268002336,-1.452892215722845,9.407161537461898,20.4729769967409
21294,2024 10 23,05:27:07.434,-0.009307,-0.390645,0.472352,-0.790059,-0.206549,0.22071,0.375988,-44.372559,29.47998,243.469238,0,0,-0.0712741602811068,-0.4630408020014839,0.4047393471296526,-0.756383911035047,-0.9160155554766004,0.3942108276667031,0.1784844596877501,-8.296556380280528,-27.434669573888915,-73.95138333551247,-0.668149,0.06925,0.573036,0.469479,-0.881375,0.245613,-0.250496,-35.339355,-84.960938,267.150879,0,0,-0.6295805832430423,0.0598679051372355,0.5714180776082931,0.4914319011208361,-0.8867679153828013,0.5649557837869661,-0.252442765460222,-3.147215354936703,4.688756560588802,32.80687209690386
21295,2024 10 23,05:27:07.442,-0.024368,-0.40334,0.467453,-0.786264,-0.322275,0.225105,0.320322,-40.649414,55.053711,220.153809,0,0,-0.0689288522670515,-0.4600557619014097,0.40787502977317,-0.7578779154832946,-0.8863285277027703,0.3857555362833679,0.1855763367033626,-9.9141992612665,-23.310250545194467,-59.24612371873685,-0.674292,0.089812,0.574505,0.455201,-0.911649,0.303232,-0.176275,-56.091309,-92.651367,275.146484,0,0,-0.6318161540808902,0.0613651098803737,0.5715724237278784,0.4896203560647942,-0.8880119696136612,0.5518695945976178,-0.2486343771872108,-5.794420037189868,-0.1782496174406382,44.92385269205866
21296,2024 10 23,05:27:07.451,-0.037374,-0.416381,0.463212,-0.781451,-0.539079,0.292978,0.175787,-44.311523,70.251465,201.599121,0,0,-0.0673511096536989,-0.4578720238063392,0.4106418782845115,-0.7590565697091298,-0.8689660513176317,0.3811166594691995,0.1850868698681945,-11.634065448203176,-18.632164767934743,-46.20386148280001,-0.679717,0.112134,0.57539,0.440837,-1.020539,0.363292,-0.091311,-71.289063,-102.355957,284.118652,0,0,-0.6342111963768456,0.063903554386355,0.5717633025414844,0.4871811882615545,-0.8946383211329781,0.5424407148677368,-0.2407682083278503,-9.069152185330374,-5.287134986568607,56.88359265745572
21297,2024 10 23,05:27:07.459,-0.049943,-0.429089,0.459354,-0.776133,-0.767113,0.41554,0.100101,-50.292969,67.810059,197.570801,0,0,-0.0664807041710139,-0.4564328726160222,0.4130774843702858,-0.7599103912236733,-0.8638733987517501,0.3828378264957395,0.1808375763747848,-13.567010625793015,-14.310053579538003,-34.01512835866001,-0.684431,0.13572,0.575776,0.426164,-1.129917,0.406262,-0.021485,-79.772949,-109.741211,290.95459,0,0,-0.6367221865580034,0.0674943766670372,0.5719639374144101,0.4841303288484768,-0.9064022550763292,0.5356317791243499,-0.2298040479114577,-12.604342026063856,-10.509838787240176,68.58714252458293
21298,2024 10 23,05:27:07.467,-0.064327,-0.440862,0.455629,-0.770653,-0.908231,0.447768,0.028321,-62.927246,46.325684,210.876465,0,0,-0.0663730189624632,-0.455654328985221,0.4152050601517715,-0.7604475216624895,-0.8660912788141625,0.3860843351709525,0.1732117475560455,-16.035022394503365,-11.278266700561105,-21.770548690727004,-0.6883,0.159956,0.575994,0.41096,-1.264687,0.407727,0.063967,-83.068848,-118.591309,294.555664,0,0,-0.6393010772301032,0.0721174578336854,0.5721654405436896,0.4804718124060529,-0.9243164923225128,0.5292365401681324,-0.2151154955158848,-16.127567324760662,-15.913912297878168,79.88556859835379
21299,2024 10 23,05:27:07.476,-0.081402,-0.451499,0.451301,-0.765408,-0.842799,0.388195,0.090335,-69.519043,21.606445,233.215332,0,0,-0.06712446801434,-0.45544656253596,0.4170098571441829,-0.760695545579365,-0.8649266648734544,0.3861898684124049,0.1690679101782432,-18.709223424778195,-9.634031115533048,-9.021254656190653,-0.691297,0.184421,0.57609,0.395244,-1.369671,0.417005,0.073733,-82.458496,-125.244141,296.081543,0,0,-0.641900873368598,0.0777326349420011,0.572361668516505,0.4762104217857502,-0.946584217706387,0.5236249631597257,-0.2006730707400906,-19.444113758522622,-21.380423732984266,90.69536731843608
21300,2024 10 23,05:27:07.484,-0.081402,-0.451499,0.451301,-0.765408,-0.842799,0.388195,0.090335,-69.519043,21.606445,233.215332,0,0,-0.067838344613623,-0.4552491844091619,0.4187244142869737,-0.7609311683003968,-0.8638202816297816,0.3862901249917846,0.1651312646693311,-21.249714403539286,-8.072007309756396,3.090574676618882,-0.691297,0.184421,0.57609,0.395244,-1.369671,0.417005,0.073733,-82.458496,-125.244141,296.081543,0,0,-0.644370679700168,0.083067053194901,0.5725480850906798,0.4721621006964627,-0.9677385568210676,0.5182939650017394,-0.186952767203086,-22.59483287059649,-26.57360959633505,100.96467610251428
21301,2024 10 23,05:27:07.492,-0.100491,-0.462144,0.445833,-0.759972,-0.743187,0.254402,0.120609,-67.749023,16.113281,257.69043,0,0,-0.0694709773829419,-0.4555939251887038,0.420079843572625,-0.7608832098853768,-0.8577886175482926,0.3796957187421954,0.1629051514358645,-23.57467983336232,-6.862742894268576,15.820567442787937,-0.693382,0.209003,0.576268,0.378754,-1.522507,0.471206,0.133793,-78.430176,-134.82666,299.438477,0,0,-0.6468212457151596,0.089363850535156,0.5727340808361457,0.4674916956616395,-0.9954769789800142,0.5159395667516524,-0.1709154788429317,-25.38660002706667,-31.986262116518297,110.88836614738857
21302,2024 10 23,05:27:07.501,-0.120177,-0.473708,0.438768,-0.754083,-0.69924,0.157231,0.160161,-55.664063,25.634766,275.512695,0,0,-0.0720062785137948,-0.4564996289292686,0.4210142513939938,-0.760543199391108,-0.849861186670878,0.3685724828050856,0.1627679438640712,-25.17914899169421,-5.2378674495551465,28.80517382064854,-0.694755,0.233306,0.576593,0.361145,-1.695364,0.50148,0.207526,-69.091797,-141.357422,302.67334,0,0,-0.6492179334294016,0.0965609580083982,0.5729270267943385,0.4621743608785575,-1.0304713300310135,0.5152165884140698,-0.1519934049007851,-27.571859875713336,-37.45482011069238,120.47761484001911
21303,2024 10 23,05:27:07.509,-0.139156,-0.486645,0.430128,-0.747531,-0.739769,0.063478,0.160161,-39.0625,43.273926,284.118652,0,0,-0.075363764588105,-0.4580068974828052,0.421469938824294,-0.7598925894215526,-0.8443565773373339,0.3533177586648313,0.1626375966708676,-25.87331654210949,-2.812277777077389,41.57084772961611,-0.695635,0.256798,0.576964,0.342431,-1.845759,0.457045,0.17481,-55.480957,-144.40918,303.466797,0,0,-0.6515387867579314,0.1045728101079782,0.5731288754546215,0.4561871928346296,-1.0712357135294628,0.5123080089933663,-0.1356532346557458,-28.96731473192767,-42.80253810515776,129.62707394801816
21304,2024 10 23,05:27:07.517,-0.156667,-0.500908,0.420014,-0.740361,-0.876003,0.086428,0.131352,-18.920898,62.561035,286.010742,0,0,-0.0794289263586998,-0.4601519526086649,0.4213971418830793,-0.7589160099504749,-0.8459388984704672,0.3399732707315896,0.1610733168373243,-25.525695615004015,0.4563878617764811,53.79284244313531,-0.695858,0.279145,0.577609,0.322842,-1.970275,0.322764,0.146977,-41.564941,-149.291992,299.133301,0,0,-0.6537547474200348,0.1133014196025793,0.5733528816818905,0.4495199331928981,-1.1161876778529896,0.502830808543698,-0.1215217229229585,-29.59719604533128,-48.12701079989987,138.10238530061724
21305,2024 10 23,05:27:07.526,-0.172927,-0.515796,0.40887,-0.732718,-1.042024,0.106449,0.057619,-5.126953,72.998047,284.301758,0,0,-0.0841038300407648,-0.4629341549782316,0.4207707847889253,-0.7576061094529511,-0.8557431535469437,0.3282970571950102,0.155900600995458,-24.50575848425381,4.083470818687657,65.31828822097853,-0.695168,0.300362,0.578682,0.302741,-2.088443,0.200201,0.139653,-31.555176,-157.226563,291.503906,0,0,-0.655825410049033,0.1226544486224504,0.5736193375977959,0.4421809865332531,-1.16480044396034,0.487699318116513,-0.1084629867768106,-29.69509504306472,-53.58198840990487,145.77246133558637
21306,2024 10 23,05:27:07.534,-0.172927,-0.515796,0.40887,-0.732718,-1.042024,0.106449,0.057619,-5.126953,72.998047,284.301758,0,0,-0.0885449885387265,-0.46557724722932,0.420175745549479,-0.7563617039803034,-0.8650571958695965,0.3172046543352596,0.1509865209456851,-23.536818210041123,7.529199627753274,76.26746170992959,-0.695168,0.300362,0.578682,0.302741,-2.088443,0.200201,0.139653,-31.555176,-157.226563,291.503906,0,0,-0.6577925395465813,0.1315398261913278,0.573872470717906,0.4352089872065904,-1.210982571762323,0.4733244022106874,-0.0960571874379701,-29.788099090911484,-58.76421713940962,153.05903356880702
21307,2024 10 23,05:27:07.542,-0.188221,-0.530786,0.396934,-0.724764,-1.199255,0.15186,0.008789,4.333496,77.331543,281.494141,0,0,-0.0935287891117902,-0.468837684867854,0.4190136582720051,-0.7547818187812882,-0.8817670860761166,0.3089374216184966,0.1438766448984008,-22.143302499539065,11.01931679636561,86.52879567443311,-0.693543,0.320327,0.580285,0.282239,-2.233955,0.051271,0.18067,-20.446777,-164.428711,282.287598,0,0,-0.6595800625692523,0.1409791848817614,0.5741930971820107,0.4275604878462609,-1.262131193174207,0.452221732100153,-0.0822208280660716,-29.321032986365907,-64.04744183243913,159.52046179036665
21308,2024 10 23,05:27:07.551,-0.203104,-0.545379,0.38441,-0.716616,-1.318888,0.178228,-0.030763,8.422852,74.21875,280.517578,0,0,-0.0990075496562007,-0.4726647506244613,0.4172834753584048,-0.7528735278422238,-0.9036231317723108,0.3024019505375718,0.1351446626534808,-20.61499477456211,14.17928845654733,96.22823479071148,-0.691238,0.338832,0.58223,0.261516,-2.298898,-0.161138,0.239753,-8.728027,-166.625977,272.094727,0,0,-0.6611629594407896,0.1508718256376734,0.5745949423229101,0.4192582634539478,-1.3139695335154966,0.4215537454951454,-0.066122136662768,-28.29138268704761,-69.17636859081718,165.1491750508483
21309,2024 10 23,05:27:07.559,-0.217987,-0.559283,0.371451,-0.708314,-1.417524,0.180181,-0.04297,8.972168,68.115234,280.761719,0,0,-0.1049565221733906,-0.4769956630932382,0.4149918515904846,-0.7506455514501127,-0.9293181751836952,0.2962909030106932,0.1262389295208068,-19.135636635834,16.87608573371996,105.4549090011759,-0.688413,0.355879,0.58434,0.240797,-2.337474,-0.396985,0.243171,-0.061035,-168.212891,262.145996,0,0,-0.6625254614687501,0.1611221843557897,0.5750821952067646,0.4103352002812505,-1.3651447568397217,0.3806268082203881,-0.0506574798296296,-26.87986530269523,-74.12819471127632,169.99901609830587
21310,2024 10 23,05:27:07.567,-0.23305,-0.572408,0.358077,-0.69987,-1.436079,0.15186,-0.020997,8.422852,61.401367,282.592773,0,0,-0.1113611960647211,-0.4817662799385763,0.4121461090109603,-0.748106773877607,-0.9546562164245104,0.2890693578601586,0.1188771330447664,-17.7577122040423,19.102349797033963,114.3118022011171,-0.68493,0.371709,0.586713,0.220161,-2.418531,-0.616718,0.295419,6.652832,-170.715332,252.258301,0,0,-0.6636456883953126,0.1716515251380002,0.5756637354464265,0.4008264902671879,-1.4178140689977357,0.3307595678093686,-0.0333536558381481,-25.203230437560467,-78.9575515757125,174.11198034339057
21311,2024 10 23,05:27:07.576,-0.248056,-0.585202,0.344276,-0.690999,-1.467818,0.131352,0.015137,10.437012,62.5,285.461426,0,0,-0.118195936261485,-0.4869380659416474,0.4087526035604123,-0.7452513851837267,-0.9803143056032848,0.2811834899671506,0.1136901263925281,-16.347975993840183,21.272232307182264,122.86928339106124,-0.681178,0.386282,0.588855,0.20008,-2.45613,-0.872585,0.233894,10.559082,-163.513184,240.905762,0,0,-0.6645223039755469,0.1823830488811002,0.576323298674105,0.3907891657538285,-1.4697298655478488,0.2705923394189002,-0.0199912730462407,-23.415114815682443,-83.18533319692688,177.45166942622103
21312,2024 10 23,05:27:07.584,-0.248056,-0.585202,0.344276,-0.690999,-1.467818,0.131352,0.015137,10.437012,62.5,285.461426,0,0,-0.1246889394484108,-0.4918512626445651,0.4055287733823917,-0.7425387659245404,-1.0046894903231207,0.2736919154687931,0.1087624700729017,-15.008726594148174,23.33362069182315,130.99889052150817,-0.681178,0.386282,0.588855,0.20008,-2.45613,-0.872585,0.233894,10.559082,-163.513184,240.905762,0,0,-0.6653550887767695,0.1925779964370452,0.5769498837403997,0.381253707466137,-1.5190498722704564,0.2134334724479551,-0.0072970093939286,-21.71640497489832,-87.20172573708052,180.62437405491
21313,2024 10 23,05:27:07.592,-0.262802,-0.597959,0.33007,-0.681494,-1.530808,0.120609,0.045412,12.817383,66.833496,287.963867,0,0,-0.1315945924759902,-0.4971566495123368,0.4017558347132721,-0.7394865276283134,-1.0309954158069647,0.2660377696953535,0.1055949465692566,-13.617421114440765,25.508614457231992,138.84713934543277,-0.677,0.399433,0.591066,0.181009,-2.411206,-1.283731,0.181646,11.779785,-160.400391,221.984863,0,0,-0.665937334337931,0.2029207466151929,0.5776556895533796,0.3712414720928302,-1.5636576786569334,0.1385752488255574,0.0021501410757677,-20.041595476153404,-90.8616590002265,182.69239850216445
21314,2024 10 23,05:27:07.601,-0.277158,-0.610738,0.315624,-0.671241,-1.621632,0.089358,0.062014,14.709473,73.120117,288.94043,0,0,-0.1388727628521907,-0.5028357170367199,0.3974492429776085,-0.7360742512468976,-1.0605272450166163,0.2572037812105858,0.1034158992407938,-12.201076408718729,27.889189584370392,146.35180387816112,-0.672073,0.411145,0.593665,0.163827,-2.315989,-1.723197,0.106449,6.225586,-157.226563,194.641113,0,0,-0.6662441176210344,0.2133319592844333,0.5784561550757107,0.3608707484881887,-1.6012742447240866,0.0454866363842795,0.0073650840219793,-18.728236402345733,-94.17990420021518,183.28983422705625
21315,2024 10 23,05:27:07.609,-0.290992,-0.623452,0.301026,-0.660314,-1.69097,0.04297,0.078616,16.906738,78.491211,288.024902,0,0,-0.1464787247095812,-0.5088665311848839,0.392628080828728,-0.7322862386845527,-1.0920493827657856,0.2464920921500565,0.1021759042787541,-10.74568568828279,30.41929065515187,153.43545878425306,-0.665838,0.421507,0.597294,0.149104,-1.972716,-2.000549,0.3296,-5.371094,-162.04834,159.423828,0,0,-0.6662238117399827,0.2237407113202116,0.5793980473219251,0.3502824110637792,-1.6198463324878822,-0.0568151454349344,0.0234768298208803,-18.06037928222845,-97.5733259902044,182.09653391570345
21316,2024 10 23,05:27:07.617,-0.304251,-0.63608,0.286417,-0.64869,-1.767144,-0.019044,0.078616,18.066406,85.021973,286.315918,0,0,-0.1543673384741021,-0.5152272046256396,0.3873175267872916,-0.728106426750325,-1.125804113627496,0.2332152875425536,0.1009979090648163,-9.30508110386865,33.14942477239428,160.0794817450404,-0.657787,0.430229,0.602845,0.137098,-1.205603,-1.996155,0.729514,-16.784668,-180.053711,111.816406,0,0,-0.6658019711529836,0.234065125754201,0.5805703949558289,0.3396231905105902,-1.599134165863488,-0.1537821381631877,0.0587786883298363,-17.996593718117023,-101.69734524069418,178.58252751991822
21317,2024 10 23,05:27:07.626,-0.31694,-0.648523,0.271984,-0.636389,-1.844295,-0.120609,0.085452,17.456055,91.186523,282.836914,0,0,-0.162495971550397,-0.5218919943943576,0.3815508504479269,-0.7235205554128087,-1.1617286579461212,0.215524073165426,0.1002206136115755,-7.967024298675216,36.05127968377456,166.21735335778837,-0.646215,0.437616,0.612287,0.126502,-1.483444,-2.058168,1.317911,-27.34375,-234.436035,69.519043,0,0,-0.6648226225953344,0.2442426694664909,0.5821562252080374,0.3289671309850607,-1.5933496575703137,-0.2490014312550283,0.1217353039133445,-18.46395153221117,-108.33427972865944,173.12935329392232
21318,2024 10 23,05:27:07.634,-0.31694,-0.648523,0.271984,-0.636389,-1.844295,-0.120609,0.085452,17.456055,91.186523,282.836914,0,0,-0.1702181729728772,-0.5282235446746397,0.3760725079255306,-0.7191639776421682,-1.195856975048815,0.1987174195071546,0.0994821829309967,-6.695870333741455,38.80804184958583,172.04833138989895,-0.633196,0.443333,0.623686,0.116335,-2.489822,-2.520585,2.166082,-19.897461,-237.121582,49.133301,0,0,-0.6632412914655677,0.2541971859931664,0.5842327139476355,0.3183355244358076,-1.638173274691798,-0.3625806096922769,0.2239526387176773,-18.53562700560061,-114.77364484222647,166.9295506792262
21319,2024 10 23,05:27:07.642,-0.329004,-0.660668,0.257944,-0.62349,-1.918027,-0.252449,0.086428,16.357422,96.557617,277.099609,0,0,-0.1781574643242333,-0.5348457674409077,0.370166082529254,-0.7143802787600597,-1.231965476296374,0.1761590985317969,0.0988294737844469,-5.543205717054383,41.69552060710653,177.300895270404,-0.633196,0.443333,0.623686,0.116335,-2.489822,-2.520585,2.166082,-19.897461,-237.121582,49.133301,0,0,-0.6617390268922893,0.263653976693508,0.5862053782502537,0.3082354982140172,-1.6807557109572078,-0.4704808292076631,0.3210591067817934,-18.603718705320578,-120.89104170011515,161.03973819526487
21320,2024 10 23,05:27:07.651,-0.340306,-0.672347,0.244442,-0.610238,-1.956603,-0.435072,0.088382,15.441895,100.036621,268.005371,0,0,-0.1862648911080216,-0.5417208290688623,0.3638798784027913,-0.7091731648220567,-1.2681973524815553,0.145597543605207,0.0983071000952245,-4.493950681201663,44.6125756267512,181.83611905688377,-0.62553,0.445912,0.630514,0.111026,-2.596759,-2.935148,1.970763,-8.789063,-111.755371,23.376465,0,0,-0.6599285755476748,0.2727668778588326,0.5884208093377409,0.2983750233033163,-1.7265558754093473,-0.5937141877472799,0.4035443014427037,-18.112985920054548,-120.43425816510938,154.15657453550162
21321,2024 10 23,05:27:07.659,-0.350639,-0.68362,0.231511,-0.596757,-2.063051,-0.619648,0.082522,17.456055,104.248047,257.995605,0,0,-0.1944835965526205,-0.5488157876154192,0.3572614344826517,-0.7035523565809538,-1.3079400348574777,0.1073352664249467,0.0975178450904633,-3.39645039714158,47.59434919541364,185.6440933540396,-0.62405,0.445147,0.632362,0.111915,-1.869686,-3.265236,1.05472,-10.742188,-11.84082,-12.878418,0,0,-0.6581346467702911,0.2813858839658909,0.5906178688708538,0.2890520221381505,-1.73371238163888,-0.7272902783599159,0.4361030863705685,-17.74444602405182,-115.0045862568539,145.80482490872652
21322,2024 10 23,05:27:07.667,-0.360194,-0.69422,0.219019,-0.583394,-2.262764,-0.860378,-0.023927,17.150879,99.182129,248.718262,0,0,-0.2027691167249895,-0.5560859982346482,0.3503493127585191,-0.6975444387519061,-1.3556812331146038,0.0589496031036993,0.0914456028359401,-2.369083927284501,50.17373818564296,188.7978017863376,-0.622021,0.443947,0.63416,0.117646,-1.40434,-2.823817,0.829127,-50.537109,-4.02832,-51.086426,0,0,-0.6563289644317765,0.2895139397675964,0.592794975427311,0.2804817210312429,-1.717243762556936,-0.8321166144419201,0.4557542820520401,-19.384079172849223,-109.4557729440112,135.96026236329018
21323,2024 10 23,05:27:07.676,-0.369063,-0.70309,0.206414,-0.571709,-2.151921,-1.214881,-0.023927,22.399902,71.411133,234.25293,0,0,-0.21108381088874,-0.5634361983229158,0.3431525471205932,-0.6912526668143107,-1.3954932214588736,-0.0047419270514856,0.0856769726941431,-1.1306346309202753,51.23560792636081,191.0705581970207,-0.618568,0.443085,0.636504,0.126145,-1.343303,-2.036195,0.901883,-72.937012,-2.319336,-71.716309,0,0,-0.6544409162101876,0.2971924927792165,0.5949804266559454,0.2727648849796808,-1.6985467244290888,-0.8923205337198241,0.4780607179494381,-22.061725814206763,-104.09895109681062,125.57643379512568
21324,2024 10 23,05:27:07.684,-0.369063,-0.70309,0.206414,-0.571709,-2.151921,-1.214881,-0.023927,22.399902,71.411133,234.25293,0,0,-0.218982770344303,-0.57041888840677,0.3363156197645635,-0.6852754834735952,-1.4333146103859298,-0.0652488806989113,0.080196774059436,0.0458922006257387,52.244384180042765,193.22967678716964,-0.615272,0.441969,0.6386,0.135256,-1.367229,-1.240761,1.04593,-68.664551,5.187988,-76.599121,0,0,-0.6524824703996782,0.3044313181402557,0.5971614053231481,0.2658894407306967,-1.6819808382076344,-0.9097425570338328,0.5064541820519661,-24.391867073496424,-98.63460414197009,115.4676560553694
21325,2024 10 23,05:27:07.692,-0.376457,-0.710774,0.19384,-0.5617,-1.92584,-1.548875,-0.090335,34.240723,60.302734,215.393066,0,0,-0.2268564818270878,-0.5774366439864316,0.3291918387763353,-0.6790967092999155,-1.4579408798666331,-0.1394301866639657,0.0716701853564641,1.7556337405944522,52.64730167104062,194.3378462478112,-0.615272,0.441969,0.6386,0.135256,-1.367229,-1.240761,1.04593,-68.664551,5.187988,-76.599121,0,0,-0.6506219468796943,0.3113082022332429,0.5992333350569907,0.2593577686941619,-1.6662432462972527,-0.926293479182141,0.5334279729493678,-26.605501269821605,-93.44347453487156,105.86431720260092
21326,2024 10 23,05:27:07.701,-0.381582,-0.718315,0.181917,-0.552562,-1.747612,-1.779351,-0.295419,51.269531,62.316895,191.894531,0,0,-0.2345927577357334,-0.5844805617871099,0.3218280968375185,-0.6727699738349198,-1.4724244358733016,-0.2214262273307675,0.0533157260886409,4.23132860356473,53.13078133748859,194.2156804854206,-0.6123,0.439936,0.640871,0.144325,-6.189154,0.292489,-0.706565,-73.791504,-4.333496,-99.487305,0,0,-0.6487058495357095,0.3177395921215807,0.6013152183041411,0.2536061302594538,-1.89238878398239,-0.8653543552230339,0.4714283243018994,-28.964801406330523,-88.987975608128,95.59673609247086
21327,2024 10 23,05:27:07.709,-0.384285,-0.725982,0.171053,-0.544074,-1.707572,-1.846248,-0.579119,64.331055,70.43457,165.100098,0,0,-0.2420773698489468,-0.5915556336977544,0.3142893419956426,-0.6663351751431736,-1.4841818140796366,-0.3026673159642291,0.0216939897842089,7.2363149233864945,53.99597077061416,192.75990136114956,-0.616003,0.431214,0.639607,0.159679,-1.488327,1.086459,1.14066,82.03125,240.05127,-138.305664,0,0,-0.647070707058924,0.3234133125155016,0.6032298073889341,0.2489097737464811,-1.8721856947832705,-0.7677636874618823,0.5048899080868045,-23.414998836014,-72.5360133277216,83.90161608784732
21328,2024 10 23,05:27:07.717,-0.385599,-0.732863,0.162291,-0.536551,-1.720267,-1.986877,-0.946806,57.006836,66.162109,131.652832,0,0,-0.2492534513564994,-0.5986210020128666,0.3066894248958605,-0.659845966386015,-1.4959860733756547,-0.3868778001660177,-0.0267310097050015,9.72484097721717,54.604277682083456,189.70454789309204,-0.633912,0.415563,0.62718,0.179189,-0.240242,2.102603,-3.556261,-6.835938,288.574219,-177.612305,0,0,-0.6464127717059778,0.3280207968897266,0.6044273170194874,0.245423735059157,-1.7905885100441068,-0.6242453530887881,0.3018323626824641,-22.58604579421329,-54.48050171133551,70.82592003345493
21329,2024 10 23,05:27:07.726,-0.386094,-0.737806,0.15572,-0.531342,-1.714408,-2.219794,-1.096713,46.020508,44.98291,95.214844,0,0,-0.2560954787886744,-0.6055802519122233,0.2991409536510674,-0.6534207680667142,-1.506907169706872,-0.4785236101577168,-0.0802301092197514,11.539624328356313,54.12320929797928,184.98006269843745,-0.634188,0.401893,0.634462,0.183699,-1.926328,0.232917,1.9859,91.430664,-11.535645,-179.748535,0,0,-0.6458015331206789,0.3317144070452402,0.605929051168513,0.2423374983061992,-1.7973754845419014,-0.5813872354343488,0.3860357445483409,-16.88521030450263,-52.333258875768735,58.29719728178219
21330,2024 10 23,05:27:07.734,-0.386094,-0.737806,0.15572,-0.531342,-1.714408,-2.219794,-1.096713,46.020508,44.98291,95.214844,0,0,-0.2625954048492407,-0.6121915393166122,0.2919699059685141,-0.6473168296633784,-1.5172822112215285,-0.5655871296498309,-0.1310542537587638,13.263668511938496,53.66619433308031,180.4918017635156,-0.64682,0.382864,0.628378,0.200448,-0.456069,0.514176,-0.832545,69.580078,301.452637,-203.918457,1,0,-0.6458524564646448,0.3342718866929782,0.6070514986100873,0.2402430233908892,-1.7303101603148063,-0.5266090736626313,0.3251067073209239,-12.561945889277494,-34.64396408198029,45.18641456769308
21331,2024 10 23,05:27:07.742,-0.386018,-0.740687,0.151094,-0.528719,-1.79107,-2.428297,-1.077181,35.217285,18.920898,62.316895,0,0,-0.2687665346067787,-0.6186163123507815,0.2849261106700884,-0.6413869381802095,-1.530971600660452,-0.6587226231673393,-0.1783605910708256,14.361349336341572,51.92892951642629,174.5830564253398,-0.64682,0.382864,0.628378,0.200448,-0.456069,0.514176,-0.832545,69.580078,301.452637,-203.918457,0,0,-0.6459008336414125,0.3367014923583293,0.608117823679583,0.2382532722213448,-1.666598102299066,-0.4745698199794997,0.2672241219548776,-8.454844694813618,-17.83913402788128,32.73117098930842
21332,2024 10 23,05:27:07.751,-0.385264,-0.741205,0.147791,-0.529476,-1.71099,-2.452223,-0.807642,28.808594,-19.775391,28.320313,0,0,-0.2745914078764397,-0.6247457467332425,0.278069355136584,-0.635791391271199,-1.5399725206274293,-0.7483976420089723,-0.2098246615172843,15.083711569524493,48.343713490604976,167.2699192540728,-0.653012,0.366143,0.628342,0.211424,-1.44145,-0.523942,1.099643,51.940918,70.007324,-182.067871,0,0,-0.6462563919593418,0.3381735677404128,0.6091290324956038,0.2369118086102775,-1.6553406971841125,-0.4770384289805247,0.3088450658571338,-5.435056560072936,-13.446811126487214,21.991218889842997
21333,2024 10 23,05:27:07.759,-0.381978,-0.740551,0.146444,-0.533134,-3.96643,-1.876034,-0.843287,49.072266,-26.000977,-30.212402,0,0,-0.2799607374826177,-0.6305360093965803,0.2714880873797547,-0.630658521707639,-1.6612953945960578,-0.8047794599085236,-0.2414977784414201,16.78313929104827,44.62647896607472,157.39580319136914,-0.659011,0.354386,0.624177,0.224761,-1.364299,-0.095218,-0.079592,6.835938,192.626953,-131.652832,0,0,-0.6468941223613747,0.3389841893533922,0.6098814308708236,0.2363042681797636,-1.6407886123249067,-0.4579474075314985,0.289423212564277,-4.821506832069288,-3.143122920162853,14.309016345350845
21334,2024 10 23,05:27:07.767,-0.375391,-0.734597,0.151941,-0.544392,-2.284738,-2.333567,-1.49321,-45.654297,-167.297363,-148.4375,0,0,-0.2847322506084868,-0.6357390589267512,0.265510733010767,-0.6263451956222571,-1.6924675248662548,-0.8812188369130974,-0.3040833895193491,13.661267476495857,34.03028686777098,142.1041380318007,-0.665793,0.34616,0.618143,0.234075,-1.348674,0.13184,-0.172369,6.713867,126.586914,-73.791504,0,0,-0.6478390662433059,0.3393429798857225,0.6102945093272824,0.2361928047707754,-1.6261828817086614,-0.4284580371549235,0.2663336019360632,-4.244738140465824,3.3433789258452906,9.9039903280833
21335,2024 10 23,05:27:07.776,-0.370386,-0.716869,0.156119,-0.569684,-0.353038,-0.77102,-0.661641,35.400391,-291.381836,-198.364258,1,0,-0.2890149380780625,-0.6397955559804136,0.2600411463602286,-0.6235121358411442,-1.625496048622942,-0.8757088950674425,-0.3219612700433817,14.748223652671062,17.759680724382427,125.08071823021064,-0.672087,0.339413,0.61327,0.238742,-1.231483,0.188482,0.11182,38.757324,128.479004,-40.222168,0,0,-0.6490514629311405,0.3393464808914364,0.6104432838609182,0.2363202645322367,-1.6064478876232282,-0.3976110352971773,0.25860792183926,-2.0946350334425325,9.600160179553026,7.397682411679136
21336,2024 10 23,05:27:07.784,-0.358691,-0.703927,0.154919,-0.593151,-0.648946,1.507859,0.569842,88.684082,-236.938477,-184.936523,0,0,-0.2924987411741593,-0.6430021281813929,0.2547850390422171,-0.621994079049087,-1.5766685461917949,-0.7565305003140703,-0.2773711065412126,18.44501657003751,5.024772838163303,109.5798561687001,-0.678723,0.332805,0.608395,0.241727,-0.917508,0.086917,-0.043947,44.250488,98.510742,-30.151367,0,0,-0.6505350397845835,0.3390194068468645,0.6103408696678722,0.2365906013056248,-1.5720008932420666,-0.3733846335323185,0.243480175747297,0.222621118229594,14.045689270575371,5.520229941095179
21337,2024 10 23,05:27:07.792,-0.358691,-0.703927,0.154919,-0.593151,-0.648946,1.507859,0.569842,88.684082,-236.938477,-184.936523,0,0,-0.2958083541154513,-0.6460483717723232,0.2497917370901063,-0.6205519250966326,-1.530282418882205,-0.6433110252983667,-0.2350104512141519,21.95696984153563,-7.073389653744864,94.85403721026508,-0.678723,0.332805,0.608395,0.241727,-0.917508,0.086917,-0.043947,44.250488,98.510742,-30.151367,0,0,-0.6519444377953543,0.3387086865045213,0.6102435761844784,0.2368474212403435,-1.5392762485799631,-0.3503695518557025,0.2291088169599322,2.424014462318114,18.268941907046603,3.73665009404042
21338,2024 10 23,05:27:07.801,-0.35545,-0.692142,0.16315,-0.606611,-1.016633,1.355022,0.65627,-109.008789,-128.173828,-167.724609,0,0,-0.2987904364096788,-0.6483530531837071,0.2454596502356009,-0.6198548788418009,-1.5045999479380947,-0.5433943740334484,-0.1904464286534443,15.408681899458848,-13.12841157105762,81.72510489975183,-0.683305,0.327271,0.605574,0.243452,-0.676778,-0.028809,0.397473,37.29248,72.631836,-28.503418,0,0,-0.6535124659055865,0.3381368021792952,0.6100100973752545,0.2371776501783264,-1.4961513361509649,-0.3342915242629174,0.2375270261119356,4.167437739202208,20.987086611694277,2.124646689338398
21339,2024 10 23,05:27:07.809,-0.357707,-0.678961,0.178534,-0.615779,-0.956084,0.78518,-0.848659,-150.390625,-105.957031,-179.504395,0,0,-0.3017362645891948,-0.6498834505245217,0.2421133677238209,-0.6196510848997109,-1.47717415054119,-0.476965655331776,-0.2233570572207721,7.118716554485905,-17.76984254250474,68.66362990476424,-0.686372,0.3232,0.603485,0.24544,-0.642598,-0.000488,0.07178,20.874023,44.433594,-25.878906,0,0,-0.6551554426103071,0.3373899620703305,0.6096838425064917,0.23759076766941,-1.4534736693434165,-0.3176013480497715,0.2292396748063388,5.002767002242098,22.15941198110956,0.7244690548714783
21340,2024 10 23,05:27:07.817,-0.357758,-0.66506,0.194702,-0.625936,-1.0889,-0.368175,-0.789087,-157.226563,-96.496582,-195.983887,0,0,-0.3045373513597351,-0.6506422779982955,0.2397427993376298,-0.6199653306547254,-1.4577604430141304,-0.4715261225651871,-0.2516435543597335,-1.098547423238391,-21.706179515379503,55.43125405952602,-0.686827,0.321013,0.603697,0.246515,-0.924345,0.089846,0.185064,8.056641,4.394531,-22.216797,0,0,-0.6567390204797918,0.3365711139668139,0.6093845003811671,0.2380369792859395,-1.4270172358762456,-0.2972289806472829,0.2270308910660218,5.155460702129992,21.27116793205408,-0.4225942478720957
21341,2024 10 23,05:27:07.826,-0.354779,-0.655836,0.207745,-0.63313,-1.443892,-0.717307,-0.96878,-64.51416,-58.959961,-154.602051,0,0,-0.3070494337917483,-0.6509019640983807,0.2381429093707484,-0.620623564121989,-1.4570670208634238,-0.4838151664369277,-0.2875003766417468,-4.269328052076472,-23.568868589610528,44.92958880654972,-0.687198,0.319259,0.603795,0.247515,-1.02884,0.074709,-0.013184,9.277344,13.427734,-17.944336,0,0,-0.6582619694558022,0.3357055082684732,0.6091050253621088,0.2385108803216425,-1.4071083740824333,-0.2786320816149188,0.2150201465127207,5.361554867023492,20.87899623545137,-1.298681335478491
21342,2024 10 23,05:27:07.834,-0.350094,-0.650407,0.212401,-0.639758,-1.354534,-0.080569,0.074709,0.427246,-47.119141,-86.242676,0,0,-0.3092016621021609,-0.6508772158934617,0.2368558139022109,-0.6215802859158895,-1.4519403698202524,-0.4636528581150813,-0.2693899078096595,-4.034499349472648,-24.74638221013,38.37097556622223,-0.687902,0.317674,0.603519,0.248272,-1.033723,0.076174,0.0,9.155273,14.099121,-12.390137,0,0,-0.6597439709830121,0.3348039328550495,0.6088257240940033,0.2389989363055604,-1.3884391053783116,-0.2608917775341728,0.2042691391870847,5.551240773672317,20.540002473678804,-1.8532541187045664
21343,2024 10 23,05:27:07.842,-0.350094,-0.650407,0.212401,-0.639758,-1.354534,-0.080569,0.074709,0.427246,-47.119141,-86.242676,0,0,-0.3112462789970528,-0.6508537050987886,0.2356330732071004,-0.622489171620095,-1.4470700513292396,-0.4444986652093272,-0.2521849624191765,-3.811412081999016,-25.8650201496235,32.14029298791112,-0.687902,0.317674,0.603519,0.248272,-1.033723,0.076174,0.0,9.155273,14.099121,-12.390137,0,0,-0.6611518724338614,0.333947436212297,0.608560387889303,0.2394625894902823,-1.370703300109396,-0.2440384886574642,0.1940556822277304,5.731442384988702,20.217958399994863,-2.380098262769338
21344,2024 10 23,05:27:07.851,-0.349356,-0.646446,0.215281,-0.643205,-1.169469,0.099612,-0.188482,-24.719238,-46.630859,-40.95459,0,0,-0.3131517650472001,-0.6506333198438492,0.2346154695467453,-0.6235249630390902,-1.4331899987627774,-0.4172931319488608,-0.2489998142982177,-4.856803377899065,-26.903312092142325,28.48554883851556,-0.688559,0.316326,0.60325,0.248825,-1.045442,0.121586,0.060549,7.93457,12.878418,-10.131836,0,0,-0.6625222288121683,0.3330663644016822,0.6082948684948378,0.2399307100157682,-1.354440235103926,-0.225757264224591,0.1873803481163439,5.841598765739266,19.85098137999512,-2.7676851496308714
21345,2024 10 23,05:27:07.859,-0.349406,-0.642268,0.216542,-0.646929,-0.997101,0.334483,0.186529,-20.324707,-51.269531,-32.653809,0,0,-0.3149644767948401,-0.6502150538516567,0.2337117960694081,-0.6246951648871357,-1.4113855488246383,-0.3797043253514178,-0.2272233735833068,-5.630198559004112,-28.12162303753521,25.428580946589783,-0.6893,0.315043,0.602891,0.24927,-1.060091,0.12891,-0.000488,8.911133,13.061523,-8.544922,0,0,-0.6638611173715598,0.332165196181598,0.6080246750700959,0.2403976745149798,-1.3397227733487296,-0.2080239010133614,0.1779869307105267,5.995075477452303,19.51150846099536,-3.056546992149328
21346,2024 10 23,05:27:07.867,-0.350974,-0.638099,0.219408,-0.649235,-0.943388,-0.012696,-0.227058,-48.400879,-40.527344,-28.564453,0,0,-0.3167649529550981,-0.6496092511590739,0.2329966062659376,-0.6259221566427788,-1.3879856713834064,-0.3613539090838469,-0.2272151049041414,-7.768732581053906,-28.741909085658445,22.728929249260293,-0.690049,0.313792,0.602593,0.249499,-1.061556,0.119633,0.055177,10.375977,12.634277,-6.774902,0,0,-0.6651705115029818,0.3312465363725181,0.6077530913165912,0.2408527407892308,-1.325814434681293,-0.1916410559626933,0.1718464341750004,6.214120553579686,19.167646887945597,-3.242464742541862
21347,2024 10 23,05:27:07.876,-0.351958,-0.63403,0.221041,-0.65213,-0.776879,-0.095706,-0.351085,-16.723633,-46.630859,-23.803711,0,0,-0.3185246053073431,-0.6488302886011202,0.2323988259526407,-0.6272325488106398,-1.357430337814236,-0.3480715136296545,-0.2334085996589343,-8.216477602001211,-29.63635658137552,20.40229723679728,-0.691023,0.312489,0.602055,0.249735,-1.044954,0.139653,0.052248,11.047363,16.540527,-5.859375,0,0,-0.6664631359278327,0.3303086595538922,0.6074681867507615,0.2412968537497693,-1.3117714129472282,-0.1750763531645586,0.1658665124662503,6.455782675900702,19.036290893548315,-3.3733102554147685
21348,2024 10 23,05:27:07.884,-0.351302,-0.631896,0.220805,-0.65463,-0.937529,0.182623,0.103519,5.67627,-26.916504,-15.441895,0,0,-0.320163475041976,-0.6479835741710642,0.2318191346550087,-0.6286024213701078,-1.3364352709235243,-0.3215367879481718,-0.2165622196759876,-7.52184022190115,-29.500363952306746,18.61008762495741,-0.692195,0.311026,0.601384,0.249933,-1.002472,0.13184,0.04883,12.939453,18.920898,-5.79834,0,0,-0.667749729131441,0.3293445265761976,0.6071639774132235,0.2417286610622808,-1.2963064422998667,-0.1597305355063307,0.1600146868429378,6.779966192105666,19.0305212488709,-3.49456174264403
21349,2024 10 23,05:27:07.892,-0.351302,-0.631896,0.220805,-0.65463,-0.937529,0.182623,0.103519,5.67627,-26.916504,-15.441895,0,0,-0.3217204012898771,-0.647179195462511,0.2312684279222582,-0.6299038003016024,-1.316489957377348,-0.2963287985507632,-0.2005581586921882,-6.861934710806092,-29.371170954691404,16.90748849370954,-0.692195,0.311026,0.601384,0.249933,-1.002472,0.13184,0.04883,12.939453,18.920898,-5.79834,0,0,-0.668971992674869,0.3284286002473877,0.6068749785425623,0.2421388780091667,-1.281614720184873,-0.1451520087310141,0.1544554525007909,7.087940532500383,19.02504008642736,-3.609750655511829
21350,2024 10 23,05:27:07.901,-0.351163,-0.630192,0.221095,-0.656246,-0.9429,0.177252,-0.188971,-6.408691,-26.550293,-15.014648,0,0,-0.3231925312253833,-0.6463298356893855,0.2307597565261453,-0.6312209102865223,-1.2978104595084805,-0.272649758623225,-0.1999788007575788,-6.839272525265787,-29.230127056956835,15.311381669024062,-0.693352,0.309584,0.600787,0.249953,-0.982452,0.145512,0.104007,13.85498,16.235352,-4.455566,0,0,-0.6701909930411255,0.3274863702350183,0.6065705796154343,0.2425295841087084,-1.2666565841756297,-0.1306188082944634,0.1519330298757513,7.426292505875364,18.885555682105988,-3.6520414227362368
21351,2024 10 23,05:27:07.909,-0.350466,-0.628025,0.221207,-0.658654,-0.857936,0.216803,-0.144536,4.943848,-29.296875,-23.498535,0,0,-0.3245562046641141,-0.6454145939049163,0.230282118699838,-0.6325925647721962,-1.2758167365330564,-0.2481771206920637,-0.1972066607196998,-6.250116499002496,-29.233464454108997,13.370885835572857,-0.694515,0.308127,0.600277,0.249748,-0.975616,0.123539,0.076662,15.686035,15.197754,-3.173828,0,0,-0.6714071933890692,0.3265184017232674,0.6062559006346625,0.242890504903273,-1.252104554966848,-0.1179109178797402,0.1481694783819638,7.839279630581595,18.70116559800069,-3.628130751599425
21352,2024 10 23,05:27:07.917,-0.348946,-0.626635,0.22189,-0.660552,-0.89114,0.244636,-0.292489,4.455566,-14.099121,-29.785156,0,0,-0.3257756944309083,-0.6444756142096705,0.2298625127648461,-0.6339905365335864,-1.2565828997064037,-0.2235364646574605,-0.2019707776837148,-5.714832374052372,-28.476747281403544,11.213083743794211,-0.695581,0.306736,0.599869,0.249473,-0.990753,0.115238,0.044923,16.113281,13.183594,-2.746582,0,0,-0.6726158837196157,0.325529281637104,0.6059365556029294,0.2432196296581093,-1.2390369772185057,-0.1062534719857532,0.1430071544628656,8.252979699052515,18.42528701810065,-3.584053314019453
21353,2024 10 23,05:27:07.926,-0.346891,-0.625638,0.223184,-0.662142,-0.929716,0.22071,-0.143071,3.90625,-4.455566,-35.400391,0,0,-0.3268314597093629,-0.6435337334991869,0.2295285871266038,-0.635398109706907,-1.2402395547210832,-0.2013241414245875,-0.1990257887995291,-5.233778255349753,-27.275688217333368,8.882410006604502,-0.696703,0.305404,0.599355,0.249215,-0.965361,0.104007,0.082034,13.85498,15.869141,-2.01416,0,0,-0.6738202395336349,0.3245230175552488,0.6056074778227828,0.2435193981752038,-1.2253531783575804,-0.0957404483864655,0.1399584967397223,8.53307971409989,18.29747971719562,-3.5055586483184804
