frame,date,time,quaternion_x,quaternion_y,quaternion_z,quaternion_w,accel_x,accel_y,accel_z,gyro_x,gyro_y,gyro_z,HS,TO
9630,2024 9 19,12:41:52.792,0.733897,-0.005462,-0.677518,0.047774,-0.811001,-0.832061,0.191942,120.918716,-80.12574,0.508908,0,0
9631,2024 9 19,12:41:52.800,0.734914,-0.003918,-0.676345,0.049299,-0.79273,-0.821755,0.209081,122.295654,-80.8517,-1.462838,0,0
9632,2024 9 19,12:41:52.809,0.738499,0.001825,-0.671914,0.055805,-0.730177,-0.773107,0.2847,123.261139,-74.82933,-6.598953,0,0
9633,2024 9 19,12:41:52.817,0.741916,0.008313,-0.667395,0.063482,-0.707295,-0.70628,0.36202,121.673172,-62.982372,-9.910496,0,0
9634,2024 9 19,12:41:52.825,0.744716,0.01463,-0.663369,0.071264,-0.719578,-0.64075,0.430267,116.454231,-52.737366,-12.963002,0,0
9635,2024 9 19,12:41:52.834,0.746909,0.020382,-0.659884,0.078884,-0.702383,-0.60451,0.498381,108.922073,-44.119408,-16.993723,0,0
9636,2024 9 19,12:41:52.842,0.74841,0.466763,0.025196,0.470484,-0.164971,-0.812502,0.455336,101.151764,-33.004395,-20.915726,0,0
9637,2024 9 19,12:41:52.850,0.748756,0.026691,-0.656428,0.088005,-0.041158,-0.860421,0.445419,99.361588,-30.443636,-21.819305,0,0
9638,2024 9 19,12:41:52.859,0.744163,0.02875,-0.66025,0.097077,0.132407,-0.507505,1.355532,137.598419,104.344803,-76.769661,0,0
9639,2024 9 19,12:41:52.867,0.734853,0.033201,-0.668481,0.109141,-0.944482,0.017649,0.282033,107.554626,138.33931,-83.332588,0,0
9640,2024 9 19,12:41:52.875,0.723782,0.039091,-0.677701,0.123159,-1.477755,0.782983,1.019776,150.910995,167.177094,-92.444633,0,0
9641,2024 9 19,12:41:52.884,0.713871,0.042829,-0.68555,0.135749,-1.521593,0.709643,0.589921,108.352798,120.208305,-102.62262,0,0
9642,2024 9 19,12:41:52.892,0.706484,0.041853,-0.691274,0.145511,-2.261459,0.202751,1.066087,48.172108,86.901573,-105.597977,0,0
9643,2024 9 19,12:41:52.900,0.704674,0.041614,-0.692676,0.147902,-2.442704,0.078578,1.182734,33.429657,78.742432,-106.326843,0,0
9644,2024 9 19,12:41:52.909,0.706046,0.036368,-0.690926,0.150922,-2.159616,-0.33971,0.707997,-18.341812,-74.283813,-75.399734,0,0
9645,2024 9 19,12:41:52.917,0.714833,0.029314,-0.68185,0.152179,-0.901398,-0.433944,-0.09315,-32.911289,-163.160309,-45.058067,0,0
9646,2024 9 19,12:41:52.925,0.720647,0.024949,-0.675507,0.153892,-0.364952,-0.369683,-0.495477,-8.807577,-73.32151,-32.9552,0,0
9647,2024 9 19,12:41:52.934,0.720302,0.02434,-0.675316,0.156538,-0.841932,-0.13399,-0.299441,23.291445,17.283112,-24.98201,0,0
9648,2024 9 19,12:41:52.942,0.71863,0.024945,-0.676488,0.159077,-1.099911,-0.005898,0.087013,21.140688,22.78722,-19.230703,0,0
9649,2024 9 19,12:41:52.950,0.718197,0.025101,-0.676791,0.159734,-1.166731,0.027279,0.187108,20.58362,24.212839,-17.741058,0,0
9650,2024 9 19,12:41:52.959,0.717812,0.024635,-0.676971,0.160775,-1.140728,-0.093722,0.075331,4.184937,-0.108616,-17.262018,0,0
9651,2024 9 19,12:41:52.967,0.718387,0.023651,-0.67612,0.161927,-0.935851,-0.138148,-0.0347,4.070083,-13.814991,-17.046236,0,0
9652,2024 9 19,12:41:52.975,0.7185,0.023051,-0.675741,0.163096,-0.940647,-0.113545,-0.056811,5.288977,-1.796183,-13.552949,0,0
9653,2024 9 19,12:41:52.984,0.718349,0.022564,-0.675758,0.163754,-1.022722,-0.118694,-0.008286,-0.478809,-0.931884,-8.87965,0,0
9654,2024 9 19,12:41:52.992,0.718674,0.021912,-0.675388,0.163945,-0.996299,0.82828,-0.354916,-3.634543,-8.903001,-5.664975,0,0
9655,2024 9 19,12:41:53.000,0.718762,0.021734,-0.675287,0.163997,-0.989098,-0.145749,-0.030424,-4.494599,-11.07543,-4.788856,0,0
9656,2024 9 19,12:41:53.009,0.719142,0.021322,-0.674892,0.164014,-0.949032,-0.123361,-0.066992,-3.320304,-8.101736,-3.049395,0,0
9657,2024 9 19,12:41:53.017,0.719293,0.020973,-0.674782,0.163848,-0.968173,-0.122786,-0.074658,-4.709055,-2.092388,-0.94161,0,0
9658,2024 9 19,12:41:53.025,0.719293,0.020973,-0.674782,0.163848,-0.980176,-0.125079,-0.06488,-3.650782,0.461231,-0.44092,0,0
9659,2024 9 19,12:41:53.034,0.71915,0.020608,-0.675023,0.163529,-1.002075,-0.111745,-0.032773,-1.605769,2.970546,-0.867967,0,0
9660,2024 9 19,12:41:53.042,0.718941,0.020527,-0.67523,0.163606,-1.021173,-0.108314,-0.033081,-0.024425,2.505866,-2.687557,0,0
9661,2024 9 19,12:41:53.050,0.718784,0.020381,-0.67531,0.163983,-1.01968,-0.101429,-0.033516,1.946957,1.200759,-5.855958,0,0
9662,2024 9 19,12:41:53.059,0.718739,0.020338,-0.675333,0.164091,-1.01925,-0.099448,-0.033641,2.514141,0.825269,-6.767534,0,0
9663,2024 9 19,12:41:53.067,0.718576,0.020153,-0.67536,0.164713,-1.015672,-0.108197,-0.044037,4.146113,0.673278,-9.319444,0,0
9664,2024 9 19,12:41:53.075,0.71843,0.019873,-0.675291,0.165666,-0.986739,-0.111096,-0.045006,5.569335,-0.27486,-11.570696,0,0
9665,2024 9 19,12:41:53.084,0.718139,0.019586,-0.675342,0.16675,-1.001919,-0.118127,-0.047008,6.159427,2.278396,-12.404243,0,0
9666,2024 9 19,12:41:53.092,0.717837,0.019319,-0.675391,0.167879,-0.997515,-0.129451,-0.034936,6.419717,1.536997,-12.394355,0,0
9667,2024 9 19,12:41:53.100,0.717594,0.019072,-0.675378,0.168996,-0.994495,-0.129755,-0.043622,6.795929,0.676075,-11.836859,0,0
9668,2024 9 19,12:41:53.109,0.717521,0.018997,-0.675374,0.169331,-0.993589,-0.129847,-0.04623,6.908875,0.417612,-11.669489,0,0
9669,2024 9 19,12:41:53.117,0.717373,0.018831,-0.675329,0.17015,-0.987886,-0.131571,-0.044983,6.561337,0.212263,-10.855545,0,0
9670,2024 9 19,12:41:53.125,0.717209,0.018675,-0.675272,0.171086,-0.987504,-0.127698,-0.043927,6.540154,0.192063,-10.142734,0,0
9671,2024 9 19,12:41:53.134,0.717046,0.018548,-0.675204,0.172044,-0.994808,-0.128535,-0.041917,6.828804,0.017225,-9.629256,0,0
9672,2024 9 19,12:41:53.142,0.716928,0.018423,-0.675082,0.173027,-1.003787,-0.127112,-0.038606,6.833717,-1.045652,-9.849307,0,0
9673,2024 9 19,12:41:53.150,0.716874,0.018253,-0.674883,0.17404,-0.999865,-0.124993,-0.041268,6.835242,-2.339616,-10.294865,0,0
9674,2024 9 19,12:41:53.159,0.716857,0.0182,-0.674821,0.174356,-0.998641,-0.124332,-0.042099,6.835718,-2.743714,-10.43401,0,0
9675,2024 9 19,12:41:53.167,0.716858,0.018019,-0.674616,0.175166,-0.991921,-0.126458,-0.044361,6.669153,-3.079103,-10.727811,0,0
9676,2024 9 19,12:41:53.175,0.716877,0.017764,-0.674356,0.176111,-0.981483,-0.130788,-0.049066,6.159325,-3.434519,-10.820719,0,0
9677,2024 9 19,12:41:53.184,0.716876,0.01749,-0.674111,0.177078,-0.970537,-0.133491,-0.058189,5.789904,-2.760225,-10.601634,0,0
9678,2024 9 19,12:41:53.192,0.716839,0.017223,-0.673907,0.178029,-0.963066,-0.132043,-0.069043,5.506353,-2.089817,-10.324885,0,0
9679,2024 9 19,12:41:53.200,0.716736,0.016954,-0.67379,0.178909,-0.966594,-0.134543,-0.063308,4.54971,-0.472911,-9.906112,0,0
9680,2024 9 19,12:41:53.209,0.716702,-0.258651,-0.634066,-0.131898,-0.967736,-0.135353,-0.061451,4.239795,0.050905,-9.770445,0,0
9681,2024 9 19,12:41:53.217,0.716583,0.016655,-0.673722,0.179806,-0.96057,-0.136928,-0.067401,3.811014,0.098679,-9.275525,0,0
9682,2024 9 19,12:41:53.225,0.716404,0.016428,-0.673739,0.180475,-0.961489,-0.140386,-0.064448,3.507041,1.217516,-8.54129,0,0
9683,2024 9 19,12:41:53.234,0.716191,0.016234,-0.67379,0.181145,-0.958207,-0.139897,-0.067387,3.488325,1.504851,-7.891812,0,0
9684,2024 9 19,12:41:53.242,0.716034,0.016102,-0.673836,0.181605,-0.961238,-0.140521,-0.066571,3.316264,1.797111,-7.324287,0,0
9685,2024 9 19,12:41:53.250,0.715834,0.015957,-0.673918,0.182105,-0.978532,-0.143364,-0.056928,2.612294,2.149965,-6.38984,0,0
9686,2024 9 19,12:41:53.259,0.715671,0.01582,-0.673981,0.182525,-0.985808,-0.142105,-0.045025,1.656096,0.986476,-5.803337,0,0
9687,2024 9 19,12:41:53.267,0.715653,0.015775,-0.673976,0.182616,-0.987155,-0.144344,-0.040103,1.688231,0.615076,-5.677866,0,0
9688,2024 9 19,12:41:53.275,0.715603,-0.10194,-0.672601,-0.158517,-0.989253,-0.151315,-0.027437,1.95622,-1.010099,-5.203642,0,0
9689,2024 9 19,12:41:53.284,0.715697,0.015453,-0.673706,0.183465,-0.97004,-0.143839,-0.056995,2.685405,-3.547482,-4.665301,0,0
9690,2024 9 19,12:41:53.292,0.715841,0.015315,-0.673455,0.183837,-0.968387,-0.141449,-0.057021,1.984438,-3.467467,-4.110193,0,0
9691,2024 9 19,12:41:53.300,0.715944,0.015168,-0.673272,0.184116,-0.989044,-0.146641,-0.049835,1.190729,-3.293407,-3.926919,0,0
9692,2024 9 19,12:41:53.309,0.716131,0.014989,-0.673005,0.184381,-0.982195,-0.142242,-0.04839,1.219725,-5.303317,-4.025012,0,0
9693,2024 9 19,12:41:53.317,0.716192,0.014929,-0.672921,0.184453,-0.98239,-0.142831,-0.049179,1.14226,-5.407821,-4.054335,0,0
9694,2024 9 19,12:41:53.325,0.716422,0.014706,-0.67261,0.18471,-0.983094,-0.145814,-0.052241,0.84416,-5.628814,-4.168471,0,0
9695,2024 9 19,12:41:53.334,0.716736,0.016954,-0.67379,0.178909,-0.97653,-0.147742,-0.055864,0.839452,-6.228333,-4.311607,0,0
9696,2024 9 19,12:41:53.342,0.717021,0.014153,-0.671805,0.185361,-0.972922,-0.145619,-0.063319,1.241101,-6.186985,-4.287254,0,0
9697,2024 9 19,12:41:53.350,0.717262,0.013921,-0.671471,0.185657,-0.974492,-0.150032,-0.059593,0.95412,-5.681067,-4.374498,0,0
9698,2024 9 19,12:41:53.359,0.717485,0.013683,-0.671156,0.185951,-0.97417,-0.159136,-0.048506,0.687119,-5.907092,-4.681611,0,0
9699,2024 9 19,12:41:53.367,0.717544,0.013599,-0.671072,0.186031,-0.976397,-0.158212,-0.048606,0.506466,-5.741007,-4.762423,0,0
9700,2024 9 19,12:41:53.375,0.717739,0.013297,-0.670797,0.186292,-0.98533,-0.153061,-0.050016,-0.175351,-5.251463,-5.053923,0,0
9701,2024 9 19,12:41:53.384,0.718022,0.012815,-0.670421,0.18659,-0.993682,-0.153864,-0.04577,-0.992702,-6.483344,-5.571439,0,0
9702,2024 9 19,12:41:53.392,0.718317,0.012352,-0.670046,0.186831,-0.995782,-0.159321,-0.05843,-1.502532,-7.569998,-5.810737,0,0
9703,2024 9 19,12:41:53.400,0.718677,0.011819,-0.669588,0.187123,-0.983608,-0.150491,-0.069831,-1.721964,-8.105402,-6.046524,0,0
9704,2024 9 19,12:41:53.409,0.718985,0.011298,-0.669201,0.187357,-0.993351,-0.149051,-0.063971,-2.329282,-7.553732,-6.211691,0,0
9705,2024 9 19,12:41:53.417,0.719042,-0.260666,-0.630888,-0.130432,-0.993712,-0.148323,-0.06565,-2.383235,-7.462019,-6.315591,0,0
9706,2024 9 19,12:41:53.425,0.719348,0.010512,-0.668725,0.187709,-0.987316,-0.143851,-0.079641,-2.715811,-7.16829,-7.085168,0,0
9707,2024 9 19,12:41:53.434,0.719639,0.009779,-0.668354,0.187955,-0.97734,-0.14591,-0.076134,-3.838363,-6.90235,-7.649416,0,0
9708,2024 9 19,12:41:53.442,0.719838,0.009022,-0.668095,0.188152,-0.981429,-0.154697,-0.069573,-4.835576,-5.490677,-8.206419,0,0
9709,2024 9 19,12:41:53.450,0.72006,0.008043,-0.667795,0.188412,-0.97639,-0.151799,-0.065052,-4.878319,-5.713844,-8.857904,0,0
9710,2024 9 19,12:41:53.459,0.720271,0.00715,-0.667505,0.188665,-0.971095,-0.16144,-0.065199,-4.760103,-5.991753,-9.15042,0,0
9711,2024 9 19,12:41:53.467,0.720428,0.00645,-0.667278,0.188898,-0.969893,-0.158976,-0.079879,-4.322176,-5.763246,-9.264403,0,0
9712,2024 9 19,12:41:53.475,0.720467,0.00619,-0.667205,0.189013,-0.968132,-0.159272,-0.077547,-3.950058,-5.275881,-9.480756,0,0
9713,2024 9 19,12:41:53.484,0.720545,0.005448,-0.667017,0.189402,-0.968854,-0.159968,-0.065975,-2.605359,-3.740771,-10.248465,0,0
9714,2024 9 19,12:41:53.492,0.72058,0.004751,-0.66685,0.189876,-0.98597,-0.157267,-0.064896,-1.24706,-3.474447,-10.856264,0,0
9715,2024 9 19,12:41:53.500,0.72068,0.003913,-0.666547,0.190576,-0.970978,-0.158207,-0.071418,-0.481271,-4.598934,-11.565309,0,0
9716,2024 9 19,12:41:53.509,0.720696,0.003141,-0.666329,0.191291,-0.985969,-0.153234,-0.094452,-0.361921,-3.175437,-12.662942,0,0
9717,2024 9 19,12:41:53.517,0.720666,0.002452,-0.666185,0.191914,-0.989741,-0.165321,-0.093838,-1.223281,-2.798827,-14.084957,0,0
9718,2024 9 19,12:41:53.525,0.720589,0.002168,-0.666185,0.192208,-0.994899,-0.166894,-0.091627,-1.194324,-1.645012,-14.818284,0,0
9719,2024 9 19,12:41:53.534,0.72027,0.001333,-0.666263,0.193138,-1.008264,-0.166085,-0.077683,-0.176827,1.716294,-17.354219,0,0
9720,2024 9 19,12:41:53.542,0.71987,0.000411,-0.666373,0.19425,-1.004877,-0.165711,-0.05575,1.95149,1.868984,-20.5373,0,0
9721,2024 9 19,12:41:53.550,0.719314,-0.000755,-0.66651,0.19583,-1.007491,-0.190911,-0.089014,1.800313,2.493478,-22.835871,0,0
9722,2024 9 19,12:41:53.559,0.71874,-0.001767,-0.666633,0.197507,-1.033373,-0.174449,-0.091732,4.188544,3.487999,-25.880827,0,0
9723,2024 9 19,12:41:53.567,0.718118,-0.002845,-0.66676,0.199321,-1.059684,-0.157139,-0.091371,7.039909,4.266856,-29.969419,0,0
9724,2024 9 19,12:41:53.575,0.717883,-0.003268,-0.666802,0.200018,-1.065977,-0.165393,-0.08491,6.998824,4.190376,-31.065687,0,0
9725,2024 9 19,12:41:53.584,0.717245,-0.004433,-0.666895,0.20196,-1.075378,-0.203936,-0.062047,5.909727,3.414367,-33.461628,0,0
9726,2024 9 19,12:41:53.592,0.716402,-0.006046,-0.666871,0.204962,-1.071204,-0.217052,-0.058698,9.200052,1.536873,-37.599613,0,0
9727,2024 9 19,12:41:53.600,0.715735,-0.007709,-0.666625,0.208013,-1.0617,-0.237887,-0.048962,11.034557,-1.585497,-41.60128,0,0
9728,2024 9 19,12:41:53.609,0.715103,-0.00931,-0.666283,0.211193,-1.048443,-0.23565,-0.046017,13.273155,-2.391531,-45.137653,0,0
9729,2024 9 19,12:41:53.617,0.714542,-0.010991,-0.66582,0.214452,-1.066862,-0.228835,-0.048793,14.429703,-4.537909,-47.933201,0,0
9730,2024 9 19,12:41:53.625,0.714352,-0.01168,-0.665611,0.215691,-1.07951,-0.226027,-0.055962,14.15836,-5.412285,-49.046852,0,0
9731,2024 9 19,12:41:53.634,0.7139,-0.013544,-0.665033,0.218835,-1.123693,-0.218988,-0.078447,12.280429,-7.276432,-52.189842,0,0
9732,2024 9 19,12:41:53.642,0.71319,0.079727,-0.695282,0.039834,-1.201707,-0.214224,-0.059084,10.175076,-7.519355,-58.547245,0,0
9733,2024 9 19,12:41:53.650,0.712552,-0.019657,-0.663375,0.227603,-1.252988,-0.222527,-0.026061,9.880533,-11.743966,-65.592842,0,0
9734,2024 9 19,12:41:53.659,0.712124,-0.023062,-0.662169,0.23209,-1.25287,-0.254012,-0.002407,10.914104,-18.248405,-73.092911,0,0
9735,2024 9 19,12:41:53.667,0.711867,-0.02674,-0.660611,0.23688,-1.243702,-0.270016,-0.006054,12.632242,-24.431601,-80.855736,0,0
9736,2024 9 19,12:41:53.675,0.7118,-0.028277,-0.659916,0.238828,-1.244939,-0.269536,-0.008833,12.745221,-26.610003,-83.645912,0,0
9737,2024 9 19,12:41:53.684,0.711711,-0.032231,-0.658049,0.243682,-1.262238,-0.260404,-0.01329,11.862052,-31.359457,-90.025093,0,0
9738,2024 9 19,12:41:53.692,0.711686,-0.038279,-0.65516,0.250526,-1.329105,-0.279391,0.00769,10.029008,-37.500965,-99.851418,0,0
9739,2024 9 19,12:41:53.700,0.71173,-0.044585,-0.65202,0.257438,-1.38528,-0.298888,0.009376,10.00787,-44.850735,-110.782005,0,0
9740,2024 9 19,12:41:53.709,0.711932,-0.051109,-0.648499,0.264466,-1.413061,-0.318957,0.031728,11.306364,-53.585602,-121.883865,0,0
9741,2024 9 19,12:41:53.717,0.712096,-0.057894,-0.644656,0.271936,-1.485206,-0.308634,0.054585,14.741217,-57.527481,-133.55658,0,0
9742,2024 9 19,12:41:53.725,0.712155,-0.060079,-0.643377,0.274345,-1.501407,-0.309689,0.06414,15.733985,-59.679131,-137.368866,0,0
9743,2024 9 19,12:41:53.734,0.712415,-0.067612,-0.638704,0.282642,-1.518609,-0.33303,0.101271,18.575087,-71.24453,-150.615829,0,0
9744,2024 9 19,12:41:53.742,0.71299,-0.077836,-0.631801,0.293751,-1.516609,-0.353299,0.096913,21.819298,-85.454071,-166.711411,0,0
9745,2024 9 19,12:41:53.750,0.713601,-0.087663,-0.624789,0.304309,-1.558082,-0.3768,0.08026,23.672104,-96.557289,-179.377991,0,0
9746,2024 9 19,12:41:53.759,0.714543,-0.100121,-0.615207,0.317376,-1.657693,-0.465445,0.136771,25.592268,-112.378853,-192.2612,0,0
9747,2024 9 19,12:41:53.767,0.715378,-0.109949,-0.607182,0.327664,-1.72686,-0.499343,0.152176,29.969217,-125.157219,-202.298798,0,0
9748,2024 9 19,12:41:53.775,0.715709,-0.113271,-0.604328,0.331125,-1.726763,-0.523057,0.165828,31.495628,-129.717026,-205.120392,0,0
9749,2024 9 19,12:41:53.784,0.717222,-0.125356,-0.592911,0.343689,-1.631146,-0.666237,0.22351,38.110317,-145.631821,-210.492538,0,0
9750,2024 9 19,12:41:53.792,0.719033,-0.137597,-0.58023,0.356567,-1.623485,-0.794568,0.155014,46.35244,-156.939026,-209.163177,0,0
9751,2024 9 19,12:41:53.800,0.721191,-0.148862,-0.567276,0.368375,-1.601939,-0.928555,0.0522,51.385948,-168.671204,-201.540298,0,0
9752,2024 9 19,12:41:53.809,0.724325,-0.160924,-0.551118,0.381363,-1.529621,-0.89167,0.092779,57.609066,-173.429764,-184.425232,0,0
9753,2024 9 19,12:41:53.817,0.727155,-0.169454,-0.538281,0.390671,-1.404865,-0.78186,0.166214,65.23333,-184.384811,-172.330032,0,0
9754,2024 9 19,12:41:53.825,0.72811,-0.17223,-0.533852,0.393836,-1.342957,-0.734337,0.188845,67.790375,-185.005676,-169.44931,0,0
9755,2024 9 19,12:41:53.834,0.730845,-0.1804,-0.519254,0.404351,-1.044886,-0.524146,0.248177,74.222458,-165.830917,-168.638031,0,0
9756,2024 9 19,12:41:53.842,0.732114,-0.187855,-0.505642,0.415742,-0.81726,-0.305183,0.293943,76.057518,-133.572433,-172.450836,0,0
9757,2024 9 19,12:41:53.850,0.731619,-0.193685,-0.494442,0.427297,-0.591812,-0.011147,0.298856,79.414612,-95.081314,-174.970306,0,0
9758,2024 9 19,12:41:53.859,0.730078,-0.198111,-0.483607,0.440131,0.314895,0.454948,0.327616,74.403557,-66.177177,-144.534332,0,0
9759,2024 9 19,12:41:53.867,0.728771,-0.200804,-0.478526,0.446674,0.514486,0.490371,0.344636,25.728603,-18.471825,-60.82402,0,0
9760,2024 9 19,12:41:53.875,0.727043,-0.200236,-0.480621,0.447548,-0.520202,0.414777,-0.063517,-23.102818,62.655426,13.359207,0,0
9761,2024 9 19,12:41:53.884,0.726342,-0.199914,-0.482272,0.447057,-0.821577,0.355873,-0.064103,-38.36879,76.439209,32.097939,0,0
9762,2024 9 19,12:41:53.892,0.724921,-0.199305,-0.48737,0.444089,-1.0847,0.201482,0.233201,-56.267715,59.349838,37.429585,0,0
9763,2024 9 19,12:41:53.900,0.722529,-0.20041,-0.493955,0.440186,-1.188991,0.165235,0.018798,-76.229309,49.525631,21.52293,0,0
9764,2024 9 19,12:41:53.909,0.720163,-0.204903,-0.499384,0.435836,-1.013215,0.081768,0.108274,-92.245529,16.179668,2.638206,0,0
9765,2024 9 19,12:41:53.917,0.718495,-0.210503,-0.503056,0.43168,-0.847454,0.072358,0.144846,-99.800133,-6.171747,-1.624055,0,0
9766,2024 9 19,12:41:53.925,0.71759,-0.216393,-0.5058,0.42705,-0.686012,0.079191,0.187469,-102.427353,-18.740818,7.028625,0,0
9767,2024 9 19,12:41:53.934,0.717335,-0.21883,-0.50704,0.424772,-0.649197,0.079649,0.194174,-102.464928,-20.956005,12.879356,0,0
9768,2024 9 19,12:41:53.942,0.717249,-0.223101,-0.50954,0.419664,-0.655643,0.071171,0.180764,-99.28849,-18.357794,28.769779,0,0
9769,2024 9 19,12:41:53.950,0.717967,-0.227452,-0.512809,0.412024,-0.648819,0.038248,0.1708,-88.956146,-19.728403,47.035156,0,0
9770,2024 9 19,12:41:53.959,0.719308,-0.230319,-0.5157,0.404416,-0.602243,0.02701,0.158282,-75.684464,-19.314571,60.656887,0,0
9771,2024 9 19,12:41:53.967,0.721009,-0.231755,-0.518245,0.397261,-0.554467,0.040665,0.145891,-62.325043,-16.724388,70.783981,0,0
9772,2024 9 19,12:41:53.975,0.722924,-0.23199,-0.520645,0.39046,-0.513644,0.073006,0.123869,-50.688976,-11.822255,79.218056,0,0
9773,2024 9 19,12:41:53.984,0.723809,-0.23179,-0.52181,0.387383,-0.507713,0.092845,0.114388,-46.382877,-8.676755,83.195564,0,0
9774,2024 9 19,12:41:53.992,0.725553,-0.230577,-0.524281,0.381451,-0.531801,0.142001,0.096713,-40.988037,-0.930304,91.368904,0,0
9775,2024 9 19,12:41:54.000,0.727984,-0.227988,-0.528115,0.372952,-0.607802,0.195937,0.068255,-39.407425,4.96386,103.62207,0,0
9776,2024 9 19,12:41:54.009,0.730467,-0.225076,-0.532152,0.364,-0.672967,0.22476,0.048728,-42.782963,6.548817,114.809502,0,0
9777,2024 9 19,12:41:54.017,0.732927,-0.222289,-0.536179,0.354735,-0.707395,0.21329,0.055955,-49.762917,5.164367,124.024055,0,0
9778,2024 9 19,12:41:54.025,0.735365,-0.219759,-0.540242,0.34498,-0.71275,0.184654,0.083401,-58.150032,3.474863,131.811966,0,0
9779,2024 9 19,12:41:54.034,0.736465,-0.218645,-0.542203,0.340255,-0.714185,0.170832,0.09619,-62.155777,3.405117,135.115402,0,0
9780,2024 9 19,12:41:54.042,0.738415,-0.216725,-0.546108,0.330849,-0.718932,0.14309,0.11981,-69.898155,5.20292,140.444122,0,0
9781,2024 9 19,12:41:54.050,0.740651,-0.214394,-0.551739,0.31767,-0.758174,0.106034,0.148131,-79.698692,8.728815,146.614548,0,0
9782,2024 9 19,12:41:54.059,0.742493,-0.212372,-0.557296,0.304758,-0.792869,0.084623,0.174033,-88.181946,10.792686,152.158981,0,0
9783,2024 9 19,12:41:54.067,0.744132,-0.210417,-0.563492,0.29034,-0.832098,0.068224,0.187859,-96.958382,13.090126,158.092606,0,0
9784,2024 9 19,12:41:54.075,0.745378,-0.208752,-0.569503,0.276315,-0.878487,0.055599,0.197925,-105.658661,15.605709,163.929535,0,0
9785,2024 9 19,12:41:54.084,0.745817,-0.20812,-0.571908,0.270697,-0.899112,0.049689,0.201452,-109.108795,16.583414,166.235107,0,0
9786,2024 9 19,12:41:54.092,0.746528,-0.206722,-0.578331,0.255544,-0.968646,0.026528,0.20972,-118.256844,18.582861,172.095093,0,0
9787,2024 9 19,12:41:54.100,0.746991,-0.205475,-0.58529,0.238675,-1.047581,-0.007286,0.226252,-128.534515,19.296869,177.981262,0,0
9788,2024 9 19,12:41:54.109,0.747154,-0.204533,-0.592085,0.221592,-1.122551,-0.052254,0.250387,-138.371521,18.918413,183.087067,0,0
9789,2024 9 19,12:41:54.117,0.747012,-0.203868,-0.599805,0.20071,-1.181536,-0.114594,0.299847,-148.532669,15.807261,187.76915,0,0
9790,2024 9 19,12:41:54.125,0.746739,-0.203575,-0.605787,0.183584,-1.215755,-0.171121,0.339014,-155.814667,12.767358,190.370041,0,0
9791,2024 9 19,12:41:54.134,0.746584,0.15455,-0.646501,-0.027244,-1.229427,-0.195604,0.3561,-158.625595,11.664989,191.142792,0,0
9792,2024 9 19,12:41:54.142,0.745855,-0.203717,-0.614008,0.157837,-1.259392,-0.264769,0.40782,-163.939972,9.445278,190.946152,0,0
9793,2024 9 19,12:41:54.150,0.744862,-0.204147,-0.619829,0.137726,-1.278654,-0.332086,0.469457,-166.875412,5.971667,189.805801,0,0
9794,2024 9 19,12:41:54.159,0.743739,-0.204671,-0.625025,0.11819,-1.278703,-0.392794,0.538363,-167.466644,2.383173,188.155746,0,0
9795,2024 9 19,12:41:54.167,0.742139,-0.205258,-0.63049,0.095728,-1.260986,-0.447434,0.623101,-165.831909,0.861979,186.480637,0,0
9796,2024 9 19,12:41:54.175,0.740633,-0.205635,-0.634683,0.077855,-1.245904,-0.481198,0.686831,-164.006088,1.936026,185.76265,0,0
9797,2024 9 19,12:41:54.184,0.739932,-0.205763,-0.636436,0.070384,-1.24312,-0.495696,0.711511,-163.216599,2.790883,185.564606,0,0
9798,2024 9 19,12:41:54.192,0.737625,-0.205828,-0.640737,0.05216,-1.255639,-0.535182,0.758599,-160.982239,7.599783,185.655792,0,0
9799,2024 9 19,12:41:54.200,0.734663,-0.205688,-0.645404,0.03285,-1.255265,-0.582695,0.80425,-158.04303,13.339972,185.335434,0,0
9800,2024 9 19,12:41:54.209,0.731231,-0.205331,-0.650083,0.014405,-1.250068,-0.632655,0.835134,-154.534332,20.949688,184.518372,0,0
9801,2024 9 19,12:41:54.217,0.726368,-0.204612,-0.655822,-0.005872,-1.272819,-0.693702,0.859334,-149.569199,33.366196,183.066406,0,0
9802,2024 9 19,12:41:54.225,0.721711,-0.203809,-0.660918,-0.022301,-1.30264,-0.737885,0.86754,-144.731979,44.111568,181.82753,0,0
9803,2024 9 19,12:41:54.234,0.719622,-0.203418,-0.663141,-0.029236,-1.313269,-0.757493,0.871433,-142.517792,48.405605,181.290924,0,0
9804,2024 9 19,12:41:54.242,0.712821,-0.201906,-0.669903,-0.048467,-1.326673,-0.819722,0.88574,-134.964142,58.329365,179.690765,0,0
9805,2024 9 19,12:41:54.250,0.705605,-0.200068,-0.676608,-0.065526,-1.304863,-0.874684,0.865873,-126.092957,67.690605,175.320236,0,0
9806,2024 9 19,12:41:54.259,0.697676,-0.198107,-0.683658,-0.081301,-1.257853,-0.897253,0.808244,-116.79628,80.252151,166.715805,0,0
9807,2024 9 19,12:41:54.267,0.688732,-0.196389,-0.691323,-0.095642,-1.276138,-0.924916,0.707069,-110.264091,98.247284,155.498703,0,0
9808,2024 9 19,12:41:54.275,0.678811,-0.195103,-0.699525,-0.108673,-1.351646,-0.941609,0.566628,-105.677238,113.063141,144.554352,0,0
9809,2024 9 19,12:41:54.284,0.668359,-0.194244,-0.70779,-0.120798,-1.439905,-0.958622,0.428966,-103.683632,118.765106,135.523026,0,0
9810,2024 9 19,12:41:54.292,0.668124,-0.194224,-0.707975,-0.12107,-1.441885,-0.959003,0.425878,-103.638916,118.892998,135.320465,0,0
9811,2024 9 19,12:41:54.300,0.658268,-0.193692,-0.715285,-0.132383,-1.436256,-0.987891,0.30413,-102.631767,108.777519,127.326538,0,0
9812,2024 9 19,12:41:54.309,0.649005,-0.193481,-0.721625,-0.143549,-1.20364,-0.941148,0.181147,-102.011841,96.27095,116.711349,0,0
9813,2024 9 19,12:41:54.317,0.639612,-0.194184,-0.727596,-0.154216,-1.036007,-0.955042,0.037464,-107.331985,103.238045,104.432098,0,0
9814,2024 9 19,12:41:54.325,0.629161,-0.196207,-0.733881,-0.164521,-1.198449,-1.09822,-0.070445,-116.42099,118.002106,94.668297,0,0
9815,2024 9 19,12:41:54.334,0.619173,-0.198979,-0.739229,-0.174816,-1.290054,-1.175041,-0.208205,-121.16983,100.222939,85.815269,0,0
9816,2024 9 19,12:41:54.342,0.618715,-0.199106,-0.739474,-0.175287,-1.294253,-1.178562,-0.214519,-121.387512,99.407974,85.409462,0,0
9817,2024 9 19,12:41:54.350,0.610991,-0.202149,-0.742601,-0.185363,-1.210817,-1.303047,-0.307257,-127.521225,72.045479,76.667068,0,0
9818,2024 9 19,12:41:54.359,0.604428,-0.205953,-0.744142,-0.19619,-1.137779,-1.521428,-0.369284,-134.46521,46.765167,66.016647,0,0
9819,2024 9 19,12:41:54.367,0.599554,-0.210474,-0.743907,-0.206948,-1.029074,-1.774145,-0.401712,-137.8992,22.627131,51.310528,0,0
9820,2024 9 19,12:41:54.375,0.596223,-0.215913,-0.742156,-0.21701,-0.923363,-1.969904,-0.424691,-137.366028,3.976938,31.064947,0,0
9821,2024 9 19,12:41:54.384,0.594333,-0.22257,-0.739099,-0.225728,-0.825112,-2.037573,-0.38205,-133.124039,-9.052822,4.115479,0,0
9822,2024 9 19,12:41:54.392,0.594204,-0.223024,-0.738891,-0.226322,-0.818416,-2.042185,-0.379143,-132.834946,-9.940819,2.278833,0,0
9823,2024 9 19,12:41:54.400,0.593099,-0.230813,-0.73573,-0.231629,-3.334244,-3.21243,-0.171311,-111.319038,6.187342,-37.965996,0,0
9824,2024 9 19,12:41:54.409,0.593644,-0.245119,-0.731574,-0.228651,-1.441689,-1.547139,-0.083712,-68.222351,-20.753231,-140.303436,0,0
9825,2024 9 19,12:41:54.417,0.595998,-0.262511,-0.725112,-0.223721,-1.011507,-2.164564,-1.058099,-76.633522,2.424921,-210.017365,0,0
9826,2024 9 19,12:41:54.425,0.600421,-0.281421,-0.716758,-0.215643,-1.100514,-1.263817,0.005955,-71.471413,-23.7153,-243.147888,0,0
9827,2024 9 19,12:41:54.434,0.605965,-0.296818,-0.709862,-0.201859,-2.2233,-0.455259,-0.399918,13.415932,-19.740257,-250.273651,0,0
9828,2024 9 19,12:41:54.442,0.60646,-0.298195,-0.709246,-0.200626,-2.323727,-0.382938,-0.436221,21.00868,-19.38471,-250.911011,1,0
9829,2024 9 19,12:41:54.450,0.620162,-0.306757,-0.695369,-0.194183,-1.622034,-0.412388,0.446979,8.096087,-210.444168,-204.272202,0,0
9830,2024 9 19,12:41:54.459,0.634977,-0.313112,-0.680751,-0.187831,-1.2407,-0.522441,-0.705773,34.644314,-167.387482,-176.161789,0,0
9831,2024 9 19,12:41:54.467,0.648673,-0.316787,-0.667904,-0.180883,-1.028003,-0.308409,-0.34358,48.290359,-164.844376,-145.233139,0,0
9832,2024 9 19,12:41:54.475,0.659638,-0.319601,-0.657015,-0.176143,-0.97598,-0.304221,0.174366,25.112032,-126.859177,-110.42662,0,0
9833,2024 9 19,12:41:54.484,0.666555,-0.322411,-0.649415,-0.173197,-1.252859,-0.150401,0.218644,7.926661,-91.261612,-79.349258,0,0
9834,2024 9 19,12:41:54.492,0.667314,-0.32272,-0.64858,-0.172873,-1.283256,-0.133514,0.223505,6.039927,-87.353447,-75.937363,0,0
9835,2024 9 19,12:41:54.500,0.673861,-0.324855,-0.640721,-0.172748,-1.090038,-0.289447,0.210686,-7.973456,-122.381821,-64.446815,0,0
9836,2024 9 19,12:41:54.509,0.680559,-0.326808,-0.632473,-0.173193,-0.997088,-0.237126,0.217358,-13.363653,-105.565933,-52.368279,0,0
9837,2024 9 19,12:41:54.517,0.68606,-0.328857,-0.625202,-0.174021,-1.104977,-0.146106,0.156512,-19.84095,-99.541199,-45.518986,0,0
9838,2024 9 19,12:41:54.525,0.691804,-0.331032,-0.616951,-0.176575,-0.971083,-0.281646,0.038569,-29.699902,-115.381393,-37.213722,0,0
9839,2024 9 19,12:41:54.534,0.697574,-0.332426,-0.608975,-0.178926,-0.762549,-0.288108,-0.16668,-18.991119,-106.329605,-31.651745,0,0
9840,2024 9 19,12:41:54.542,0.69832,-0.332606,-0.607945,-0.179229,-0.735598,-0.288943,-0.193207,-17.607113,-105.159744,-30.932913,0,0
9841,2024 9 19,12:41:54.550,0.702159,-0.33309,-0.602891,-0.180387,-0.659045,-0.204257,-0.412296,-8.51206,-74.209015,-21.504066,0,0
9842,2024 9 19,12:41:54.559,0.704468,-0.333714,-0.599519,-0.181474,-0.749974,-0.215478,-0.249471,-13.111498,-36.229572,-11.556689,0,0
9843,2024 9 19,12:41:54.567,0.705407,-0.334181,-0.598082,-0.181717,-0.865614,-0.069604,-0.181661,-0.451645,-12.640238,-9.287475,0,0
9844,2024 9 19,12:41:54.575,0.705433,-0.33502,-0.597529,-0.181891,-1.005118,-0.208348,-0.074394,-11.281053,-0.793754,-7.087898,0,0
9845,2024 9 19,12:41:54.584,0.70569,-0.335625,-0.596929,-0.18175,-0.970845,-0.153173,-0.057197,-3.441256,-6.459116,-9.056407,0,0
9846,2024 9 19,12:41:54.592,0.705728,-0.335715,-0.59684,-0.181729,-0.965778,-0.145015,-0.054655,-2.282052,-7.296806,-9.347474,0,0
9847,2024 9 19,12:41:54.600,0.705836,-0.336259,-0.596509,-0.181387,-1.022404,-0.160712,-0.024543,-2.520014,0.369745,-9.752655,0,0
9848,2024 9 19,12:41:54.609,0.706082,-0.292428,-0.622685,-0.167922,-1.019598,-0.175059,-0.007567,-0.80814,-4.878714,-10.740683,0,0
9849,2024 9 19,12:41:54.617,0.706604,-0.337226,-0.595336,-0.180455,-1.004399,-0.17116,-0.011463,0.587801,-6.778218,-11.10066,0,0
9850,2024 9 19,12:41:54.625,0.707231,-0.337555,-0.59454,-0.180005,-1.005238,-0.17258,-0.025159,1.5769,-9.532946,-10.698616,0,0
9851,2024 9 19,12:41:54.634,0.708041,-0.337765,-0.593559,-0.179668,-0.982984,-0.16874,-0.048557,1.432591,-12.474781,-9.971652,0,0
9852,2024 9 19,12:41:54.642,0.708878,-0.337941,-0.592539,-0.1794,-0.965098,-0.161207,-0.068256,1.35797,-12.607292,-9.496232,0,0
9853,2024 9 19,12:41:54.650,0.70902,-0.337971,-0.592367,-0.179355,-0.962082,-0.159937,-0.071578,1.345388,-12.629634,-9.416075,0,0
9854,2024 9 19,12:41:54.659,0.709657,-0.33815,-0.59157,-0.179126,-0.951896,-0.136756,-0.088665,0.990732,-10.417756,-9.301615,0,0
9855,2024 9 19,12:41:54.667,0.710128,-0.33852,-0.590877,-0.178849,-0.958551,-0.149977,-0.090841,-0.877694,-6.218205,-9.382026,0,0
9856,2024 9 19,12:41:54.675,0.710464,-0.338998,-0.590306,-0.178491,-0.966932,-0.157922,-0.06602,-1.558829,-3.873763,-9.746346,0,0
9857,2024 9 19,12:41:54.684,0.710684,-0.339559,-0.589842,-0.178082,-0.995155,-0.165332,-0.047996,-1.980473,-2.305446,-10.110961,0,0
9858,2024 9 19,12:41:54.692,0.710912,-0.340133,-0.589364,-0.177661,-0.99197,-0.163508,-0.028012,-1.90855,-2.813435,-10.326623,0,0
9859,2024 9 19,12:41:54.700,0.710954,-0.34024,-0.589275,-0.177583,-0.991379,-0.16317,-0.024303,-1.895201,-2.907715,-10.366649,0,0
9860,2024 9 19,12:41:54.709,0.711184,-0.340728,-0.588805,-0.177283,-0.990084,-0.178103,-0.038601,-2.139343,-4.060095,-10.127531,0,0
9861,2024 9 19,12:41:54.717,0.711507,-0.341241,-0.588212,-0.176973,-0.970563,-0.168764,-0.047627,-2.333493,-5.116117,-9.639355,0,0
9862,2024 9 19,12:41:54.725,0.711816,-0.341767,-0.587615,-0.176695,-0.965211,-0.169306,-0.070937,-2.273129,-4.63483,-9.348735,0,0
9863,2024 9 19,12:41:54.734,0.712065,-0.342351,-0.587042,-0.176469,-0.958299,-0.172538,-0.077471,-3.872787,-3.807726,-9.096279,0,0
9864,2024 9 19,12:41:54.742,0.712193,-0.343015,-0.586587,-0.176175,-0.961205,-0.16189,-0.092791,-3.948141,-1.258088,-9.776037,0,0
9865,2024 9 19,12:41:54.750,0.712219,-0.34315,-0.586495,-0.176115,-0.961792,-0.15974,-0.095884,-3.963356,-0.743297,-9.913286,0,0
9866,2024 9 19,12:41:54.759,0.712232,-0.343815,-0.586147,-0.175923,-0.967327,-0.172451,-0.054744,-5.900331,-0.686336,-9.40955,0,0
9867,2024 9 19,12:41:54.767,0.712132,-0.344631,-0.585898,-0.17556,-0.976184,-0.151183,-0.109442,-5.482507,1.734779,-10.268901,0,0
9868,2024 9 19,12:41:54.775,0.712026,-0.345602,-0.585547,-0.17525,-0.954604,-0.169006,-0.050221,-7.219865,2.002644,-11.265669,0,0
9869,2024 9 19,12:41:54.784,0.711719,-0.346693,-0.585439,-0.1747,-0.976445,-0.175901,-0.0529,-6.44007,5.984786,-12.769863,0,0
9870,2024 9 19,12:41:54.792,0.711587,-0.347819,-0.585084,-0.174188,-0.967017,-0.176551,-0.032533,-6.606388,3.78744,-14.047512,0,0
9871,2024 9 19,12:41:54.800,0.711559,-0.348064,-0.585007,-0.174077,-0.964966,-0.178619,-0.006424,-6.642575,3.309345,-14.3255,0,0
9872,2024 9 19,12:41:54.809,0.711273,-0.349134,-0.584905,-0.173441,-0.979304,-0.194622,-0.065902,-7.361546,5.052716,-15.429502,0,0
9873,2024 9 19,12:41:54.817,0.711068,-0.350337,-0.584697,-0.172551,-0.981363,-0.127731,-0.068841,-4.923093,6.622062,-17.234453,0,0
9874,2024 9 19,12:41:54.825,0.710922,-0.351611,-0.584393,-0.17159,-0.961858,-0.18303,-0.030881,-4.279803,5.798127,-18.394392,0,0
9875,2024 9 19,12:41:54.834,0.710677,-0.352944,-0.584208,-0.170494,-0.987085,-0.198489,-0.083741,-4.274156,6.784052,-18.987083,0,0
9876,2024 9 19,12:41:54.842,0.71065,-0.354116,-0.583871,-0.169328,-0.963319,-0.204668,-0.046871,-2.073732,4.671494,-19.357454,0,0
9877,2024 9 19,12:41:54.850,0.710643,-0.354389,-0.583793,-0.169057,-0.95779,-0.206106,-0.038293,-1.561814,4.180016,-19.443619,0,0
9878,2024 9 19,12:41:54.859,0.71065,-0.354116,-0.583871,-0.169328,-0.978063,-0.199749,-0.054873,-0.790594,4.017979,-19.417387,0,0
9879,2024 9 19,12:41:54.867,0.710773,-0.356307,-0.583067,-0.16697,-0.971014,-0.211215,-0.057329,-0.746426,1.986773,-18.994076,0,0
9880,2024 9 19,12:41:54.875,0.711001,-0.357227,-0.582545,-0.165853,-0.953801,-0.216553,-0.043874,0.003292,0.344484,-18.430548,0,0
9881,2024 9 19,12:41:54.884,0.711272,-0.358064,-0.582017,-0.164735,-0.963996,-0.216374,-0.028825,1.013876,-0.007512,-17.833479,0,0
9882,2024 9 19,12:41:54.892,0.711627,-0.358813,-0.581423,-0.163668,-0.955475,-0.219635,-0.03726,1.582553,-2.113403,-17.366014,0,0
9883,2024 9 19,12:41:54.900,0.711715,-0.358998,-0.581276,-0.163404,-0.953369,-0.220441,-0.039344,1.723098,-2.633861,-17.250484,0,0
9884,2024 9 19,12:41:54.909,0.712077,-0.359508,-0.580752,-0.162563,-0.948464,-0.225751,-0.047163,2.123084,-2.763718,-16.628666,0,0
9885,2024 9 19,12:41:54.917,0.712527,-0.360087,-0.580117,-0.161574,-0.967601,-0.213264,-0.050587,2.678544,-3.296617,-16.653946,0,0
9886,2024 9 19,12:41:54.925,0.712999,-0.360716,-0.579442,-0.160508,-1.001115,-0.206826,-0.069591,2.547754,-3.250753,-17.748299,0,0
9887,2024 9 19,12:41:54.934,0.713493,-0.361431,-0.578712,-0.15933,-1.001035,-0.209152,-0.061812,2.785342,-2.832284,-19.655825,0,0
9888,2024 9 19,12:41:54.942,0.713987,-0.362254,-0.577947,-0.158022,-0.983715,-0.22381,-0.051149,2.756734,-2.543782,-21.455946,0,0
9889,2024 9 19,12:41:54.950,0.714116,-0.362469,-0.577747,-0.157681,-0.979193,-0.227637,-0.048364,2.749264,-2.468453,-21.925964,0,0
9890,2024 9 19,12:41:54.959,0.714507,-0.363209,-0.577131,-0.156454,-1.004149,-0.231868,-0.042258,3.329328,-1.508409,-23.48245,0,0
9891,2024 9 19,12:41:54.967,0.715054,-0.332229,-0.609268,0.084346,-0.971142,-0.235492,-0.053848,4.420735,-2.860209,-24.743969,0,0
9892,2024 9 19,12:41:54.975,0.715676,-0.364974,-0.575429,-0.153236,-0.986507,-0.229343,-0.056241,4.713113,-2.732872,-26.060863,0,0
9893,2024 9 19,12:41:54.984,0.716299,-0.365954,-0.574512,-0.151414,-1.000595,-0.238684,-0.062211,4.925178,-2.343582,-27.614355,0,0
9894,2024 9 19,12:41:54.992,0.716985,-0.367009,-0.573478,-0.149518,-1.016462,-0.231321,-0.066668,4.673347,-3.564358,-29.231564,0,0
9895,2024 9 19,12:41:55.000,0.717174,-0.367299,-0.573195,-0.148997,-1.020818,-0.229299,-0.067891,4.604205,-3.899529,-29.675577,0,0
9896,2024 9 19,12:41:55.009,0.717719,-0.368305,-0.57225,-0.147509,-1.03785,-0.241049,-0.052404,2.431077,-4.300001,-30.853474,0,0
9897,2024 9 19,12:41:55.017,0.718444,-0.369647,-0.570929,-0.145727,-1.040146,-0.24678,-0.063862,1.649618,-6.909813,-33.461002,0,0
9898,2024 9 19,12:41:55.025,0.719321,-0.371136,-0.569329,-0.143858,-1.00094,-0.253286,-0.05345,0.556057,-8.997965,-35.155262,0,0
9899,2024 9 19,12:41:55.034,0.720199,-0.37282,-0.567594,-0.141951,-1.051175,-0.2499,-0.062699,-0.842792,-9.328062,-37.159897,0,0
9900,2024 9 19,12:41:55.042,0.72113,-0.374642,-0.565723,-0.139876,-1.064122,-0.266656,-0.046922,-0.50365,-10.030339,-40.642056,0,0
9901,2024 9 19,12:41:55.050,0.722195,0.200628,-0.642849,0.157885,-1.130204,-0.272859,-0.04689,0.806375,-11.228255,-46.146889,0,0
9902,2024 9 19,12:41:55.059,0.722503,-0.377214,-0.563024,-0.136747,-1.149344,-0.274656,-0.04688,1.185815,-11.575224,-47.741329,0,0
9903,2024 9 19,12:41:55.067,0.723571,-0.378961,-0.561039,-0.134395,-1.168015,-0.283445,-0.025525,3.104511,-13.441398,-53.630486,0,0
9904,2024 9 19,12:41:55.075,0.724982,-0.381264,-0.558424,-0.131103,-1.237026,-0.290149,-0.027148,4.99883,-14.290196,-62.228207,0,0
9905,2024 9 19,12:41:55.084,0.726742,-0.383965,-0.555215,-0.127019,-1.313252,-0.29042,0.005239,7.228358,-17.922092,-73.202843,0,0
9906,2024 9 19,12:41:55.092,0.729029,-0.387017,-0.551145,-0.122249,-1.33426,-0.296646,-0.031194,9.898138,-25.916611,-85.81749,0,0
9907,2024 9 19,12:41:55.100,0.731839,-0.39042,-0.546193,-0.116683,-1.382087,-0.289324,0.007907,13.124155,-31.123163,-99.557564,0,0
9908,2024 9 19,12:41:55.109,0.732688,-0.391448,-0.544698,-0.115002,-1.396534,-0.287112,0.019719,14.098686,-32.695984,-103.708237,0,0
9909,2024 9 19,12:41:55.117,0.73525,-0.394625,-0.540019,-0.109655,-1.561318,-0.302682,0.057488,16.002295,-36.431076,-116.940208,0,0
9910,2024 9 19,12:41:55.125,0.738883,-0.39887,-0.533261,-0.10256,-1.810827,-0.341862,0.12337,18.103285,-49.509472,-135.793701,0,0
9911,2024 9 19,12:41:55.134,0.743784,-0.40375,-0.524204,-0.094181,-2.085189,-0.371766,0.212637,23.67065,-70.948586,-160.147751,0,0
9912,2024 9 19,12:41:55.142,0.75009,-0.409148,-0.512473,-0.084645,-2.297078,-0.416262,0.277557,29.96764,-98.688293,-186.736954,0,0
9913,2024 9 19,12:41:55.150,0.757817,-0.415171,-0.497508,-0.074751,-2.353515,-0.433829,0.2239,29.340931,-134.815033,-208.749435,0,0
9914,2024 9 19,12:41:55.159,0.760244,-0.417063,-0.492807,-0.071643,-2.371241,-0.439347,0.207046,29.144083,-146.162384,-215.663528,0,0
9915,2024 9 19,12:41:55.167,0.767639,-0.422131,-0.477669,-0.064571,-2.096489,-0.652605,0.254265,24.342915,-179.138657,-220.717117,0,1
9916,2024 9 19,12:41:55.175,0.776948,-0.427577,-0.45821,-0.056999,-1.914934,-0.664048,0.074952,28.660706,-199.69812,-214.033981,0,0
9917,2024 9 19,12:41:55.184,0.78705,-0.431874,-0.437091,-0.050947,-2.035742,-0.518574,-0.040949,30.083521,-221.404129,-188.666397,0,0
9918,2024 9 19,12:41:55.192,0.797721,-0.435109,-0.414208,-0.048063,-1.979663,-0.518901,0.127172,29.016502,-258.808289,-163.891006,0,0
9919,2024 9 19,12:41:55.200,0.809607,-0.43673,-0.388632,-0.047294,-1.278574,-0.306928,0.414732,37.671791,-296.606873,-152.580826,0,0
9920,2024 9 19,12:41:55.209,0.813478,-0.437257,-0.380302,-0.047044,-1.050227,-0.237887,0.508392,40.49086,-308.91806,-148.897049,0,0
9921,2024 9 19,12:41:55.217,0.822485,-0.436703,-0.361113,-0.045975,0.124462,1.207318,0.667896,61.521591,-276.987122,-140.946976,0,0
9922,2024 9 19,12:41:55.225,0.830145,-0.436012,-0.34401,-0.046233,1.42083,3.130132,1.063444,24.681496,-193.272659,-79.275436,0,0
9923,2024 9 19,12:41:55.234,0.829321,-0.442677,-0.336533,-0.053314,0.494941,2.603973,1.206218,-145.248627,-83.196785,21.708092,0,0
9924,2024 9 19,12:41:55.242,0.827627,-0.447853,-0.333058,-0.058885,-0.150829,2.326244,1.223784,-234.274216,-29.167515,76.777771,0,0
9925,2024 9 19,12:41:55.250,0.816444,-0.464279,-0.334242,-0.077504,-1.233553,2.263816,0.923486,-267.187469,-46.657677,109.312958,0,0
9926,2024 9 19,12:41:55.259,0.808534,-0.476779,-0.332074,-0.093132,-0.562511,2.406995,1.181418,-281.801788,-84.312401,110.700623,0,0
9927,2024 9 19,12:41:55.267,0.805188,0.522981,-0.025759,0.278284,-0.46777,2.340047,1.205329,-291.736115,-77.730461,125.472534,0,0
9928,2024 9 19,12:41:55.275,0.791988,-0.496647,-0.333279,-0.121639,-0.292812,2.039877,1.260237,-319.718018,-49.415958,186.258377,0,0
9929,2024 9 19,12:41:55.284,0.777642,-0.509461,-0.33804,-0.145868,-0.647895,1.66993,1.220392,-312.363159,-21.911514,251.566559,0,0
9930,2024 9 19,12:41:55.292,0.758173,-0.521003,-0.348621,-0.178545,-1.203085,1.320294,1.059651,-281.938843,-4.179205,309.320465,0,0
9931,2024 9 19,12:41:55.300,0.74059,-0.527383,-0.360212,-0.20817,-1.612897,0.971097,0.877207,-252.494614,1.006995,346.110168,0,0
9932,2024 9 19,12:41:55.309,0.726664,-0.52999,-0.369761,-0.233027,-1.76956,0.661549,0.851575,-228.030716,-20.7878,370.718719,0,0
9933,2024 9 19,12:41:55.317,0.721981,-0.529914,-0.373037,-0.241856,-1.774271,0.596368,0.838347,-220.616043,-24.195459,377.728516,0,0
9934,2024 9 19,12:41:55.325,0.705304,-0.528844,-0.384758,-0.272923,-1.810147,0.395009,0.787153,-199.776459,-29.260735,400.140442,0,0
9935,2024 9 19,12:41:55.334,0.688145,-0.52652,-0.396722,-0.302628,-1.951699,0.243217,0.722852,-197.073166,-18.274191,414.7052,0,0
9936,2024 9 19,12:41:55.342,0.664374,-0.523976,-0.410969,-0.338727,-2.018524,0.038127,0.649399,-220.57019,-7.179661,409.667175,0,0
9937,2024 9 19,12:41:55.350,0.641073,-0.524521,-0.420881,-0.369295,-2.128089,-0.43903,0.746814,-269.218628,4.439713,375.527679,0,0
9938,2024 9 19,12:41:55.359,0.62053,-0.528183,-0.426195,-0.392729,-2.300297,-0.959549,0.850455,-320.453796,12.092909,330.005524,0,0
9939,2024 9 19,12:41:55.367,0.612822,-0.530702,-0.426536,-0.400707,-2.190409,-1.092109,0.921996,-339.141663,10.955669,312.826385,0,0
9940,2024 9 19,12:41:55.375,0.586698,-0.540874,-0.425575,-0.426275,-1.72805,-1.531041,1.166198,-399.632721,9.901666,255.89595,0,0
9941,2024 9 19,12:41:55.384,0.559629,-0.554795,-0.420642,-0.449154,-1.322021,-2.075318,1.347408,-451.731628,26.589634,200.196808,0,0
9942,2024 9 19,12:41:55.392,0.526031,-0.576847,-0.409386,-0.471625,-0.990592,-2.714225,1.340037,-486.536133,58.534233,120.421852,0,0
9943,2024 9 19,12:41:55.400,0.498013,-0.599193,-0.396309,-0.485244,-1.039119,-3.699056,0.407358,-488.716583,91.000038,37.163513,0,0
9944,2024 9 19,12:41:55.409,0.469764,-0.626739,-0.379935,-0.491905,-2.511215,-8.570316,-3.801305,-503.070831,173.414581,-66.391426,0,0
9945,2024 9 19,12:41:55.417,0.468046,-0.630004,-0.370499,-0.4964,-1.740763,-8.906516,-2.644905,-491.832977,47.630592,-82.394211,0,0
9946,2024 9 19,12:41:55.425,0.470265,-0.633719,-0.339238,-0.511829,1.643429,-8.30476,2.239153,-383.083862,-378.332733,-108.325729,1,0
9947,2024 9 19,12:41:55.434,0.474863,-0.632854,-0.325285,-0.517719,2.167572,-4.041511,-0.201474,44.480988,-23.991516,-56.358261,0,0
9948,2024 9 19,12:41:55.442,0.479203,-0.633838,-0.336508,-0.505297,-1.703558,-0.160687,0.546201,-2.080078,160.673523,47.318466,0,0
9949,2024 9 19,12:41:55.450,0.478164,-0.63458,-0.340106,-0.502973,-2.184536,-0.000102,2.56111,32.268024,-18.122849,-5.044155,0,0
9950,2024 9 19,12:41:55.459,0.482899,-0.626868,-0.335517,-0.510978,-1.869123,-0.35258,0.325394,38.920074,-177.642059,11.632124,0,0
9951,2024 9 19,12:41:55.467,0.491969,-0.613965,-0.327274,-0.52329,0.256849,-0.099526,-0.800068,60.897224,-372.62384,9.797804,0,0
9952,2024 9 19,12:41:55.475,0.493734,-0.611566,-0.325947,-0.525303,0.443727,-0.007903,-0.999581,58.496494,-352.994995,8.503857,0,0
9953,2024 9 19,12:41:55.484,0.498775,-0.604757,-0.322826,-0.530334,-0.130867,0.317704,-1.255782,13.393349,-52.202911,2.305425,0,0
9954,2024 9 19,12:41:55.492,0.496616,-0.606554,-0.323033,-0.530198,-1.151516,-0.080615,-0.215498,-26.001225,29.099571,3.031935,0,0
9955,2024 9 19,12:41:55.500,0.495468,-0.608041,-0.322147,-0.53011,-1.02231,-0.190145,0.100816,-24.238564,6.106159,-9.953646,0,0
9956,2024 9 19,12:41:55.509,0.494329,-0.61089,-0.321317,-0.528397,-1.165201,-0.14772,-0.043509,-22.221264,27.872129,-20.525181,0,0
9957,2024 9 19,12:41:55.517,0.493713,-0.612974,-0.32015,-0.52727,-1.034743,-0.125274,0.110815,-25.262259,18.969418,-26.813467,0,0
9958,2024 9 19,12:41:55.525,0.493516,-0.613656,-0.319807,-0.526867,-1.026189,-0.122217,0.088379,-26.432018,20.204477,-28.633087,0,0
9959,2024 9 19,12:41:55.534,0.492456,-0.617685,-0.317963,-0.524254,-1.06625,-0.141184,-0.151744,-31.015774,38.100334,-38.198311,0,0
9960,2024 9 19,12:41:55.542,0.491718,-0.621926,-0.316126,-0.521032,-1.027478,-0.212047,-0.044806,-26.521944,42.972328,-45.650806,0,0
9961,2024 9 19,12:41:55.550,0.491603,-0.625498,-0.314495,-0.517845,-0.97848,-0.231628,-0.102292,-18.570637,36.941357,-46.200012,0,0
9962,2024 9 19,12:41:55.559,0.492087,-0.62883,-0.31274,-0.5144,-0.854272,-0.200516,-0.101062,-11.603697,31.292368,-43.131561,0,0
9963,2024 9 19,12:41:55.567,0.492237,-0.631351,-0.311705,-0.511796,-0.879153,-0.255024,-0.035844,-12.538486,34.810211,-37.66095,0,0
9964,2024 9 19,12:41:55.575,0.492275,-0.631983,-0.311473,-0.511121,-0.885319,-0.262878,-0.017446,-11.97574,34.539112,-36.148724,0,0
9965,2024 9 19,12:41:55.584,0.492444,-0.634329,-0.310751,-0.508483,-0.926987,-0.255718,0.042455,-6.550617,28.046692,-29.746557,0,0
9966,2024 9 19,12:41:55.592,0.492688,-0.636087,-0.310219,-0.506373,-0.998073,-0.229834,0.026241,-3.806166,22.700436,-25.073774,0,0
9967,2024 9 19,12:41:55.600,0.493192,-0.637725,-0.309537,-0.504236,-0.888222,-0.252842,-0.014976,-0.889309,16.675898,-23.82126,0,0
9968,2024 9 19,12:41:55.609,0.493747,-0.638868,-0.30916,-0.502474,-0.817425,-0.226588,-0.052993,1.741369,16.459337,-18.894663,0,0
9969,2024 9 19,12:41:55.617,0.493959,-0.639834,-0.309199,-0.501011,-0.861616,-0.232303,-0.073652,1.560735,21.080853,-14.772496,0,0
9970,2024 9 19,12:41:55.625,0.494006,-0.640236,-0.309304,-0.500385,-0.867516,-0.240566,-0.055365,1.837517,22.144424,-13.458024,0,0
9971,2024 9 19,12:41:55.634,0.494068,-0.641201,-0.309762,-0.498803,-0.872503,-0.259896,0.014159,3.519983,22.774807,-10.486138,0,0
9972,2024 9 19,12:41:55.642,0.494133,-0.641988,-0.31043,-0.497308,-0.900367,-0.248352,0.032032,6.295829,20.660217,-6.762223,0,0
9973,2024 9 19,12:41:55.650,0.494159,-0.642581,-0.31133,-0.495953,-0.908583,-0.244776,0.038046,6.199927,15.980951,-2.534741,0,0
9974,2024 9 19,12:41:55.659,0.494082,-0.642872,-0.31214,-0.495143,-0.919332,-0.252795,0.051532,5.126134,11.402988,1.474951,0,0
9975,2024 9 19,12:41:55.667,0.493997,-0.642899,-0.312797,-0.494778,-0.935873,-0.234874,0.040495,5.327222,7.052628,4.673311,0,0
9976,2024 9 19,12:41:55.675,0.493934,-0.642851,-0.313052,-0.494742,-0.939524,-0.234472,0.034131,4.67655,5.190157,5.805889,0,0
9977,2024 9 19,12:41:55.684,0.493735,-0.64261,-0.313624,-0.494892,-0.93918,-0.241078,0.018778,2.594414,1.19646,8.011329,0,0
9978,2024 9 19,12:41:55.692,0.493507,-0.64224,-0.314182,-0.495245,-0.927027,-0.236134,0.014332,2.383311,-1.29439,9.876815,0,0
9979,2024 9 19,12:41:55.700,0.493119,-0.641596,-0.31484,-0.496048,-0.921395,-0.234023,0.028328,1.23186,-4.681936,13.295771,0,0
9980,2024 9 19,12:41:55.709,0.492655,-0.640835,-0.315453,-0.497101,-0.944704,-0.235145,0.031957,0.522342,-7.854063,16.450594,0,0
9981,2024 9 19,12:41:55.717,0.492246,-0.640064,-0.315964,-0.498175,-0.975456,-0.23139,0.03296,0.347683,-10.716857,18.584641,0,0
9982,2024 9 19,12:41:55.725,0.492085,-0.639713,-0.316158,-0.49866,-0.987978,-0.229179,0.033852,0.324483,-11.688446,18.924837,0,0
9983,2024 9 19,12:41:55.734,0.491738,-0.638831,-0.316573,-0.499869,-1.016672,-0.223047,0.035772,0.52238,-13.30342,18.513332,0,0
9984,2024 9 19,12:41:55.742,0.491435,-0.637748,-0.317008,-0.501272,-1.045605,-0.215257,0.027118,1.72228,-13.432772,16.529524,0,0
9985,2024 9 19,12:41:55.750,0.49128,-0.63665,-0.317364,-0.502593,-1.045992,-0.194182,-0.002151,1.9539,-12.314791,12.394453,0,0
9986,2024 9 19,12:41:55.759,0.491245,-0.635888,-0.317536,-0.503483,-1.059846,-0.18924,8.1e-05,1.730024,-9.176286,7.919738,0,0
9987,2024 9 19,12:41:55.767,0.491304,-0.635448,-0.317635,-0.503919,-1.1274,-0.17979,0.001557,2.146459,-4.733296,2.398398,0,0
9988,2024 9 19,12:41:55.775,0.491388,-0.635359,-0.317611,-0.503964,-1.159302,-0.177369,0.009626,2.244988,-3.177688,-0.620917,0,0
9989,2024 9 19,12:41:55.784,0.491748,-0.635396,-0.317367,-0.50372,-1.244363,-0.174266,0.035451,2.356982,-0.689231,-9.000985,0,0
9990,2024 9 19,12:41:55.792,0.492854,-0.635741,-0.316358,-0.502836,-1.371613,-0.167258,0.011877,3.506691,-2.461807,-22.925138,0,0
9991,2024 9 19,12:41:55.800,0.494755,-0.636084,-0.314466,-0.501718,-1.375758,-0.173767,-0.007493,5.91741,-9.705781,-38.212761,0,0
9992,2024 9 19,12:41:55.809,0.497222,-0.636531,-0.311859,-0.500334,-1.376007,-0.184279,0.022456,6.156385,-11.544803,-51.567909,0,0
9993,2024 9 19,12:41:55.817,0.500122,-0.637188,-0.308713,-0.498555,-1.400171,-0.151295,-0.003204,6.209873,-14.88723,-64.5466,0,0
9994,2024 9 19,12:41:55.825,0.501491,-0.637507,-0.307134,-0.497745,-1.397196,-0.147425,-0.011771,5.730844,-16.625994,-70.012901,0,0
9995,2024 9 19,12:41:55.834,0.504745,-0.638292,-0.303176,-0.495866,-1.365605,-0.15969,-0.024668,3.913664,-20.608912,-81.363312,0,0
9996,2024 9 19,12:41:55.842,0.509658,-0.639565,-0.296944,-0.492941,-1.333582,-0.16818,-0.034753,3.008607,-23.883762,-94.617783,0,0
9997,2024 9 19,12:41:55.850,0.514705,-0.64082,-0.290249,-0.490037,-1.27381,-0.172535,-0.035848,0.997566,-29.939054,-103.782204,0,0
9998,2024 9 19,12:41:55.859,0.519686,-0.641888,-0.283259,-0.487467,-1.228107,-0.173383,-0.062434,-0.654805,-37.731251,-109.24881,0,0
9999,2024 9 19,12:41:55.867,0.525672,-0.642753,-0.274302,-0.485004,-1.198088,-0.210283,-0.143932,-3.802492,-48.689632,-110.385666,0,1
10000,2024 9 19,12:41:55.875,0.530235,-0.643154,-0.266983,-0.483615,-1.159853,-0.20008,-0.194577,-4.803466,-58.804047,-109.068314,0,0
10001,2024 9 19,12:41:55.884,0.531845,-0.643217,-0.264313,-0.483249,-1.137898,-0.198194,-0.208747,-5.656431,-62.548332,-107.845184,0,0
10002,2024 9 19,12:41:55.892,0.536452,-0.642917,-0.255899,-0.483056,-1.021526,-0.202472,-0.213249,-11.187033,-72.198898,-99.271553,0,0
10003,2024 9 19,12:41:55.900,0.540444,-0.642561,-0.247567,-0.483424,-0.904176,-0.208723,-0.172866,-16.828335,-73.425438,-88.672432,0,0
10004,2024 9 19,12:41:55.908,0.54388,-0.642176,-0.239295,-0.48425,-0.810998,-0.228373,-0.157645,-21.362087,-70.162842,-73.473282,0,0
10005,2024 9 19,12:41:55.917,0.546982,-0.641354,-0.231676,-0.485553,-0.803173,-0.204024,-0.133725,-16.422955,-63.654823,-56.985043,0,0
10006,2024 9 19,12:41:55.925,0.549212,-0.640512,-0.226528,-0.486593,-0.8561,-0.198654,-0.135224,-9.177099,-57.275948,-46.227959,0,0
10007,2024 9 19,12:41:55.933,0.550226,-0.63998,-0.224383,-0.487152,-0.859534,-0.186892,-0.144816,-5.900668,-55.63298,-40.998001,0,0
10008,2024 9 19,12:41:55.942,0.552003,-0.638587,-0.220833,-0.488589,-0.832004,-0.13288,-0.161564,-2.231407,-54.586235,-28.275097,0,0
10009,2024 9 19,12:41:55.950,0.553128,-0.637002,-0.217763,-0.49076,-0.841461,-0.056457,-0.119408,-7.352475,-52.328613,-9.685745,0,0
10010,2024 9 19,12:41:55.958,0.553001,-0.635324,-0.214522,-0.494486,-0.883574,-0.103091,-0.085414,-19.056629,-55.330711,3.746587,0,0
10011,2024 9 19,12:41:55.967,0.552327,-0.633864,-0.210862,-0.498665,-0.795477,-0.169886,0.000455,-29.738873,-62.358925,5.1409,0,0
10012,2024 9 19,12:41:55.975,0.551494,-0.632964,-0.207289,-0.502222,-0.697685,-0.205821,0.069445,-38.348572,-61.484055,1.264879,0,0
10013,2024 9 19,12:41:55.983,0.550986,-0.632738,-0.205433,-0.503828,-0.666917,-0.218754,0.092847,-42.222458,-59.253349,-0.893574,0,0
10014,2024 9 19,12:41:55.992,0.549689,-0.632888,-0.201477,-0.50664,-0.653481,-0.234342,0.113054,-48.857269,-51.101139,-5.473193,0,0
10015,2024 9 19,12:41:56.000,0.548051,-0.633591,-0.197147,-0.509232,-0.67817,-0.248549,0.117051,-54.499775,-43.274963,-9.400885,0,0
10016,2024 9 19,12:41:56.008,0.545862,-0.63491,-0.191657,-0.512019,-0.693061,-0.262768,0.114079,-59.606277,-41.0793,-13.142159,0,0
10017,2024 9 19,12:41:56.017,0.543726,-0.636313,-0.186159,-0.51457,-0.683097,-0.271786,0.113704,-63.15472,-41.505341,-15.914546,0,0
10018,2024 9 19,12:41:56.025,0.541855,-0.637603,-0.181362,-0.516663,-0.65938,-0.268086,0.103281,-65.479271,-40.675255,-17.103857,0,0
10019,2024 9 19,12:41:56.033,0.540841,-0.638301,-0.179004,-0.517692,-0.651943,-0.265032,0.103537,-66.770805,-39.416969,-16.495687,0,0
10020,2024 9 19,12:41:56.042,0.53857,-0.639834,-0.174574,-0.51967,-0.661534,-0.257478,0.108614,-69.470825,-35.140907,-12.113022,0,0
10021,2024 9 19,12:41:56.050,0.535705,-0.641645,-0.170162,-0.521855,-0.71623,-0.255731,0.094149,-71.953743,-31.270527,-5.449607,0,0
10022,2024 9 19,12:41:56.058,0.531861,-0.643679,-0.16522,-0.52485,-0.752482,-0.27867,0.09705,-73.778969,-33.469357,1.221892,0,0
10023,2024 9 19,12:41:56.067,0.528156,-0.645341,-0.160762,-0.527928,-0.741335,-0.298463,0.119705,-74.325165,-36.96817,5.72418,0,0
10024,2024 9 19,12:41:56.075,0.524465,-0.646794,-0.156641,-0.531064,-0.729948,-0.309699,0.142286,-74.336159,-37.624546,9.676743,0,0
10025,2024 9 19,12:41:56.083,0.522689,-0.647455,-0.154747,-0.532571,-0.727555,-0.315314,0.152561,-74.158981,-37.800407,11.315476,0,0
10026,2024 9 19,12:41:56.092,0.519403,-0.648572,-0.151476,-0.535357,-0.729818,-0.325884,0.169372,-73.321854,-37.797344,13.541149,0,0
10027,2024 9 19,12:41:56.100,0.514987,-0.649949,-0.147258,-0.539103,-0.727737,-0.336118,0.186584,-71.736885,-37.615856,15.097932,0,0
10028,2024 9 19,12:41:56.108,0.510702,-0.651236,-0.143298,-0.542681,-0.733527,-0.339992,0.199349,-70.371704,-36.374706,15.953278,0,0
10029,2024 9 19,12:41:56.117,0.506646,-0.652461,-0.139703,-0.545943,-0.75356,-0.33884,0.196391,-69.56514,-34.385723,16.417765,0,0
10030,2024 9 19,12:41:56.125,0.502724,-0.653668,-0.13632,-0.548978,-0.767967,-0.340551,0.19902,-69.575447,-32.853683,16.376125,0,0
10031,2024 9 19,12:41:56.133,0.500813,-0.654275,-0.134707,-0.550405,-0.780408,-0.341677,0.201028,-69.802612,-31.922915,16.38192,0,0
10032,2024 9 19,12:41:56.142,0.497382,-0.655421,-0.131906,-0.552824,-0.816303,-0.344949,0.206784,-70.759605,-29.974709,16.401752,0,0
10033,2024 9 19,12:41:56.150,0.492693,-0.657058,-0.128146,-0.555942,-0.855056,-0.354992,0.217229,-71.988205,-28.665485,15.92257,0,0
10034,2024 9 19,12:41:56.158,0.488053,-0.658747,-0.124463,-0.558862,-0.869456,-0.368759,0.228338,-73.125778,-26.63975,15.497537,0,0
10035,2024 9 19,12:41:56.167,0.483557,-0.660498,-0.121088,-0.561443,-0.903511,-0.378907,0.238635,-74.107918,-22.858078,16.201778,0,0
10036,2024 9 19,12:41:56.175,0.479086,-0.662315,-0.117986,-0.563795,-0.963345,-0.395474,0.238731,-74.928238,-20.022091,17.549259,0,0
10037,2024 9 19,12:41:56.183,0.476866,-0.66322,-0.116477,-0.564935,-1.000522,-0.398661,0.238028,-75.365723,-19.213114,17.935711,0,0
10038,2024 9 19,12:41:56.192,0.47297,-0.664803,-0.113872,-0.566873,-1.082601,-0.387651,0.235281,-76.331314,-19.772406,17.59679,0,0
10039,2024 9 19,12:41:56.200,0.467769,-0.666779,-0.10997,-0.569616,-1.157768,-0.337118,0.241162,-78.902367,-25.14123,14.474973,0,0
10040,2024 9 19,12:41:56.208,0.462712,-0.668464,-0.105464,-0.572608,-1.155537,-0.263529,0.26947,-82.801582,-34.245033,10.038887,0,0
10041,2024 9 19,12:41:56.217,0.457931,0.35552,-0.633424,0.512437,-1.083383,-0.188363,0.30617,-87.612907,-42.318581,5.560284,0,0
10042,2024 9 19,12:41:56.225,0.453213,-0.671271,-0.095116,-0.578704,-1.021938,-0.121365,0.339378,-93.903328,-41.246193,1.160464,0,0
10043,2024 9 19,12:41:56.233,0.45086,-0.671989,-0.092449,-0.580181,-0.991293,-0.087949,0.35594,-97.040627,-40.711349,-1.033911,0,0
10044,2024 9 19,12:41:56.242,0.44506,-0.674463,-0.085996,-0.582774,-0.925707,-0.022359,0.407425,-104.145233,-30.15242,-2.493856,0,0
10045,2024 9 19,12:41:56.250,0.438536,-0.677848,-0.079961,-0.584649,-0.924358,0.060688,0.41981,-110.773033,-14.621886,2.210876,0,0
10046,2024 9 19,12:41:56.258,0.431252,-0.68198,-0.074505,-0.585979,-0.958526,0.073549,0.424266,-115.352089,-2.973956,7.853983,0,0
10047,2024 9 19,12:41:56.267,0.423657,-0.686483,-0.069653,-0.586858,-0.856885,0.112564,0.338989,-113.378754,5.998729,11.528767,0,0
10048,2024 9 19,12:41:56.275,0.415932,-0.691645,-0.065606,-0.586789,-0.851706,-0.144563,0.363231,-113.343094,26.333229,13.982434,0,0
10049,2024 9 19,12:41:56.283,0.408698,-0.696932,-0.063512,-0.585845,-0.980931,-0.218717,0.292915,-88.497467,37.183907,24.675926,0,0
10050,2024 9 19,12:41:56.292,0.40851,-0.69707,-0.063458,-0.585821,-0.9843,-0.22065,0.291081,-87.849724,37.466793,24.954714,0,0
10051,2024 9 19,12:41:56.300,0.402677,-0.701122,-0.063565,-0.58501,-0.96412,-0.336263,0.298573,-56.937786,41.307369,36.105606,0,0
10052,2024 9 19,12:41:56.308,0.398221,-0.704395,-0.066416,-0.583812,-1.003364,-0.319518,0.145689,-20.129986,46.957115,46.054939,0,0
10053,2024 9 19,12:41:56.317,0.395517,-0.706506,-0.071721,-0.582469,-0.980052,-0.237945,0.097798,11.847784,53.545227,54.735561,0,0
10054,2024 9 19,12:41:56.325,0.394026,-0.707946,-0.079235,-0.580754,-0.987468,0.021746,0.088812,37.99369,59.469742,62.086967,0,0
10055,2024 9 19,12:41:56.333,0.392867,-0.709178,-0.088168,-0.578743,-1.029577,0.136137,0.125069,49.452053,68.557457,68.745033,0,0
10056,2024 9 19,12:41:56.342,0.39281,-0.709239,-0.088608,-0.578644,-1.031653,0.141777,0.126856,50.017029,69.005539,69.073318,0,0
10057,2024 9 19,12:41:56.350,0.391496,-0.710509,-0.097711,-0.576502,-1.097607,0.064721,0.103008,51.140545,71.389046,73.982841,0,0
10058,2024 9 19,12:41:56.358,0.390214,-0.711346,-0.107806,-0.574535,-1.026138,0.062637,0.065421,55.217262,68.199471,79.994453,0,0
10059,2024 9 19,12:41:56.367,0.388743,-0.712258,-0.118532,-0.572284,-1.067496,0.030989,0.022489,57.690933,76.286224,84.926392,0,0
10060,2024 9 19,12:41:56.375,0.387215,-0.713037,-0.129597,-0.569945,-1.064691,0.042609,0.025194,60.579884,76.350296,87.06308,0,0
10061,2024 9 19,12:41:56.383,0.385462,-0.714045,-0.140799,-0.567206,-1.144729,0.056089,-0.062556,57.943043,83.550026,87.038063,0,0
10062,2024 9 19,12:41:56.392,0.385337,-0.714117,-0.1416,-0.56701,-1.150448,0.057052,-0.068827,57.754612,84.064522,87.036278,0,0
10063,2024 9 19,12:41:56.400,0.383394,-0.715137,-0.151791,-0.564391,-1.170217,0.068818,-0.094034,52.737053,82.753899,86.811272,0,0
10064,2024 9 19,12:41:56.408,0.380693,-0.716346,-0.162417,-0.56172,-1.210301,0.089008,-0.160084,43.718349,82.706863,89.649658,0,0
10065,2024 9 19,12:41:56.417,0.377191,-0.71752,-0.172556,-0.559556,-1.243051,0.043359,-0.160601,32.489552,76.008614,92.28167,0,0
10066,2024 9 19,12:41:56.425,0.373197,-0.718519,-0.181938,-0.557979,-1.16894,-0.009013,-0.146863,23.802971,67.821281,91.506821,0,0
10067,2024 9 19,12:41:56.433,0.368804,-0.719732,-0.190675,-0.556418,-1.1145,-0.054429,-0.144752,15.610143,70.136284,88.558945,0,0
10068,2024 9 19,12:41:56.442,0.368397,-0.719844,-0.191484,-0.556274,-1.109458,-0.058635,-0.144557,14.851448,70.350662,88.285957,0,0
10069,2024 9 19,12:41:56.450,0.363984,-0.721381,-0.199067,-0.554516,-1.145018,-0.124093,-0.125197,8.954645,74.38208,86.171913,0,0
10070,2024 9 19,12:41:56.458,0.359099,-0.72306,-0.207043,-0.552588,-1.156874,-0.174393,-0.146919,7.273547,72.64827,84.921715,0,0
10071,2024 9 19,12:41:56.467,0.354224,-0.72455,-0.214935,-0.550766,-1.174671,-0.211847,-0.174019,7.809593,69.961594,84.847694,0,0
10072,2024 9 19,12:41:56.475,0.34966,-0.725677,-0.222767,-0.549085,-1.147006,-0.223213,-0.21297,11.723699,65.167229,83.644653,0,0
10073,2024 9 19,12:41:56.483,0.345475,-0.726576,-0.230609,-0.547304,-1.159132,-0.225756,-0.251443,16.049253,65.399971,81.510315,0,0
10074,2024 9 19,12:41:56.492,0.345003,-0.726678,-0.231493,-0.547103,-1.1605,-0.226043,-0.255783,16.537209,65.426224,81.269547,0,0
10075,2024 9 19,12:41:56.500,0.341708,-0.727258,-0.238498,-0.545382,-1.249198,-0.250576,-0.31689,21.052954,62.044655,78.179321,0,0
10076,2024 9 19,12:41:56.508,0.33882,-0.727233,-0.24585,-0.543949,-1.295326,-0.272773,-0.368717,27.212128,48.420116,73.742538,0,0
10077,2024 9 19,12:41:56.517,0.336897,-0.726198,-0.252709,-0.543385,-1.295007,-0.313466,-0.36995,32.926758,29.631231,69.198959,0,0
10078,2024 9 19,12:41:56.525,0.335878,-0.724309,-0.259117,-0.543518,-1.30772,-0.355568,-0.449172,39.171581,13.931072,65.279968,0,0
10079,2024 9 19,12:41:56.533,0.335765,-0.72133,-0.265111,-0.544658,-1.222957,-0.4402,-0.4344,45.58873,-5.511402,64.933365,0,0
10080,2024 9 19,12:41:56.542,0.335751,-0.720937,-0.265903,-0.544809,-1.211757,-0.451382,-0.432449,46.43663,-8.080341,64.887566,0,0
10081,2024 9 19,12:41:56.550,0.33625,-0.717246,-0.27153,-0.546588,-1.071064,-0.483169,-0.433026,54.855526,-17.310181,72.975334,0,0
10082,2024 9 19,12:41:56.558,0.3368,-0.712461,-0.278769,-0.548852,-1.023104,-0.501813,-0.466204,63.352211,-19.896677,85.772812,0,0
10083,2024 9 19,12:41:56.567,0.337487,-0.70688,-0.286839,-0.551477,-1.042619,-0.562895,-0.483839,70.65947,-26.106859,93.166733,0,0
10084,2024 9 19,12:41:56.575,0.338634,-0.700761,-0.294992,-0.554273,-1.091612,-0.615401,-0.53048,76.03125,-31.320055,91.167885,0,0
10085,2024 9 19,12:41:56.583,0.340604,-0.694197,-0.302589,-0.557221,-1.055737,-0.6675,-0.536536,79.932655,-41.363285,82.894318,0,0
10086,2024 9 19,12:41:56.592,0.340901,-0.693209,-0.303733,-0.557665,-1.050333,-0.675348,-0.537448,80.520317,-42.876091,81.648071,0,0
10087,2024 9 19,12:41:56.600,0.343241,-0.687182,-0.309757,-0.560358,-1.060204,-0.748574,-0.584504,81.53656,-48.664238,77.135483,0,0
10088,2024 9 19,12:41:56.608,0.346444,-0.67965,-0.316097,-0.564012,-1.058879,-0.825659,-0.633294,84.053703,-66.025383,75.659813,0,0
10089,2024 9 19,12:41:56.617,0.350542,-0.67078,-0.321975,-0.568746,-0.968355,-0.894355,-0.599398,88.797226,-86.77623,74.40271,0,0
10090,2024 9 19,12:41:56.625,0.355397,-0.660996,-0.327302,-0.574117,-0.858352,-0.973119,-0.588187,91.655144,-102.263374,70.380791,0,0
10091,2024 9 19,12:41:56.633,0.361041,-0.65089,-0.331968,-0.579434,-0.722063,-1.006846,-0.505172,94.613457,-105.586632,60.027138,0,0
10092,2024 9 19,12:41:56.642,0.367288,-0.641362,-0.33589,-0.583858,-0.607321,-1.004841,-0.45844,95.111504,-106.146118,58.284035,0,0
10093,2024 9 19,12:41:56.650,0.368358,-0.63973,-0.336561,-0.584616,-0.587673,-1.004498,-0.450438,95.096046,-99.743942,42.823582,0,0
10094,2024 9 19,12:41:56.658,0.374212,-0.6327,-0.339011,-0.587116,-0.532447,-0.961066,-0.478763,92.081474,-86.832779,22.612793,0,0
10095,2024 9 19,12:41:56.667,0.380974,-0.625997,-0.340941,-0.58883,-0.575503,-0.91416,-0.49298,84.294411,-72.192001,3.52879,0,0
10096,2024 9 19,12:41:56.675,0.387706,-0.620416,-0.341952,-0.589759,-0.75275,-0.889375,-0.49075,73.62178,-63.079082,-10.520724,0,0
10097,2024 9 19,12:41:56.683,0.394418,-0.615254,-0.341765,-0.590824,-0.899584,-0.879683,-0.426746,62.63092,-69.861435,-19.097443,0,0
10098,2024 9 19,12:41:56.692,0.400903,-0.611769,-0.338866,-0.591749,-0.734681,-1.455433,0.554826,19.893314,-56.611053,-60.545834,0,0
10099,2024 9 19,12:41:56.700,0.402123,-0.611113,-0.338321,-0.591923,-0.703659,-1.563746,0.739484,11.85332,-54.118332,-68.343292,0,0
10100,2024 9 19,12:41:56.708,0.409493,-0.613434,-0.340874,-0.582909,-0.826787,0.120362,0.160961,106.217148,54.845642,-91.814484,0,0
10101,2024 9 19,12:41:56.717,0.417027,-0.61616,-0.34346,-0.573081,-1.378018,0.627172,0.931216,116.251945,79.715179,-94.152962,0,0
10102,2024 9 19,12:41:56.725,0.423018,-0.619537,-0.345697,-0.563629,-1.763306,0.654759,0.894844,82.758209,60.466431,-88.994507,0,0
10103,2024 9 19,12:41:56.733,0.42916,-0.621685,-0.343663,-0.557849,-2.035892,0.430841,0.845541,25.753128,-2.467022,-94.832451,1,0
10104,2024 9 19,12:41:56.742,0.434358,-0.620562,-0.333784,-0.561056,-1.901432,-0.026961,0.535141,-49.064606,-144.518616,-81.356239,0,0
10105,2024 9 19,12:41:56.750,0.43542,-0.620332,-0.331765,-0.561711,-1.873957,-0.120507,0.471715,-64.352554,-173.544846,-78.60257,0,0
10106,2024 9 19,12:41:56.758,0.438979,-0.615287,-0.317841,-0.572365,-0.638556,-0.618798,-0.256721,-96.292145,-223.077118,-58.174248,0,0
10107,2024 9 19,12:41:56.767,0.441074,-0.611127,-0.307565,-0.580782,0.055065,-0.576805,-0.889436,-34.86499,-109.850418,-21.801411,0,0
10108,2024 9 19,12:41:56.775,0.44238,-0.61107,-0.306645,-0.580383,-0.818247,0.112438,-0.028482,6.276836,20.139984,-12.502937,0,0
10109,2024 9 19,12:41:56.783,0.442161,-0.612467,-0.306478,-0.579176,-1.040951,-0.114078,-0.257062,-5.980852,5.06013,-14.371463,0,0
10110,2024 9 19,12:41:56.792,0.443617,-0.612859,-0.30583,-0.577991,-0.913538,-0.105468,-0.009526,14.473284,13.864875,-24.101093,0,0
10111,2024 9 19,12:41:56.800,0.443937,-0.612945,-0.305687,-0.577731,-0.885518,-0.103574,0.04491,18.971401,15.801147,-26.240761,0,0
10112,2024 9 19,12:41:56.808,0.445027,-0.613925,-0.306171,-0.575591,-0.991577,-0.137937,-0.019733,14.253614,16.090092,-21.376413,0,0
10113,2024 9 19,12:41:56.817,0.445954,-0.614616,-0.306395,-0.574014,-0.90464,-0.12984,-0.149218,9.847712,16.155096,-14.911971,0,0
10114,2024 9 19,12:41:56.825,0.446604,-0.615507,-0.307,-0.572229,-0.969008,-0.119734,-0.0194,10.394965,20.865284,-12.220673,0,0
10115,2024 9 19,12:41:56.833,0.446941,-0.616451,-0.307731,-0.570554,-1.050459,-0.156351,0.017193,7.338223,18.812662,-8.325581,0,0
10116,2024 9 19,12:41:56.842,0.447168,-0.617006,-0.308334,-0.569449,-1.016019,-0.122687,-0.014983,6.814341,12.690605,-4.341159,0,0
10117,2024 9 19,12:41:56.850,0.447222,-0.617137,-0.308475,-0.56919,-1.00793,-0.114779,-0.022541,6.691286,11.252591,-3.405256,0,0
10118,2024 9 19,12:41:56.858,0.44729,-0.617481,-0.308981,-0.568488,-0.998964,-0.110306,-0.03954,5.03966,11.374854,-2.534168,0,0
10119,2024 9 19,12:41:56.867,0.447299,-0.617852,-0.309505,-0.567793,-0.971676,-0.121433,-0.056924,3.627106,10.43381,-1.354961,0,0
10120,2024 9 19,12:41:56.875,0.447122,-0.618281,-0.310102,-0.567139,-0.989021,-0.115652,-0.061502,2.087447,11.49563,0.680922,0,0
10121,2024 9 19,12:41:56.883,0.446832,-0.61871,-0.310674,-0.566587,-0.995099,-0.112035,-0.061887,0.425272,10.469676,1.362481,0,0
10122,2024 9 19,12:41:56.892,0.44652,-0.619134,-0.311132,-0.566118,-1.000994,-0.105282,-0.061982,-0.717519,9.438221,0.844223,0,0
10123,2024 9 19,12:41:56.900,0.446442,-0.61924,-0.311246,-0.566001,-1.002464,-0.103599,-0.062006,-1.002423,9.181075,0.715018,0,0
10124,2024 9 19,12:41:56.908,0.446219,-0.619585,-0.311491,-0.565665,-0.998831,-0.111181,-0.058373,-1.256057,8.343129,-0.227184,0,0
10125,2024 9 19,12:41:56.917,0.44604,-0.619984,-0.311749,-0.565225,-0.996457,-0.207581,-0.06858,-0.685684,8.084957,-1.282657,0,0
10126,2024 9 19,12:41:56.925,0.44593,-0.620394,-0.311979,-0.564736,-0.987893,-0.123805,-0.057322,-0.042276,7.83798,-2.140803,0,0
10127,2024 9 19,12:41:56.933,0.445883,-0.620792,-0.312244,-0.564189,-0.997575,-0.122167,-0.038435,0.980282,8.179658,-2.407794,0,0
10128,2024 9 19,12:41:56.942,0.44587,-0.62115,-0.312533,-0.563644,-0.997945,-0.113114,-0.021647,1.741217,7.68482,-2.297767,0,0
10129,2024 9 19,12:41:56.950,0.445867,-0.621245,-0.31261,-0.563501,-0.998042,-0.110731,-0.017229,1.941484,7.554585,-2.268809,0,0
10130,2024 9 19,12:41:56.958,0.445877,-0.621475,-0.312821,-0.563122,-0.989853,-0.108313,-0.029986,2.083937,6.582451,-2.082539,0,0
10131,2024 9 19,12:41:56.967,0.445831,-0.621757,-0.313074,-0.562705,-0.989797,-0.10909,-0.041591,1.498943,6.811812,-1.454056,0,0
10132,2024 9 19,12:41:56.975,0.445774,-0.622045,-0.31335,-0.562279,-0.998302,-0.11143,-0.030879,1.252286,6.784978,-1.373152,0,0
10133,2024 9 19,12:41:56.983,0.44574,-0.622315,-0.313625,-0.561852,-0.993892,-0.111712,-0.027963,1.671776,6.379532,-1.483848,0,0
10134,2024 9 19,12:41:56.992,0.445725,-0.622574,-0.313904,-0.561422,-0.996211,-0.11179,-0.025752,1.963286,6.312395,-1.470116,0,0
10135,2024 9 19,12:41:57.000,0.445721,-0.622646,-0.313981,-0.561304,-0.996852,-0.111811,-0.02514,2.043907,6.293827,-1.466318,0,0
10136,2024 9 19,12:41:57.008,0.445734,-0.622832,-0.314211,-0.560958,-0.997381,-0.112168,-0.024269,2.329406,6.1133,-1.509097,0,0
10137,2024 9 19,12:41:57.017,0.445781,-0.62303,-0.314493,-0.560542,-0.991236,-0.111569,-0.029268,2.80296,5.887764,-1.652232,0,0
10138,2024 9 19,12:41:57.025,0.445861,-0.623228,-0.314806,-0.560082,-0.994726,-0.107913,-0.026849,3.372758,6.25967,-1.910624,0,0
10139,2024 9 19,12:41:57.033,0.445981,-0.623434,-0.315147,-0.559565,-0.98877,-0.111737,-0.032415,3.88283,6.496077,-2.288433,0,0
10140,2024 9 19,12:41:57.042,0.446151,-0.623647,-0.315517,-0.558984,-0.981514,-0.10833,-0.041985,4.635807,7.257049,-2.7002,0,0
10141,2024 9 19,12:41:57.050,0.446323,-0.623917,-0.315934,-0.558309,-0.979068,-0.107344,-0.041991,4.940139,8.600167,-3.164882,0,0
10142,2024 9 19,12:41:57.058,0.446373,-0.623996,-0.316055,-0.558112,-0.978355,-0.107057,-0.041993,5.028872,8.991777,-3.300369,0,0
10143,2024 9 19,12:41:57.067,0.446519,-0.624253,-0.316432,-0.557494,-0.978146,-0.10972,-0.04165,5.44131,9.750746,-3.426018,0,0
10144,2024 9 19,12:41:57.075,0.446676,-0.62459,-0.316898,-0.556724,-0.980138,-0.112905,-0.035042,5.349262,10.360447,-3.463178,0,0
10145,2024 9 19,12:41:57.083,0.446828,-0.624947,-0.317402,-0.555915,-0.981756,-0.112829,-0.024196,5.449886,10.413985,-3.21817,0,0
10146,2024 9 19,12:41:57.092,0.446975,-0.625268,-0.317918,-0.555141,-0.982922,-0.115189,-0.027072,5.394951,9.664066,-2.761714,0,0
10147,2024 9 19,12:41:57.100,0.447129,-0.625533,-0.318418,-0.554431,-0.987008,-0.116241,-0.016399,5.505656,8.716352,-2.326897,0,0
10148,2024 9 19,12:41:57.108,0.447176,-0.625614,-0.31857,-0.554215,-0.98825,-0.116561,-0.013155,5.539303,8.428301,-2.194737,0,0
10149,2024 9 19,12:41:57.117,0.447311,-0.625753,-0.31894,-0.553736,-0.982555,-0.115309,-0.015875,5.380865,7.243398,-1.859017,0,0
10150,2024 9 19,12:41:57.125,0.447483,-0.625871,-0.31936,-0.55322,-0.981138,-0.117616,-0.022433,5.542377,6.415806,-1.62944,0,0
10151,2024 9 19,12:41:57.133,0.447671,-0.625955,-0.319796,-0.552722,-0.981705,-0.124168,-0.062284,5.5505,5.907638,-1.348579,0,0
10152,2024 9 19,12:41:57.142,0.447863,-0.626024,-0.32024,-0.55223,-0.982886,-0.114504,-0.028252,5.678493,5.665473,-1.260963,0,0
10153,2024 9 19,12:41:57.150,0.448079,-0.626076,-0.320696,-0.551731,-0.98359,-0.117007,-0.022962,6.010568,5.63115,-1.316856,0,0
10154,2024 9 19,12:41:57.158,0.448147,-0.626092,-0.32084,-0.551574,-0.983813,-0.117798,-0.02129,6.115468,5.620307,-1.334512,0,0
10155,2024 9 19,12:41:57.167,0.448367,-0.626095,-0.321206,-0.55118,-0.986205,-0.117717,-0.012135,6.853652,5.077864,-1.423047,0,0
10156,2024 9 19,12:41:57.175,0.448701,-0.626038,-0.321648,-0.550714,-0.991932,-0.116699,-0.014499,7.79255,4.201562,-1.699419,0,0
10157,2024 9 19,12:41:57.183,0.449151,-0.625892,-0.322079,-0.550262,-0.992785,-0.114723,-0.010972,8.58932,2.641634,-2.076915,0,0
10158,2024 9 19,12:41:57.192,0.449698,-0.625657,-0.322464,-0.549856,-0.998323,-0.11507,-0.012462,9.011621,0.944615,-2.486851,0,0
10159,2024 9 19,12:41:57.200,0.450331,-0.625325,-0.322756,-0.549544,-1.001438,-0.111247,-0.002452,9.272077,-1.124595,-2.907257,0,0
10160,2024 9 19,12:41:57.208,0.450538,-0.625217,-0.322852,-0.549441,-1.002457,-0.109996,0.000825,9.357361,-1.802135,-3.044914,0,0
10161,2024 9 19,12:41:57.217,0.451117,-0.624855,-0.322957,-0.549316,-1.002141,-0.11154,-0.003639,9.140866,-4.022677,-3.375593,0,0
10162,2024 9 19,12:41:57.225,0.451849,-0.624362,-0.32297,-0.549267,-1.000085,-0.112052,-0.010972,8.622019,-6.099558,-3.81031,0,0
10163,2024 9 19,12:41:57.233,0.452417,-0.623971,-0.322935,-0.549265,-1.001544,-0.111226,-0.013987,8.322206,-7.732025,-4.189714,0,0
10164,2024 9 19,12:41:57.242,0.453245,-0.62337,-0.322748,-0.549375,-1.009248,-0.107576,-0.011373,8.096548,-10.204105,-4.816885,0,0
10165,2024 9 19,12:41:57.250,0.454223,-0.622608,-0.322366,-0.549655,-1.001346,-0.110322,-0.010147,7.416306,-13.253807,-5.289133,0,0
10166,2024 9 19,12:41:57.258,0.455125,-0.621878,-0.321905,-0.550006,-0.992844,-0.123809,-0.019382,6.725066,-15.286887,-5.610035,0,0
10167,2024 9 19,12:41:57.267,0.45527,-0.621757,-0.321832,-0.550065,-0.989838,-0.122647,-0.022041,6.766429,-15.266828,-5.585223,0,0
10168,2024 9 19,12:41:57.275,0.456416,-0.620813,-0.321263,-0.550514,-0.9756,-0.113867,-0.039251,6.878946,-14.290975,-5.301773,0,0
10169,2024 9 19,12:41:57.283,0.457321,-0.620091,-0.32081,-0.55084,-0.992385,-0.11425,-0.037329,5.980203,-12.641105,-5.112072,0,0
10170,2024 9 19,12:41:57.292,0.458138,-0.619435,-0.320352,-0.551167,-0.990982,-0.10977,-0.032863,5.375782,-13.269662,-5.266805,0,0
10171,2024 9 19,12:41:57.300,0.459115,-0.618655,-0.319731,-0.551589,-0.98417,-0.12128,-0.036958,4.738667,-13.186681,-5.543891,0,0
10172,2024 9 19,12:41:57.308,0.459777,-0.61814,-0.319275,-0.551879,-0.979707,-0.112196,-0.049764,4.408213,-13.183717,-5.905441,0,0
10173,2024 9 19,12:41:57.317,0.4599,-0.618049,-0.319188,-0.55193,-0.980931,-0.218717,0.292915,4.307568,-12.993886,-5.905164,0,0
10174,2024 9 19,12:41:57.325,0.460768,-0.617419,-0.318561,-0.552272,-0.988543,-0.125871,-0.03879,3.750869,-11.692032,-5.919687,0,0
10175,2024 9 19,12:41:57.333,0.461558,-0.616887,-0.317997,-0.552533,-0.979727,-0.117224,-0.054904,3.898289,-11.266985,-6.332163,0,0
10176,2024 9 19,12:41:57.342,0.462268,-0.616452,-0.317492,-0.552716,-0.973881,-0.109868,-0.044203,3.66068,-9.415615,-6.642405,0,0
10177,2024 9 19,12:41:57.350,0.463008,-0.616118,-0.316857,-0.552832,-0.997001,-0.115842,-0.048788,1.794896,-8.050287,-7.355984,0,0
10178,2024 9 19,12:41:57.358,0.463541,-0.615882,-0.316344,-0.552942,-0.99389,-0.114818,-0.042876,1.256558,-9.601289,-8.127337,0,0
10179,2024 9 19,12:41:57.367,0.463655,-0.615837,-0.316221,-0.552968,-0.995064,-0.116749,-0.040684,1.137575,-9.633636,-8.225188,0,0
10180,2024 9 19,12:41:57.375,0.464382,-0.615564,-0.315369,-0.553147,-1.003204,-0.12738,-0.035884,0.306476,-9.458338,-8.806498,0,0
10181,2024 9 19,12:41:57.383,0.465066,-0.615335,-0.314487,-0.55333,-0.997448,-0.120855,-0.052907,-0.593337,-10.465731,-9.714086,0,0
10182,2024 9 19,12:41:57.392,0.465723,-0.615118,-0.313561,-0.553544,-0.990198,-0.130262,-0.036186,-1.249869,-11.298354,-10.48699,0,0
10183,2024 9 19,12:41:57.400,0.466525,-0.614891,-0.312393,-0.553782,-0.984173,-0.126525,-0.067715,-1.447528,-11.223466,-11.027168,0,0
10184,2024 9 19,12:41:57.408,0.467131,-0.614741,-0.311512,-0.553933,-0.968732,-0.117529,-0.050418,-1.463388,-10.391335,-11.548793,0,0
10185,2024 9 19,12:41:57.417,0.467254,-0.614728,-0.311311,-0.553957,-0.974233,-0.11917,-0.047576,-1.624822,-10.133683,-11.648174,0,0
10186,2024 9 19,12:41:57.425,0.467914,-0.614712,-0.310155,-0.554066,-1.010946,-0.132856,-0.04117,-2.86632,-9.293697,-12.2301,0,0
10187,2024 9 19,12:41:57.433,0.46856,-0.614676,-0.309032,-0.554187,-0.979895,-0.12348,-0.053798,-3.386543,-10.757235,-13.058915,0,0
10188,2024 9 19,12:41:57.442,0.469331,-0.614709,-0.307571,-0.554311,-1.001141,-0.126396,-0.056474,-3.910393,-9.6976,-14.162385,0,0
10189,2024 9 19,12:41:57.450,0.46999,-0.614811,-0.306202,-0.554397,-0.988881,-0.132214,-0.050433,-5.192552,-9.868425,-14.842936,0,0
10190,2024 9 19,12:41:57.458,0.470593,-0.614954,-0.304808,-0.554495,-1.007715,-0.138327,-0.077521,-6.527191,-10.220358,-15.952893,0,0
10191,2024 9 19,12:41:57.467,0.471148,-0.615198,-0.30334,-0.554559,-0.986054,-0.12296,-0.114645,-9.143357,-9.923656,-17.402433,0,0
10192,2024 9 19,12:41:57.475,0.471308,-0.615338,-0.302829,-0.554547,-0.982178,-0.23725,-0.08105,-9.666155,-8.987803,-17.908054,0,0
10193,2024 9 19,12:41:57.483,0.471724,-0.615835,-0.30133,-0.554457,-0.979503,-0.125241,-0.082786,-10.861875,-5.6915,-19.446323,0,0
10194,2024 9 19,12:41:57.492,0.472213,-0.616765,-0.299207,-0.554156,-1.005683,-0.124601,-0.080077,-13.622873,-3.8074,-22.549284,0,0
10195,2024 9 19,12:41:57.500,0.472644,-0.618003,-0.297156,-0.553513,-1.037474,-0.139591,-0.047851,-15.274936,1.767045,-27.566828,0,0
10196,2024 9 19,12:41:57.508,0.473176,-0.619585,-0.295264,-0.5523,-1.093078,-0.153646,-0.086809,-13.991689,8.369023,-34.07777,0,0
10197,2024 9 19,12:41:57.517,0.474067,-0.621262,-0.293225,-0.550736,-1.099231,-0.187441,-0.047291,-11.316898,9.374306,-42.15274,0,0
10198,2024 9 19,12:41:57.525,0.474516,-0.621915,-0.292489,-0.550002,-1.11001,-0.192307,-0.05075,-9.892054,10.869631,-45.44352,0,0
10199,2024 9 19,12:41:57.533,0.476023,-0.623811,-0.290444,-0.547629,-1.155473,-0.197135,-0.072026,-4.959723,16.421165,-55.185856,0,0
10200,2024 9 19,12:41:57.542,0.478963,-0.626511,-0.287585,-0.543468,-1.238329,-0.210208,-0.018518,4.217097,20.315788,-68.605881,0,0
10201,2024 9 19,12:41:57.550,0.482594,-0.628774,-0.284719,-0.539131,-1.284917,-0.19904,-0.028112,12.024641,15.834229,-78.929062,0,0
10202,2024 9 19,12:41:57.558,0.486795,-0.630464,-0.281547,-0.535033,-1.277627,-0.185761,-0.031846,17.428751,6.773482,-87.808037,0,0
10203,2024 9 19,12:41:57.567,0.491448,-0.631796,-0.277933,-0.531087,-1.241576,-0.195169,0.009923,19.067009,-0.31026,-95.276054,0,0
10204,2024 9 19,12:41:57.575,0.492737,-0.632122,-0.276881,-0.530056,-1.247112,-0.193791,0.012281,19.20878,-2.323905,-96.872108,0,0
10205,2024 9 19,12:41:57.583,0.497833,-0.633186,-0.272417,-0.526314,-1.331733,-0.173257,-0.0183,18.079033,-10.731712,-101.687515,0,0
10206,2024 9 19,12:41:57.592,0.504457,-0.634238,-0.265903,-0.522035,-1.416503,-0.172827,-0.045409,14.764024,-21.203369,-112.898041,0,0
10207,2024 9 19,12:41:57.600,0.510807,-0.635201,-0.259342,-0.517974,-1.476529,-0.212862,-0.006788,15.289488,-24.315916,-127.716515,0,0
10208,2024 9 19,12:41:57.608,0.51956,-0.636311,-0.250363,-0.512259,-1.507712,-0.227938,0.015383,19.549896,-30.693092,-147.649933,0,0
10209,2024 9 19,12:41:57.617,0.526656,-0.636917,-0.242945,-0.507849,-1.526194,-0.193339,0.007018,21.880238,-40.746098,-161.414551,0,0
10210,2024 9 19,12:41:57.625,0.528834,-0.637083,-0.240579,-0.506507,-1.542183,-0.184518,0.001683,21.671326,-42.86356,-165.594955,0,0
10211,2024 9 19,12:41:57.633,0.538464,-0.637775,-0.22953,-0.500507,-1.687109,-0.167955,-0.015109,17.350834,-47.306122,-185.213593,0,0
10212,2024 9 19,12:41:57.642,0.548881,-0.638622,-0.217068,-0.493585,-1.906396,-0.188158,0.041931,17.292044,-52.658024,-211.384323,0,0
10213,2024 9 19,12:41:57.650,0.559917,-0.639241,-0.203603,-0.48606,-2.10428,-0.206028,0.155898,22.135803,-63.338898,-242.241379,0,0
10214,2024 9 19,12:41:57.658,0.575115,-0.639209,-0.184328,-0.475789,-2.354507,-0.26219,0.267258,28.880646,-84.802567,-282.981323,0,0
10215,2024 9 19,12:41:57.667,0.587389,-0.638693,-0.168196,-0.467541,-2.590309,-0.306964,0.190007,31.319012,-101.963943,-313.130768,0,0
10216,2024 9 19,12:41:57.675,0.591345,-0.638367,-0.162803,-0.464933,-2.605923,-0.316813,0.170147,31.629826,-108.567795,-321.999054,0,0
10217,2024 9 19,12:41:57.683,0.607621,-0.636024,-0.13905,-0.454442,-2.319385,-0.42136,0.093276,28.530813,-137.54863,-350.106445,0,0
10218,2024 9 19,12:41:57.692,0.624004,-0.632885,-0.113209,-0.443578,-1.935717,-0.726723,-0.011587,22.087332,-151.361435,-364.683197,0,0
10219,2024 9 19,12:41:57.700,0.639246,-0.629389,-0.088468,-0.43241,-1.760421,-0.825005,-0.007998,25.123358,-146.30983,-370.319855,0,1
10220,2024 9 19,12:41:57.708,0.656189,-0.624609,-0.060504,-0.418413,-1.735778,-0.742094,0.025738,35.527187,-134.285049,-356.211639,0,0
10221,2024 9 19,12:41:57.717,0.668281,-0.620395,-0.040177,-0.408189,-1.737436,-0.671324,0.070484,39.683075,-136.529984,-341.570984,0,0
10222,2024 9 19,12:41:57.725,0.672074,-0.618875,-0.033749,-0.404987,-1.713474,-0.62364,0.097272,41.089325,-137.607513,-337.764282,0,0
10223,2024 9 19,12:41:57.733,0.684978,-0.612496,-0.011542,-0.393894,-1.488661,-0.328403,0.246267,45.659378,-138.919693,-329.757843,0,0
10224,2024 9 19,12:41:57.742,0.697023,-0.606147,0.009383,-0.382504,-1.252786,-0.069422,0.336687,46.273056,-124.122002,-325.585144,0,0
10225,2024 9 19,12:41:57.750,0.709225,-0.600065,0.030513,-0.36827,-1.087687,0.151371,0.355031,39.107872,-91.764229,-329.296631,0,0
10226,2024 9 19,12:41:57.758,0.722233,-0.594637,0.051068,-0.348864,-0.852793,0.321682,0.574465,40.366177,-37.989353,-341.345673,0,0
10227,2024 9 19,12:41:57.767,0.732731,-0.590761,0.065,-0.33107,-0.580914,0.57159,0.695936,52.868614,11.102062,-351.197968,0,0
10228,2024 9 19,12:41:57.775,0.737718,-0.588498,0.070352,-0.322905,-0.035315,0.581409,0.825799,65.61248,21.673101,-344.6586,0,0
10229,2024 9 19,12:41:57.783,0.748482,-0.582579,0.079382,-0.306351,1.29614,0.567125,0.908034,91.875107,25.480993,-278.679779,0,0
10230,2024 9 19,12:41:57.792,0.756248,-0.577464,0.082953,-0.296008,0.55186,0.941158,0.046599,71.419876,44.201965,-118.623535,0,0
10231,2024 9 19,12:41:57.800,0.759699,-0.57767,0.074237,-0.289062,-0.851401,0.832007,0.016419,40.001007,122.509438,4.635323,0,0
10232,2024 9 19,12:41:57.808,0.759556,-0.579007,0.063918,-0.289249,-1.035107,0.651001,0.104524,14.12352,73.56498,84.760048,0,0
10233,2024 9 19,12:41:57.817,0.757486,-0.580359,0.055457,-0.29373,-1.011086,0.647535,-0.065211,-2.922506,44.388756,136.608002,0,0
10234,2024 9 19,12:41:57.825,0.755856,-0.581059,0.052096,-0.297127,-0.965741,0.615798,-0.044657,-11.214906,24.930857,153.091019,0,0
10235,2024 9 19,12:41:57.833,0.750764,-0.582872,0.046033,-0.307236,-0.821381,0.486516,0.110093,-29.442692,-17.722754,170.412766,0,0
10236,2024 9 19,12:41:57.842,0.744445,-0.585302,0.040596,-0.31854,-0.715627,0.349888,0.064127,-45.915363,-27.400867,171.761719,0,0
10237,2024 9 19,12:41:57.850,0.736213,-0.589004,0.035182,-0.331189,-0.509333,0.292939,0.148334,-59.705383,-25.639307,158.520966,0,0
10238,2024 9 19,12:41:57.858,0.72829,-0.593356,0.030238,-0.341294,-0.355459,0.281242,0.159772,-70.187332,-9.059832,146.368637,0,0
10239,2024 9 19,12:41:57.867,0.720554,-0.598365,0.025149,-0.349316,-0.350076,0.262013,0.14627,-79.931076,10.223928,142.147766,0,0
10240,2024 9 19,12:41:57.875,0.712677,-0.603947,0.019484,-0.356197,-0.447611,0.238983,0.131716,-86.84906,25.700634,144.863785,0,0
10241,2024 9 19,12:41:57.883,0.709107,-0.606488,0.016812,-0.359153,-0.488852,0.227865,0.120479,-89.149597,30.48061,147.395508,0,0
10242,2024 9 19,12:41:57.892,0.701518,-0.611862,0.010887,-0.365082,-0.566045,0.200979,0.09009,-92.097481,35.113079,156.019913,0,0
10243,2024 9 19,12:41:57.900,0.690747,-0.618985,0.002317,-0.373557,-0.637933,0.147181,0.077151,-94.930786,36.421036,171.591553,0,0
10244,2024 9 19,12:41:57.908,0.680191,-0.625433,-0.006237,-0.382039,-0.679512,0.087028,0.078195,-96.050552,36.626682,187.750351,0,0
10245,2024 9 19,12:41:57.917,0.668236,-0.632028,-0.016293,-0.391814,-0.713028,0.024053,0.092498,-95.41362,38.484589,205.455032,0,0
10246,2024 9 19,12:41:57.925,0.656653,-0.637879,-0.026465,-0.401289,-0.759887,-0.039235,0.10787,-93.235443,42.16185,220.477814,0,0
10247,2024 9 19,12:41:57.933,0.652387,-0.63995,-0.030291,-0.404759,-0.782224,-0.064218,0.114247,-92.163628,43.594803,225.385529,0,0
10248,2024 9 19,12:41:57.942,0.639947,-0.645332,-0.042077,-0.414718,-0.885331,-0.147024,0.13256,-86.948425,47.631744,234.672745,0,0
10249,2024 9 19,12:41:57.950,0.62682,-0.650418,-0.054973,-0.425118,-1.003599,-0.225382,0.136604,-79.758034,49.184109,240.213593,0,0
10250,2024 9 19,12:41:57.958,0.614311,-0.654599,-0.067648,-0.435043,-1.082359,-0.272261,0.134283,-71.359406,47.848507,242.307465,0,0
10251,2024 9 19,12:41:57.967,0.599924,-0.65846,-0.08277,-0.446439,-1.138949,-0.304326,0.131437,-61.963219,46.750671,243.542404,0,0
10252,2024 9 19,12:41:57.975,0.588732,-0.660978,-0.094777,-0.455288,-1.177414,-0.326574,0.137047,-55.396034,45.290035,245.306046,0,0
10253,2024 9 19,12:41:57.983,0.58446,-0.661836,-0.099395,-0.458667,-1.191146,-0.333801,0.139772,-53.049873,44.63702,246.146759,0,0
10254,2024 9 19,12:41:57.992,0.572345,-0.663482,-0.112733,-0.468227,-1.224041,-0.344511,0.151666,-47.75729,42.519314,249.709,0,0
10255,2024 9 19,12:41:58.000,0.559406,-0.664702,-0.127048,-0.478296,-1.260191,-0.351387,0.166989,-43.682964,41.55463,253.821442,0,0
10256,2024 9 19,12:41:58.008,0.546709,-0.665469,-0.141024,-0.487913,-1.300102,-0.361283,0.184463,-41.79718,41.693359,257.46106,0,0
10257,2024 9 19,12:41:58.017,0.531478,-0.665901,-0.157394,-0.49892,-1.343216,-0.37756,0.198249,-42.143948,41.743378,260.10199,0,0
10258,2024 9 19,12:41:58.025,0.519227,-0.666034,-0.170253,-0.507485,-1.357551,-0.386883,0.214959,-43.38472,41.790222,261.341705,0,0
10259,2024 9 19,12:41:58.033,0.514357,-0.666066,-0.175285,-0.510804,-1.361263,-0.391721,0.222214,-44.070629,42.101902,261.712769,0,0
10260,2024 9 19,12:41:58.042,0.50062,-0.666026,-0.188845,-0.519446,-1.358657,-0.412322,0.248573,-47.236843,45.3008,261.825134,0,0
10261,2024 9 19,12:41:58.050,0.485619,-0.666028,-0.203148,-0.528151,-1.358963,-0.436678,0.281023,-50.7812,50.692375,261.246826,0,0
10262,2024 9 19,12:41:58.058,0.470718,-0.666167,-0.216886,-0.535963,-1.377945,-0.471281,0.304539,-54.3825,57.946766,259.681915,0,0
10263,2024 9 19,12:41:58.067,0.453262,-0.666603,-0.232367,-0.543849,-1.432119,-0.533272,0.31978,-57.650276,67.014,255.453384,0,0
10264,2024 9 19,12:41:58.075,0.438763,-0.667104,-0.244915,-0.549705,-1.489953,-0.591031,0.337601,-59.251495,73.727127,250.608063,0,0
10265,2024 9 19,12:41:58.083,0.432948,-0.667317,-0.249902,-0.551938,-1.51064,-0.614552,0.343266,-59.628635,76.073662,248.430618,0,0
10266,2024 9 19,12:41:58.092,0.418273,-0.667925,-0.262167,-0.556701,-1.539076,-0.678202,0.347955,-58.440605,79.792076,241.170288,0,0
10267,2024 9 19,12:41:58.100,0.403473,-0.668532,-0.274471,-0.560937,-1.539777,-0.749886,0.351611,-55.50135,83.592392,232.903946,0,0
10268,2024 9 19,12:41:58.108,0.386524,-0.669235,-0.288689,-0.564812,-1.519879,-0.832793,0.350909,-49.857414,89.03936,223.507614,0,0
10269,2024 9 19,12:41:58.117,0.370967,-0.669874,-0.302014,-0.567526,-1.502932,-0.88797,0.336688,-43.380188,94.715401,215.65065,0,0
10270,2024 9 19,12:41:58.125,0.358091,-0.670403,-0.313269,-0.569165,-1.496913,-0.924094,0.311646,-37.720287,99.637756,209.76059,0,0
10271,2024 9 19,12:41:58.133,0.351566,-0.670668,-0.319057,-0.569777,-1.496801,-0.9339,0.290709,-35.028809,102.14183,207.049911,0,0
10272,2024 9 19,12:41:58.142,0.339787,-0.671133,-0.32972,-0.570259,-1.50136,-0.929663,0.224323,-30.842129,106.34877,202.679733,0,0
10273,2024 9 19,12:41:58.150,0.327238,-0.671604,-0.341157,-0.570304,-1.496382,-0.91833,0.11945,-27.476517,109.340179,197.403152,0,0
10274,2024 9 19,12:41:58.158,0.312707,-0.672084,-0.354296,-0.569823,-1.456185,-0.930478,-0.029756,-25.413721,109.156242,187.717163,0,0
10275,2024 9 19,12:41:58.167,0.299542,-0.672547,-0.36604,-0.568944,-1.403934,-0.995552,-0.183412,-23.185062,107.330902,174.416107,0,0
10276,2024 9 19,12:41:58.175,0.28902,-0.672949,-0.375382,-0.567901,-1.35532,-1.111223,-0.299483,-19.804924,104.047981,160.516632,0,0
10277,2024 9 19,12:41:58.183,0.283905,-0.673132,-0.380025,-0.567243,-1.330003,-1.184277,-0.352409,-16.810276,101.434662,153.027145,0,0
10278,2024 9 19,12:41:58.192,0.275888,-0.6733,-0.38775,-0.565764,-1.27895,-1.338985,-0.42451,-7.833645,93.628716,139.452225,0,0
10279,2024 9 19,12:41:58.200,0.268561,-0.673086,-0.395676,-0.564063,-1.211409,-1.489313,-0.486252,4.329682,81.53022,126.38559,0,0
10280,2024 9 19,12:41:58.208,0.262095,-0.672,-0.404494,-0.562139,-1.165066,-1.678662,-0.568702,18.988642,62.667091,111.710747,0,0
10281,2024 9 19,12:41:58.217,0.258137,-0.670078,-0.412201,-0.560686,-1.097362,-1.854426,-0.601815,33.273827,39.033569,96.40593,0,0
10282,2024 9 19,12:41:58.225,0.255633,-0.666612,-0.42117,-0.559371,-0.952857,-2.065702,-0.565983,51.489624,5.964066,74.126091,0,0
10283,2024 9 19,12:41:58.233,0.255629,-0.666607,-0.421182,-0.559369,-0.952667,-2.065979,-0.565935,51.513538,5.92065,74.09684,0,0
10284,2024 9 19,12:41:58.242,0.257594,-0.662919,-0.426537,-0.558793,-1.017468,-2.210576,-0.411185,64.570351,-12.878786,50.219887,0,0
10285,2024 9 19,12:41:58.250,0.265465,-0.663317,-0.429424,-0.552388,-1.368206,-3.293618,-1.354585,100.693436,7.468224,-55.173485,0,0
10286,2024 9 19,12:41:58.258,0.282649,-0.660545,-0.425124,-0.550503,-1.218569,-2.158813,-0.250962,114.915627,-106.216324,-132.449799,0,0
10287,2024 9 19,12:41:58.267,0.303365,-0.65984,-0.416278,-0.547067,-1.139973,-2.043648,-2.340159,114.391579,-121.485352,-215.612,0,0
10288,2024 9 19,12:41:58.275,0.330288,-0.655927,-0.403096,-0.546039,-0.327704,1.258176,2.442572,168.130447,-169.978561,-257.970825,1,0
10289,2024 9 19,12:41:58.283,0.344019,-0.661677,-0.387462,-0.541934,-1.740348,0.225103,-2.012611,-53.020432,-58.952835,-242.361847,0,0
10290,2024 9 19,12:41:58.292,0.344426,-0.573194,-0.380791,-0.638606,-1.782282,0.194436,-2.144861,-59.585201,-55.657085,-241.898499,0,0
10291,2024 9 19,12:41:58.300,0.35443,-0.66614,-0.369013,-0.542631,-1.940171,-0.588999,0.786237,-49.409325,-82.917892,-210.634705,0,0
10292,2024 9 19,12:41:58.308,0.366136,-0.665806,-0.351716,-0.546739,-1.296947,-0.72368,-0.979682,-21.473883,-197.841156,-179.451492,0,0
10293,2024 9 19,12:41:58.317,0.37775,-0.662389,-0.337305,-0.552044,-0.600031,-0.808494,-0.210392,-13.676224,-112.4561,-129.276505,0,0
10294,2024 9 19,12:41:58.325,0.385032,-0.662977,-0.33133,-0.549934,-1.286786,-0.081546,-0.385487,31.59407,-40.292511,-94.800735,0,0
10295,2024 9 19,12:41:58.333,0.392199,-0.661336,-0.324918,-0.55067,-0.864001,-0.187906,0.164559,15.025663,-62.017509,-82.36071,0,0
10296,2024 9 19,12:41:58.342,0.392577,-0.661249,-0.32458,-0.550709,-0.841699,-0.193516,0.193574,14.151668,-63.163521,-81.704491,0,0
10297,2024 9 19,12:41:58.350,0.397345,-0.661267,-0.320367,-0.549732,-1.202421,-0.238335,0.2154,11.349666,-35.300522,-67.445496,0,0
10298,2024 9 19,12:41:58.358,0.40252,-0.659594,-0.315391,-0.550852,-1.060536,-0.159691,0.34147,9.924328,-67.667389,-56.305344,0,0
10299,2024 9 19,12:41:58.367,0.406543,-0.657429,-0.310538,-0.553238,-1.133862,-0.181979,0.17746,1.753849,-72.465973,-40.174545,0,0
10300,2024 9 19,12:41:58.375,0.410105,-0.654162,-0.305365,-0.557344,-1.027273,-0.149024,0.160036,-7.129189,-92.739792,-27.976858,0,0
10301,2024 9 19,12:41:58.383,0.412478,-0.650769,-0.299928,-0.562492,-1.059887,-0.079834,0.03414,-25.149467,-96.440506,-17.398664,0,0
10302,2024 9 19,12:41:58.392,0.412656,-0.650516,-0.299521,-0.562877,-1.062324,-0.074662,0.024729,-26.496403,-96.717117,-16.60799,0,0
10303,2024 9 19,12:41:58.400,0.413805,-0.647297,-0.293737,-0.568757,-1.019042,-0.062605,-0.073261,-37.357735,-105.533928,-13.072828,0,0
10304,2024 9 19,12:41:58.408,0.41472,-0.64385,-0.286932,-0.575434,-0.93112,-0.142426,-0.056281,-46.505882,-106.53463,-14.51342,0,0
10305,2024 9 19,12:41:58.417,0.415492,-0.640939,-0.280533,-0.581254,-0.80887,-0.238189,-0.173133,-39.726376,-90.776497,-14.636395,0,0
10306,2024 9 19,12:41:58.425,0.416156,-0.638589,-0.275913,-0.585564,-0.611485,-0.312269,-0.399724,-24.669949,-62.517292,-7.337219,0,0
10307,2024 9 19,12:41:58.433,0.416361,-0.637454,-0.27419,-0.587464,-0.921642,-0.069734,-0.047685,-11.473865,-18.973068,1.832639,0,0
10308,2024 9 19,12:41:58.442,0.416381,-0.637345,-0.274025,-0.587646,-0.951337,-0.046513,-0.013979,-10.21044,-14.804041,2.710583,0,0
10309,2024 9 19,12:41:58.450,0.415793,-0.637212,-0.273147,-0.588615,-1.037947,-0.164672,-0.063641,-9.373376,-14.390684,0.388473,0,0
10310,2024 9 19,12:41:58.458,0.416225,-0.636555,-0.272338,-0.589395,-0.933364,-0.105218,-0.062187,-2.523593,-12.657312,-3.558882,0,0
10311,2024 9 19,12:41:58.467,0.416539,-0.636414,-0.271872,-0.589541,-0.995331,-0.093705,-0.058554,0.918915,-4.539539,-5.770211,0,0
10312,2024 9 19,12:41:58.475,0.417158,-0.63634,-0.271423,-0.58939,-1.026355,-0.104143,-0.018741,2.702582,-2.624237,-9.476789,0,0
10313,2024 9 19,12:41:58.483,0.41805,-0.63626,-0.270867,-0.5891,-1.012584,-0.10316,-0.028934,4.197864,-4.782104,-12.590903,0,0
10314,2024 9 19,12:41:58.492,0.418153,-0.63625,-0.270802,-0.589066,-1.01099,-0.103046,-0.030114,4.371028,-5.032001,-12.951541,0,0
10315,2024 9 19,12:41:58.500,0.419031,-0.636192,-0.270103,-0.588827,-0.982528,-0.115455,-0.056813,2.464094,-5.115298,-14.118885,0,0
10316,2024 9 19,12:41:58.508,0.419908,-0.636226,-0.269293,-0.588537,-0.983315,-0.125081,-0.049408,1.377333,-3.951861,-13.888225,0,0
10317,2024 9 19,12:41:58.517,0.42071,-0.636255,-0.268494,-0.588297,-0.974484,-0.134369,-0.051881,1.028329,-4.496807,-12.689943,0,0
10318,2024 9 19,12:41:58.525,0.421423,-0.636245,-0.267772,-0.588126,-0.973771,-0.133446,-0.050504,0.718625,-4.302151,-10.894039,0,0
10319,2024 9 19,12:41:58.533,0.422047,-0.636216,-0.267146,-0.587995,-0.980854,-0.137123,-0.044835,0.836083,-4.170953,-9.390862,0,0
10320,2024 9 19,12:41:58.542,0.422131,-0.636212,-0.267062,-0.587977,-0.98181,-0.13762,-0.04407,0.85194,-4.153241,-9.18793,0,0
10321,2024 9 19,12:41:58.550,0.422649,-0.636132,-0.266585,-0.587908,-0.980265,-0.137269,-0.049412,1.273211,-4.255565,-8.374126,0,0
10322,2024 9 19,12:41:58.558,0.423201,-0.63604,-0.266119,-0.587822,-0.983388,-0.133879,-0.04265,1.802472,-3.956833,-7.737237,0,0
10323,2024 9 19,12:41:58.567,0.423811,-0.635897,-0.26569,-0.587731,-0.973852,-0.130061,-0.060399,2.606978,-4.48584,-7.801371,0,0
10324,2024 9 19,12:41:58.575,0.424432,-0.635752,-0.265283,-0.587624,-0.972033,0.752493,-0.128406,2.67369,-3.579118,-7.810821,0,0
10325,2024 9 19,12:41:58.583,0.42502,-0.635666,-0.264888,-0.58747,-0.98374,-0.119146,-0.064203,2.37388,-2.874729,-8.018803,0,0
10326,2024 9 19,12:41:58.592,0.42511,-0.635653,-0.264827,-0.587446,-0.985536,-0.10574,-0.054591,2.327895,-2.766691,-8.050703,0,0
10327,2024 9 19,12:41:58.600,0.425583,-0.635627,-0.264425,-0.587313,-0.977612,-0.161892,-0.057063,1.295186,-2.903625,-8.312071,0,0
10328,2024 9 19,12:41:58.608,0.426091,-0.635632,-0.263946,-0.587155,-0.970627,-0.127825,-0.068814,0.619685,-2.567774,-8.455907,0,0
10329,2024 9 19,12:41:58.617,0.426538,-0.635704,-0.263436,-0.586982,-0.967456,-0.141358,-0.059068,-0.100934,-1.80044,-8.224665,0,0
10330,2024 9 19,12:41:58.625,0.426952,-0.635768,-0.262935,-0.586836,-0.973833,-0.141564,-0.054616,-0.32146,-2.231801,-7.679075,0,0
10331,2024 9 19,12:41:58.633,0.427336,-0.63579,-0.262429,-0.586759,-0.980973,-0.141599,-0.052654,-0.510219,-3.012188,-7.031172,0,0
10332,2024 9 19,12:41:58.642,0.427402,-0.635794,-0.262343,-0.586745,-0.982194,-0.141605,-0.052319,-0.542495,-3.145628,-6.920385,0,0
10333,2024 9 19,12:41:58.650,0.427729,-0.635747,-0.261897,-0.586757,-0.984013,-0.13799,-0.046636,-0.648533,-4.273511,-6.65006,0,0
10334,2024 9 19,12:41:58.658,0.428094,-0.635639,-0.261373,-0.586841,-0.985535,-0.142956,-0.050836,-0.31699,-5.173369,-6.151933,0,0
10335,2024 9 19,12:41:58.667,0.428464,-0.635475,-0.260789,-0.587008,-0.976234,-0.141853,-0.058772,-1.254833,-6.581624,-5.96277,0,0
10336,2024 9 19,12:41:58.675,0.428827,-0.635305,-0.260197,-0.58719,-0.97414,-0.138073,-0.061809,-1.028252,-6.142628,-5.828883,0,0
10337,2024 9 19,12:41:58.683,0.429157,-0.635157,-0.259611,-0.587369,-0.97613,-0.1346,-0.059598,-1.432062,-6.011833,-5.804098,0,0
10338,2024 9 19,12:41:58.692,0.429499,-0.63501,-0.259012,-0.587542,-0.977689,-0.133553,-0.055628,-1.113053,-5.888538,-5.996881,0,0
10339,2024 9 19,12:41:58.700,0.429564,-0.634983,-0.258898,-0.587575,-0.977986,-0.133353,-0.054871,-1.052238,-5.865033,-6.033633,0,0
10340,2024 9 19,12:41:58.708,0.429854,-0.634876,-0.258362,-0.587713,-0.974905,-0.134491,-0.049626,-1.579775,-5.958542,-6.285875,0,0
10341,2024 9 19,12:41:58.717,0.43016,-0.634804,-0.257735,-0.587843,-0.976256,-0.14136,-0.04547,-2.025249,-5.439394,-6.530783,0,0
10342,2024 9 19,12:41:58.725,0.430465,-0.634756,-0.257074,-0.587961,-0.975745,-0.148179,-0.046203,-2.308592,-5.336201,-6.774258,0,0
10343,2024 9 19,12:41:58.733,0.430819,-0.634678,-0.25641,-0.588075,-0.965546,-0.141787,-0.052175,-1.783243,-5.655162,-7.163056,0,0
10344,2024 9 19,12:41:58.742,0.431142,-0.634644,-0.255745,-0.588165,-0.968883,-0.139321,-0.058038,-1.821137,-4.462537,-7.145665,0,0
10345,2024 9 19,12:41:58.750,0.431208,-0.634637,-0.255608,-0.588184,-0.969573,-0.138812,-0.05925,-1.828971,-4.215962,-7.142069,0,0
10346,2024 9 19,12:41:58.758,0.431451,-0.634659,-0.255061,-0.588219,-0.971255,-0.144472,-0.069115,-2.599479,-4.164336,-7.333534,0,0
10347,2024 9 19,12:41:58.767,0.431741,-0.634682,-0.25439,-0.588272,-0.972378,-0.148737,-0.057795,-2.810706,-4.009705,-7.709391,0,0
10348,2024 9 19,12:41:58.775,0.432004,-0.63474,-0.253629,-0.588345,-0.969182,-0.143541,-0.05422,-3.524368,-4.406173,-7.980991,0,0
10349,2024 9 19,12:41:58.783,0.43225,-0.634857,-0.252854,-0.588371,-0.972294,-0.13518,-0.065244,-3.584167,-3.302707,-8.563371,0,0
10350,2024 9 19,12:41:58.792,0.432467,-0.634981,-0.251983,-0.588452,-0.98512,-0.135241,-0.061216,-4.498415,-3.819112,-8.78617,0,0
10351,2024 9 19,12:41:58.800,0.432515,-0.635009,-0.25179,-0.58847,-0.98797,-0.135254,-0.060321,-4.701591,-3.933874,-8.835683,0,0
10352,2024 9 19,12:41:58.808,0.432701,-0.635182,-0.251047,-0.588464,-0.992757,-0.139781,-0.057858,-5.406927,-3.535594,-9.365124,0,0
10353,2024 9 19,12:41:58.817,0.432974,-0.635403,-0.250123,-0.588417,-0.989336,-0.139682,-0.094122,-5.191485,-3.351146,-10.65962,0,0
10354,2024 9 19,12:41:58.825,0.433272,-0.635696,-0.249067,-0.588329,-0.971696,-0.154267,-0.062752,-6.078301,-2.840612,-12.080607,0,0
10355,2024 9 19,12:41:58.833,0.433608,-0.63616,-0.248043,-0.588013,-1.026586,-0.164,-0.124908,-6.564233,-0.622113,-13.530562,0,0
10356,2024 9 19,12:41:58.842,0.434209,-0.636621,-0.246897,-0.587552,-1.013046,-0.142467,-0.065811,-4.02686,0.224139,-17.452572,0,0
10357,2024 9 19,12:41:58.850,0.434351,-0.63673,-0.246626,-0.587443,-1.009835,-0.137361,-0.051798,-3.425191,0.424804,-18.382568,0,0
10358,2024 9 19,12:41:58.858,0.435017,-0.637259,-0.245628,-0.586793,-1.03569,-0.166829,-0.088376,-2.264219,2.414118,-21.424776,0,0
10359,2024 9 19,12:41:58.867,0.436123,-0.637847,-0.244408,-0.585843,-1.053004,-0.193127,-0.070687,-1.015766,1.421099,-25.063503,0,0
10360,2024 9 19,12:41:58.875,0.437645,-0.638465,-0.24306,-0.584593,-1.058337,-0.162442,-0.080328,3.009465,2.69407,-30.361731,0,0
10361,2024 9 19,12:41:58.883,0.439448,-0.639139,-0.241536,-0.583133,-1.068443,-0.199556,-0.075381,3.727938,2.367194,-34.324425,0,0
10362,2024 9 19,12:41:58.892,0.441661,-0.639758,-0.23981,-0.581491,-1.096885,-0.193832,-0.059543,7.010394,1.601177,-39.510372,0,0
10363,2024 9 19,12:41:58.900,0.442217,-0.639914,-0.239376,-0.581078,-1.104036,-0.192392,-0.055561,7.835779,1.408559,-40.814396,0,0
10364,2024 9 19,12:41:58.908,0.444436,-0.640359,-0.237784,-0.579545,-1.105489,-0.196381,-0.040762,9.40589,-0.545217,-45.000481,0,0
10365,2024 9 19,12:41:58.917,0.447387,-0.640781,-0.235699,-0.577653,-1.123585,-0.190892,-0.049632,11.616551,-2.628072,-49.78009,0,0
10366,2024 9 19,12:41:58.925,0.450933,-0.641032,-0.23325,-0.575607,-1.138358,-0.202094,-0.033534,15.252806,-6.231298,-55.657772,0,0
10367,2024 9 19,12:41:58.933,0.455035,-0.641158,-0.230517,-0.573331,-1.125673,-0.216158,-0.047311,17.818439,-8.65352,-61.818336,0,0
10368,2024 9 19,12:41:58.942,0.459601,-0.641116,-0.227409,-0.570969,-1.121621,-0.216632,-0.062044,19.657856,-12.291828,-67.559677,0,0
10369,2024 9 19,12:41:58.950,0.460812,-0.641106,-0.226585,-0.570342,-1.120546,-0.216757,-0.065952,20.145771,-13.25691,-69.082603,0,0
10370,2024 9 19,12:41:58.958,0.464857,-0.64095,-0.223705,-0.568361,-1.114559,-0.216079,-0.056668,21.033146,-15.518515,-73.363312,0,0
10371,2024 9 19,12:41:58.967,0.469833,-0.640765,-0.219986,-0.565918,-1.128213,-0.231164,-0.050968,21.050587,-17.060652,-78.468254,0,0
10372,2024 9 19,12:41:58.975,0.475311,-0.64052,-0.21575,-0.56324,-1.136529,-0.24695,-0.04517,21.320827,-19.913795,-84.148857,0,0
10373,2024 9 19,12:41:58.983,0.481184,-0.640127,-0.210982,-0.560494,-1.154691,-0.251983,-0.032639,21.350807,-24.401756,-89.897316,0,0
10374,2024 9 19,12:41:58.992,0.487407,-0.639651,-0.205679,-0.557618,-1.197712,-0.257597,-0.042195,21.403074,-27.841208,-96.763863,0,0
10375,2024 9 19,12:41:59.000,0.489141,-0.639519,-0.204201,-0.556817,-1.209696,-0.259161,-0.044857,21.417633,-28.799295,-98.676598,0,0
10376,2024 9 19,12:41:59.008,0.494382,-0.639017,-0.199222,-0.554552,-1.270419,-0.24561,-0.076382,18.317799,-34.401756,-104.634491,0,0
10377,2024 9 19,12:41:59.017,0.500773,-0.638525,-0.192691,-0.551669,-1.327697,-0.264791,-0.049035,15.130836,-35.812271,-113.773117,0,0
10378,2024 9 19,12:41:59.025,0.507811,-0.638115,-0.185103,-0.548281,-1.414249,-0.29807,-0.016209,13.179516,-39.386581,-125.547066,0,0
10379,2024 9 19,12:41:59.033,0.515621,-0.63744,-0.176358,-0.544632,-1.438757,-0.28579,-0.006436,14.135587,-49.294853,-139.326385,0,0
10380,2024 9 19,12:41:59.042,0.524174,-0.636344,-0.166225,-0.540902,-1.471421,-0.27498,0.010906,13.548212,-59.893467,-154.025436,0,0
10381,2024 9 19,12:41:59.050,0.533464,-0.63501,-0.154705,-0.536763,-1.563634,-0.254946,-0.017808,12.817157,-68.623856,-171.660065,0,0
10382,2024 9 19,12:41:59.058,0.536191,-0.634619,-0.151324,-0.535548,-1.590697,-0.249067,-0.026235,12.602606,-71.186073,-176.83551,0,0
10383,2024 9 19,12:41:59.067,0.544448,-0.633068,-0.140517,-0.531937,-1.620276,-0.249727,-0.011599,12.924532,-83.161041,-193.65033,0,0
10384,2024 9 19,12:41:59.075,0.554964,-0.630931,-0.126301,-0.52708,-1.768081,-0.270073,0.065844,11.782345,-91.634514,-215.218613,0,0
10385,2024 9 19,12:41:59.083,0.566837,-0.628248,-0.109719,-0.521259,-1.918282,-0.375605,0.030482,12.844678,-104.006386,-239.474472,0,0
10386,2024 9 19,12:41:59.092,0.580078,-0.624542,-0.090907,-0.514644,-2.025397,-0.395564,-0.010067,16.220932,-120.980827,-266.146149,0,0
10387,2024 9 19,12:41:59.100,0.594266,-0.619567,-0.069924,-0.507618,-2.022389,-0.499805,0.070038,19.066156,-141.752045,-287.535675,0,0
10388,2024 9 19,12:41:59.108,0.598604,-0.618046,-0.063508,-0.50547,-2.021469,-0.531681,0.094534,19.936199,-148.103699,-294.076385,0,0
10389,2024 9 19,12:41:59.117,0.610161,-0.612782,-0.045296,-0.499864,-1.983151,-0.706083,0.053942,22.896595,-162.175415,-299.53952,0,1
10390,2024 9 19,12:41:59.125,0.623741,-0.605345,-0.023072,-0.493487,-1.949801,-0.957452,-0.137851,28.134605,-177.483856,-299.386169,0,0
10391,2024 9 19,12:41:59.133,0.637522,-0.595914,0.000337,-0.487769,-1.838005,-1.050216,-0.133731,34.368996,-194.680191,-286.245697,0,0
10392,2024 9 19,12:41:59.142,0.650719,-0.584941,0.023884,-0.482975,-1.651101,-0.899798,0.014717,42.331276,-206.207031,-275.032104,0,0
10393,2024 9 19,12:41:59.150,0.663515,-0.573524,0.046393,-0.477593,-1.382137,-0.627381,0.233275,47.298985,-190.007828,-270.160828,0,0
10394,2024 9 19,12:41:59.158,0.66758,-0.569897,0.053544,-0.475883,-1.296693,-0.54084,0.302706,48.877117,-184.86171,-268.613312,0,0
10395,2024 9 19,12:41:59.167,0.677066,-0.561609,0.069323,-0.470202,-1.131424,-0.30806,0.336808,48.554451,-160.141693,-265.430725,0,0
10396,2024 9 19,12:41:59.175,0.687893,-0.552689,0.086535,-0.462049,-1.011973,-0.075519,0.397258,42.966293,-128.234787,-262.964111,0,0
10397,2024 9 19,12:41:59.183,0.699173,-0.544403,0.102501,-0.451539,-0.907869,0.32768,0.52241,47.079887,-89.74707,-264.263306,0,0
10398,2024 9 19,12:41:59.192,0.711702,-0.535449,0.115759,-0.439287,0.108147,0.259426,0.863285,74.045479,-57.706371,-261.774811,0,0
10399,2024 9 19,12:41:59.200,0.722536,-0.52694,0.124591,-0.429466,0.823716,0.435973,0.671284,81.316956,-33.522697,-171.947174,0,0
10400,2024 9 19,12:41:59.208,0.726103,-0.524139,0.127498,-0.426233,1.059256,0.494086,0.608084,83.710472,-25.56229,-142.379105,0,0
10401,2024 9 19,12:41:59.217,0.729931,-0.522592,0.125844,-0.42214,-0.009395,0.540973,0.193569,52.422714,52.617733,-54.606491,0,0
10402,2024 9 19,12:41:59.225,0.732129,-0.522144,0.12301,-0.419768,-0.62249,0.527296,0.077581,35.982632,90.196701,2.270679,0,0
10403,2024 9 19,12:41:59.233,0.732906,-0.31021,-0.599753,0.083056,-0.911513,0.410064,0.363303,30.421625,83.21994,53.739975,0,0
10404,2024 9 19,12:41:59.242,0.730397,-0.526585,0.104715,-0.422186,-0.962114,0.488522,0.140724,6.074965,60.579842,99.591064,0,0
10405,2024 9 19,12:41:59.250,0.726345,-0.529331,0.097965,-0.427339,-0.854574,0.456635,0.117618,-17.044058,26.299854,116.913109,0,0
10406,2024 9 19,12:41:59.258,0.721023,-0.532407,0.09328,-0.433549,-0.737716,0.35268,0.127731,-40.125801,5.243759,122.208336,0,0
10407,2024 9 19,12:41:59.267,0.719343,-0.533423,0.092396,-0.435253,-0.714029,0.336132,0.147104,-44.669323,2.911622,121.318764,0,0
10408,2024 9 19,12:41:59.275,0.712867,-0.537388,0.089315,-0.441633,-0.611456,0.278681,0.222947,-60.434196,-3.910583,116.871483,0,0
10409,2024 9 19,12:41:59.283,0.70418,-0.543201,0.086552,-0.448932,-0.392652,0.208829,0.285917,-73.265854,-0.759,109.227776,0,0
10410,2024 9 19,12:41:59.292,0.696324,-0.549291,0.083858,-0.454257,-0.313892,0.127982,0.296494,-82.131859,15.624959,107.034737,0,0
10411,2024 9 19,12:41:59.300,0.688911,-0.555713,0.080424,-0.458358,-0.328394,0.08707,0.309943,-83.779427,35.21439,109.246094,0,0
10412,2024 9 19,12:41:59.308,0.681614,-0.562508,0.07593,-0.461751,-0.393549,0.049083,0.287172,-81.698166,52.793556,114.800003,0,0
10413,2024 9 19,12:41:59.317,0.679493,-0.564545,0.074255,-0.462635,-0.418071,0.034004,0.278435,-80.522797,57.221916,117.288269,0,0
10414,2024 9 19,12:41:59.325,0.672057,-0.571686,0.067992,-0.46568,-0.504765,-0.018312,0.245778,-75.70549,71.224579,126.721748,0,0
10415,2024 9 19,12:41:59.333,0.662361,-0.580639,0.058214,-0.46977,-0.595595,-0.06147,0.198424,-66.308899,80.488335,140.109985,0,0
10416,2024 9 19,12:41:59.342,0.653724,-0.588172,0.048269,-0.473608,-0.664373,-0.092327,0.156675,-56.77121,86.896271,150.607391,0,0
10417,2024 9 19,12:41:59.350,0.645679,-0.59479,0.038015,-0.477313,-0.712931,-0.117192,0.111401,-47.969234,92.143555,159.198074,0,0
10418,2024 9 19,12:41:59.358,0.637863,-0.600873,0.027136,-0.480965,-0.765828,-0.123121,0.083054,-39.591606,98.205772,167.562637,0,0
10419,2024 9 19,12:41:59.367,0.635465,-0.6026,0.023581,-0.482125,-0.782321,-0.121087,0.075844,-37.187126,99.221596,170.445862,0,0
10420,2024 9 19,12:41:59.375,0.627633,-0.60803,0.011712,-0.485983,-0.837078,-0.113685,0.052614,-29.696709,101.568222,180.157745,0,0
10421,2024 9 19,12:41:59.383,0.617203,-0.614354,-0.004717,-0.491424,-0.908974,-0.124925,0.01756,-21.663221,102.436447,192.628906,0,0
10422,2024 9 19,12:41:59.392,0.607642,-0.619412,-0.020079,-0.496577,-0.956046,-0.139219,-0.002733,-15.641711,102.643105,201.459412,0,0
10423,2024 9 19,12:41:59.400,0.598544,-0.623731,-0.034856,-0.501403,-1.000204,-0.152646,-0.017174,-11.914612,105.064247,207.242477,0,0
10424,2024 9 19,12:41:59.408,0.589509,-0.627696,-0.04956,-0.505946,-1.052635,-0.166636,-0.039827,-9.897512,108.385918,211.283432,0,0
10425,2024 9 19,12:41:59.417,0.587496,-0.628534,-0.052801,-0.506906,-1.066407,-0.167575,-0.044017,-9.763724,109.049362,212.078796,0,0
10426,2024 9 19,12:41:59.425,0.57748,-0.632523,-0.068754,-0.51148,-1.137753,-0.165504,-0.06087,-10.214622,111.811325,215.668121,0,0
10427,2024 9 19,12:41:59.433,0.565209,-0.636976,-0.087543,-0.516712,-1.193934,-0.163767,-0.069196,-12.26944,112.978577,219.752411,0,0
10428,2024 9 19,12:41:59.442,0.554227,-0.640674,-0.103591,-0.521083,-1.23685,-0.164805,-0.07097,-15.930497,114.265671,223.432617,0,0
10429,2024 9 19,12:41:59.450,0.540128,-0.645062,-0.122846,-0.526209,-1.308132,-0.176826,-0.082409,-22.202379,115.816429,227.656693,0,0
10430,2024 9 19,12:41:59.458,0.526813,-0.648937,-0.139886,-0.530679,-1.368554,-0.19347,-0.083333,-28.259703,116.271263,230.086899,0,0
10431,2024 9 19,12:41:59.467,0.515572,-0.652041,-0.153537,-0.534224,-1.400362,-0.212474,-0.084782,-33.087692,116.488899,231.023071,0,0
10432,2024 9 19,12:41:59.475,0.51105,-0.653239,-0.158758,-0.535538,-1.412749,-0.221605,-0.084186,-34.960033,116.796761,231.03215,0,0
10433,2024 9 19,12:41:59.483,0.497735,-0.656682,-0.17365,-0.539189,-1.450517,-0.250254,-0.07975,-40.248825,117.931282,230.463287,0,0
10434,2024 9 19,12:41:59.492,0.483967,-0.660113,-0.188342,-0.54261,-1.495663,-0.282229,-0.070544,-45.033813,118.967476,229.160355,0,0
10435,2024 9 19,12:41:59.500,0.466764,-0.664145,-0.205725,-0.546379,-1.553597,-0.338896,-0.055376,-48.944759,118.851852,226.644684,0,0
10436,2024 9 19,12:41:59.508,0.451119,-0.667529,-0.220892,-0.549483,-1.585409,-0.401938,-0.032905,-50.81942,117.227989,223.347961,0,0
10437,2024 9 19,12:41:59.517,0.438369,-0.670087,-0.232942,-0.5518,-1.588458,-0.46046,-0.00727,-50.892361,115.866219,220.040405,0,0
10438,2024 9 19,12:41:59.525,0.433287,-0.67104,-0.237674,-0.552615,-1.588114,-0.484255,0.002728,-50.531765,115.741859,218.671509,0,0
10439,2024 9 19,12:41:59.533,0.419383,-0.673521,-0.250523,-0.554604,-1.585013,-0.549273,0.031466,-48.721912,116.175972,214.899612,0,0
10440,2024 9 19,12:41:59.542,0.405389,-0.675851,-0.263439,-0.556203,-1.581073,-0.610842,0.063405,-45.782085,117.439499,211.302094,0,0
10441,2024 9 19,12:41:59.550,0.388615,-0.678379,-0.279002,-0.557459,-1.574718,-0.667131,0.081564,-41.750175,119.42012,207.864838,0,0
10442,2024 9 19,12:41:59.558,0.373597,-0.680428,-0.292992,-0.558066,-1.565809,-0.704181,0.081826,-38.413239,121.312263,204.958664,0,0
10443,2024 9 19,12:41:59.567,0.361448,-0.681948,-0.304293,-0.558243,-1.555142,-0.725733,0.068294,-36.47319,121.749466,201.425537,0,0
10444,2024 9 19,12:41:59.575,0.35686,-0.682503,-0.308513,-0.558196,-1.545184,-0.736297,0.057083,-36.069668,121.952461,199.382355,0,0
10445,2024 9 19,12:41:59.583,0.344935,-0.683926,-0.319365,-0.557832,-1.509788,-0.767071,0.017939,-35.684776,122.715805,192.818909,0,0
10446,2024 9 19,12:41:59.592,0.330917,-0.685697,-0.331752,-0.556903,-1.467988,-0.800809,-0.033586,-36.415096,124.689827,184.064972,0,0
10447,2024 9 19,12:41:59.600,0.315625,-0.687817,-0.344614,-0.555324,-1.429302,-0.842945,-0.118454,-38.720936,125.729263,173.618774,0,0
10448,2024 9 19,12:41:59.608,0.302648,-0.68974,-0.355021,-0.55364,-1.388797,-0.874963,-0.21494,-40.709,125.515099,164.41362,0,0
10449,2024 9 19,12:41:59.617,0.290673,-0.691575,-0.364183,-0.551851,-1.31349,-0.927886,-0.310438,-41.523571,122.544319,154.411652,0,0
10450,2024 9 19,12:41:59.625,0.286347,-0.69227,-0.36741,-0.551111,-1.292122,-0.980109,-0.345435,-41.175159,121.554268,150.089264,0,0
10451,2024 9 19,12:41:59.633,0.276311,-0.693962,-0.374765,-0.549143,-1.263524,-1.16616,-0.429822,-38.525421,119.090996,138.576218,0,0
10452,2024 9 19,12:41:59.642,0.264516,-0.696039,-0.383676,-0.546141,-1.297385,-1.4153,-0.54352,-28.793465,110.076599,122.820862,0,0
10453,2024 9 19,12:41:59.650,0.255675,-0.697215,-0.391109,-0.543596,-1.270572,-1.607016,-0.619153,-15.013564,89.212891,107.375946,0,0
10454,2024 9 19,12:41:59.658,0.249736,-0.69737,-0.397232,-0.541739,-1.15169,-1.788254,-0.652933,0.354891,64.286499,92.075424,0,0
10455,2024 9 19,12:41:59.667,0.246167,-0.696754,-0.402496,-0.540294,-1.006462,0.092101,-0.068653,16.247169,44.35701,77.110321,0,0
10456,2024 9 19,12:41:59.675,0.24535,-0.696399,-0.404401,-0.539707,-0.961448,-1.983872,-0.630294,22.561367,38.271893,70.767883,0,0
10457,2024 9 19,12:41:59.683,0.244797,-0.695347,-0.408474,-0.538244,-0.887225,-2.02211,-0.606437,37.284462,27.637569,54.636345,0,0
10458,2024 9 19,12:41:59.692,0.246636,-0.693856,-0.413033,-0.535839,-0.863576,-1.977988,-0.549978,54.774269,15.572276,30.380873,0,0
10459,2024 9 19,12:41:59.700,0.25048,-0.692309,-0.416438,-0.533412,-0.869167,-1.865292,-0.458033,68.473564,1.769183,9.70896,0,0
10460,2024 9 19,12:41:59.708,0.255742,-0.690573,-0.418876,-0.53125,-0.867307,-1.723866,-0.355517,78.172279,-13.129755,-5.689787,0,0
10461,2024 9 19,12:41:59.717,0.262068,-0.688569,-0.42061,-0.529399,-0.829373,-1.56994,-0.248542,84.525604,-26.101383,-17.436684,0,0
10462,2024 9 19,12:41:59.725,0.264821,-0.687738,-0.421138,-0.528689,-0.817896,-1.505787,-0.211674,85.861099,-29.895098,-21.839071,0,0
10463,2024 9 19,12:41:59.733,0.271448,-0.685914,-0.421933,-0.527054,-1.709425,-1.117739,0.018185,87.436188,-32.394451,-31.595081,0,0
10464,2024 9 19,12:41:59.742,0.282619,-0.68445,-0.422349,-0.522643,-6.847177,0.498796,0.444052,88.455917,-57.222301,-65.234436,0,0
10465,2024 9 19,12:41:59.750,0.301146,-0.682251,-0.420292,-0.516615,-2.806526,0.218993,-1.6161,77.334862,-223.143616,-145.518555,0,0
10466,2024 9 19,12:41:59.758,0.329322,-0.668924,-0.406652,-0.527511,0.037039,2.024365,1.869991,134.56842,-341.047363,-193.569778,0,0
10467,2024 9 19,12:41:59.767,0.342482,-0.6676,-0.390909,-0.5329,-0.46794,-0.050399,-0.657334,-45.094498,-155.02623,-209.043289,0,0
10468,2024 9 19,12:41:59.775,0.346283,-0.667937,-0.385934,-0.533768,-0.715124,-0.429662,-1.101773,-81.728745,-109.25647,-212.923843,0,0
10469,2024 9 19,12:41:59.783,0.355993,-0.672377,-0.369532,-0.533288,-1.470562,-0.220542,-0.519892,-69.148109,-91.72213,-214.358948,1,0
10470,2024 9 19,12:41:59.792,0.366313,-0.673594,-0.350946,-0.537311,-0.992752,-0.727505,-0.551575,-39.638313,-155.563721,-194.093033,0,0
10471,2024 9 19,12:41:59.800,0.37561,-0.674039,-0.338618,-0.538319,-1.326259,-0.780747,-0.726808,3.070854,-82.258095,-147.444305,0,0
10472,2024 9 19,12:41:59.808,0.386641,-0.671083,-0.328597,-0.540428,-1.059444,-0.358165,0.084806,23.028681,-110.73642,-105.28894,0,0
10473,2024 9 19,12:41:59.817,0.393127,-0.668914,-0.322301,-0.542286,-1.115845,-0.2079,-0.000242,1.91054,-89.665009,-77.194664,0,0
10474,2024 9 19,12:41:59.825,0.394983,-0.668186,-0.320119,-0.543153,-1.108765,-0.177134,-0.001693,-4.881887,-86.377701,-68.69223,0,0
10475,2024 9 19,12:41:59.833,0.39856,-0.665978,-0.313327,-0.547182,-0.965547,-0.208817,0.066328,-16.892963,-93.345703,-51.418571,0,0
10476,2024 9 19,12:41:59.842,0.402047,-0.663562,-0.307301,-0.550972,-0.937454,-0.225217,-0.038318,-8.475709,-84.890182,-43.140621,0,0
10477,2024 9 19,12:41:59.850,0.405739,-0.660879,-0.302496,-0.554147,-0.976682,-0.146234,0.132108,-0.003217,-82.119553,-37.923027,0,0
10478,2024 9 19,12:41:59.858,0.40891,-0.657695,-0.297007,-0.558547,-1.033569,-0.169689,0.143998,-14.700512,-86.887306,-25.76952,0,0
10479,2024 9 19,12:41:59.867,0.410889,-0.654468,-0.291508,-0.563756,-0.916149,-0.178416,-0.066867,-25.840929,-95.244942,-17.212906,0,0
10480,2024 9 19,12:41:59.875,0.412073,-0.651741,-0.286981,-0.56837,-0.844523,-0.152591,-0.139169,-28.254272,-89.306168,-11.938068,0,0
10481,2024 9 19,12:41:59.883,0.412485,-0.650618,-0.285062,-0.57033,-0.840214,-0.141528,-0.14328,-28.143728,-83.422691,-10.059389,0,0
10482,2024 9 19,12:41:59.892,0.412937,-0.648737,-0.281595,-0.573856,-0.891487,-0.134051,-0.093214,-26.462748,-66.772095,-7.455,0,0
10483,2024 9 19,12:41:59.900,0.413049,-0.647193,-0.278341,-0.577099,-0.941069,-0.164844,-0.053543,-26.743711,-55.068069,-5.358665,0,0
10484,2024 9 19,12:41:59.908,0.413319,-0.645583,-0.275199,-0.580209,-0.923586,-0.163865,-0.084427,-18.724773,-45.476078,-5.10118,0,0
10485,2024 9 19,12:41:59.917,0.413725,-0.644347,-0.273073,-0.5823,-0.960539,-0.126314,-0.054663,-10.652694,-33.400692,-5.148463,0,0
10486,2024 9 19,12:41:59.925,0.414131,-0.643477,-0.271475,-0.583721,-1.012347,-0.148393,-0.005351,-7.297977,-26.68363,-6.932976,0,0
10487,2024 9 19,12:41:59.933,0.414427,-0.64309,-0.270828,-0.58424,-1.015936,-0.146355,-0.001138,-5.08372,-24.656179,-8.137951,0,0
10488,2024 9 19,12:41:59.942,0.415279,-0.642363,-0.269739,-0.584938,-0.981062,-0.141026,-0.063062,0.22451,-22.767723,-11.170478,0,0
10489,2024 9 19,12:41:59.950,0.416526,-0.641569,-0.268429,-0.585525,-0.965131,-0.128373,-0.051551,2.256777,-18.619213,-12.99811,0,0
10490,2024 9 19,12:41:59.958,0.417737,-0.640953,-0.26732,-0.585844,-0.963402,-0.12331,-0.055259,3.191517,-14.783355,-13.513586,0,0
10491,2024 9 19,12:41:59.967,0.418766,-0.640527,-0.266355,-0.586015,-0.966598,-0.125471,-0.06043,2.580312,-11.926275,-13.185304,0,0
10492,2024 9 19,12:41:59.975,0.419613,-0.640254,-0.265489,-0.586101,-0.969945,-0.127607,-0.056274,0.71222,-9.522434,-12.477055,0,0
10493,2024 9 19,12:41:59.983,0.41996,-0.64016,-0.265103,-0.58613,-0.971258,-0.128352,-0.054817,0.139412,-8.616189,-12.115728,0,0
10494,2024 9 19,12:41:59.992,0.420502,-0.640059,-0.264405,-0.586166,-0.973823,-0.130379,-0.050377,-0.350709,-7.510799,-11.292028,0,0
10495,2024 9 19,12:42:00.000,0.4211,-0.639946,-0.263516,-0.586262,-0.98124,-0.140798,-0.029999,-1.215711,-7.322204,-9.890413,0,0
10496,2024 9 19,12:42:00.008,0.421642,-0.639799,-0.262715,-0.586393,-0.98688,-0.115015,-0.047716,-0.894278,-7.755366,-8.884355,0,0
10497,2024 9 19,12:42:00.017,0.422168,-0.639594,-0.262004,-0.586555,-0.991165,-0.144105,-0.032565,-0.332707,-8.372835,-8.304963,0,0
10498,2024 9 19,12:42:00.025,0.422717,-0.639337,-0.261352,-0.586731,-0.988442,-0.137815,-0.031631,0.5114,-8.929154,-8.215197,0,0
10499,2024 9 19,12:42:00.033,0.422981,-0.639215,-0.261051,-0.586807,-0.987349,-0.134925,-0.033823,0.773844,-9.002913,-8.275867,0,0
10500,2024 9 19,12:42:00.042,0.423485,-0.638995,-0.260503,-0.586928,-0.984492,-0.130501,-0.043998,0.836237,-8.614504,-8.643978,0,0
10501,2024 9 19,12:42:00.050,0.424134,-0.638772,-0.259751,-0.587035,-0.974108,-0.131187,-0.051876,0.150171,-7.500946,-9.165576,0,0
10502,2024 9 19,12:42:00.058,0.424719,-0.638645,-0.25901,-0.587077,-0.974329,-0.133933,-0.048058,-0.48901,-6.204608,-9.601473,0,0
10503,2024 9 19,12:42:00.067,0.425243,-0.638605,-0.258318,-0.587046,-0.978138,-0.1367,-0.043724,-0.745047,-4.979323,-9.967672,0,0
10504,2024 9 19,12:42:00.075,0.42574,-0.638618,-0.257656,-0.586963,-0.975694,-0.145584,-0.044221,-0.821494,-4.315056,-10.338135,0,0
10505,2024 9 19,12:42:00.083,0.425938,-0.638624,-0.257392,-0.586929,-0.975214,-0.148425,-0.043562,-0.860416,-4.136613,-10.412311,0,0
10506,2024 9 19,12:42:00.092,0.42638,-0.638644,-0.256799,-0.586847,-0.976765,-0.150598,-0.03798,-0.962262,-4.294524,-10.127479,0,0
10507,2024 9 19,12:42:00.100,0.426921,-0.63863,-0.256065,-0.586789,-0.97657,-0.1532,-0.037979,-0.807817,-4.964808,-9.567021,0,0
10508,2024 9 19,12:42:00.108,0.42742,-0.63855,-0.25539,-0.586806,-0.975195,-0.157121,-0.038896,-0.597747,-5.94058,-8.845573,0,0
10509,2024 9 19,12:42:00.117,0.427991,-0.638363,-0.25464,-0.586919,-0.967585,-0.154424,-0.048592,-0.354327,-7.176677,-8.081892,0,0
10510,2024 9 19,12:42:00.125,0.42843,-0.638186,-0.254057,-0.587044,-0.965724,-0.153334,-0.055123,-0.404379,-7.277951,-7.436133,0,0
10511,2024 9 19,12:42:00.133,0.428607,-0.638114,-0.253818,-0.587097,-0.965559,-0.152743,-0.056998,-0.446139,-7.299175,-7.218546,0,0
10512,2024 9 19,12:42:00.142,0.429014,-0.637941,-0.253242,-0.587237,-0.96909,-0.150058,-0.057172,-0.662347,-7.118406,-7.019908,0,0
10513,2024 9 19,12:42:00.150,0.429423,-0.637768,-0.252632,-0.587388,-0.972054,-0.147998,-0.056885,-0.802336,-6.783112,-6.894712,0,0
10514,2024 9 19,12:42:00.158,0.429809,-0.637606,-0.25203,-0.587541,-0.973394,-0.15095,-0.049058,-0.915386,-6.886262,-6.854829,0,0
10515,2024 9 19,12:42:00.167,0.43024,-0.637429,-0.251324,-0.587719,-0.977375,-0.151318,-0.057329,-1.214905,-6.79026,-6.842046,0,0
10516,2024 9 19,12:42:00.175,0.430581,-0.637291,-0.250758,-0.587861,-0.970258,-0.149707,-0.065432,-1.342365,-6.697532,-6.837924,0,0
10517,2024 9 19,12:42:00.183,0.430721,-0.637236,-0.250517,-0.587921,-0.968195,-0.150581,-0.066376,-1.419639,-6.610991,-6.826321,0,0
10518,2024 9 19,12:42:00.192,0.431029,-0.637135,-0.249919,-0.588059,-0.971782,-0.158892,-0.057716,-1.777573,-6.168132,-6.791822,0,0
10519,2024 9 19,12:42:00.200,0.431347,-0.637051,-0.24927,-0.588191,-0.979973,-0.156765,-0.06364,-2.212635,-5.943409,-6.893934,0,0
10520,2024 9 19,12:42:00.208,0.431643,-0.636984,-0.248628,-0.588319,-0.978858,-0.15732,-0.066057,-2.568871,-5.816082,-6.936682,0,0
10521,2024 9 19,12:42:00.217,0.432086,-0.636885,-0.247669,-0.588507,-0.95952,-0.160158,-0.056164,-2.319575,-5.859334,-7.384824,0,0
10522,2024 9 19,12:42:00.225,0.432424,-0.636875,-0.24691,-0.588587,-0.996422,-0.158218,-0.074614,-2.805112,-5.069991,-8.174635,0,0
10523,2024 9 19,12:42:00.233,0.432426,-0.636875,-0.246907,-0.588588,-0.996611,-0.158208,-0.074708,-2.807594,-5.065956,-8.178673,0,0
10524,2024 9 19,12:42:00.242,0.432723,-0.636891,-0.246073,-0.588701,-1.001912,-0.1505,-0.072782,-4.734611,-5.84876,-8.479803,0,0
10525,2024 9 19,12:42:00.250,0.432978,-0.637039,-0.245174,-0.588728,-1.023093,-0.158073,-0.068439,-5.899717,-4.419909,-9.383367,0,0
10526,2024 9 19,12:42:00.258,0.433306,-0.637263,-0.244211,-0.588646,-1.038273,-0.155816,-0.067408,-6.039412,-4.156182,-11.2505,0,0
10527,2024 9 19,12:42:00.267,0.433764,-0.637596,-0.24317,-0.588378,-0.984351,-0.166236,-0.055489,-5.328653,-2.425644,-14.323894,0,0
10528,2024 9 19,12:42:00.275,0.434265,-0.638087,-0.24205,-0.587937,-1.013786,-0.147071,-0.072721,-4.777476,0.639364,-16.47521,0,0
10529,2024 9 19,12:42:00.283,0.434873,-0.638691,-0.240849,-0.587325,-1.017481,-0.163972,-0.112874,-4.584313,1.791244,-19.07518,0,0
10530,2024 9 19,12:42:00.292,0.434893,-0.638711,-0.240809,-0.587304,-1.017604,0.189825,-0.084674,-4.577886,1.829569,-19.161686,0,0
10531,2024 9 19,12:42:00.300,0.435713,-0.639328,-0.239536,-0.586546,-1.011991,-0.163619,-0.040286,-3.58279,1.421347,-22.442076,0,0
10532,2024 9 19,12:42:00.308,0.436708,-0.640121,-0.238211,-0.585479,-1.041138,-0.191559,-0.071294,-2.609384,4.260625,-25.374401,0,0
10533,2024 9 19,12:42:00.317,0.438065,-0.640824,-0.236795,-0.58427,-1.040123,-0.200708,-0.057823,0.220845,1.427265,-29.163303,0,0
10534,2024 9 19,12:42:00.325,0.439747,-0.641573,-0.235333,-0.582773,-1.024808,-0.18265,-0.063181,4.174839,5.336967,-33.626526,0,0
10535,2024 9 19,12:42:00.333,0.441669,-0.642405,-0.233739,-0.581042,-1.085747,-0.19829,-0.068069,4.785295,5.138796,-37.316124,0,0
10536,2024 9 19,12:42:00.342,0.441777,-0.642451,-0.233649,-0.580945,-1.08917,-0.199169,-0.068344,4.819584,5.127665,-37.523365,0,0
10537,2024 9 19,12:42:00.350,0.444102,-0.643065,-0.231976,-0.57916,-1.088918,-0.21385,-0.045046,7.907215,1.927141,-42.506981,0,0
10538,2024 9 19,12:42:00.358,0.446935,-0.643693,-0.229981,-0.577076,-1.107115,-0.201122,-0.041289,11.290798,1.894455,-48.173908,0,0
10539,2024 9 19,12:42:00.367,0.450165,-0.644274,-0.227726,-0.574806,-1.128749,-0.211153,-0.051922,12.311954,-0.488909,-53.600628,0,0
10540,2024 9 19,12:42:00.375,0.453823,-0.644709,-0.225089,-0.572475,-1.118987,-0.201923,-0.034603,14.078518,-3.876776,-59.293633,0,0
10541,2024 9 19,12:42:00.383,0.457795,-0.645099,-0.222084,-0.570042,-1.11601,-0.221489,-0.039164,14.210019,-6.154162,-64.33036,0,0
10542,2024 9 19,12:42:00.392,0.458105,-0.645129,-0.22185,-0.569852,-1.115777,-0.223015,-0.03952,14.220277,-6.331816,-64.723267,0,0
10543,2024 9 19,12:42:00.400,0.462061,-0.64538,-0.218691,-0.567587,-1.110846,-0.239664,-0.022132,14.109467,-10.030641,-68.662941,0,0
10544,2024 9 19,12:42:00.408,0.466521,-0.645517,-0.214898,-0.565227,-1.116655,-0.232627,-0.037114,13.655164,-14.516004,-72.501472,0,0
10545,2024 9 19,12:42:00.417,0.471295,-0.645485,-0.210637,-0.562901,-1.125147,-0.247959,-0.041543,13.614934,-18.957222,-77.273201,0,0
