frame,date,time,quaternion_x,quaternion_y,quaternion_z,quaternion_w,accel_x,accel_y,accel_z,gyro_x,gyro_y,gyro_z,HS,TO
5848,2024 8 08,15:40:58.136,-0.354661,-0.527465,0.43489,-0.637861,-0.969011,-0.180692,-0.068337,0.538316,-0.547201,-1.585415,0,0
5849,2024 8 08,15:40:58.144,-0.354545,-0.527364,0.434916,-0.637991,-0.968078,-0.179548,-0.067109,0.488851,-0.549292,-1.542874,0,0
5850,2024 8 08,15:40:58.152,-0.35446,-0.527282,0.434947,-0.638086,-0.964522,-0.181269,-0.067313,0.334148,-0.652081,-1.577712,0,0
5851,2024 8 08,15:40:58.161,-0.354381,-0.527193,0.434983,-0.638178,-0.966756,-0.181631,-0.071836,0.205153,-0.670591,-1.535927,0,0
5852,2024 8 08,15:40:58.169,-0.354309,-0.527103,0.435007,-0.638276,-0.9617,-0.183241,-0.073503,0.433611,-0.771056,-1.426722,0,0
5853,2024 8 08,15:40:58.177,-0.354296,-0.527087,0.435011,-0.638294,-0.960563,-0.183575,-0.073717,0.484495,-0.791906,-1.405395,0,0
5854,2024 8 08,15:40:58.186,-0.354238,-0.527012,0.435023,-0.63838,-0.965909,-0.183985,-0.070245,0.391131,-0.890166,-1.452358,0,0
5855,2024 8 08,15:40:58.194,-0.354167,-0.526919,0.435037,-0.638486,-0.968326,-0.180641,-0.068279,0.368596,-0.9131,-1.415918,0,0
5856,2024 8 08,15:40:58.202,-0.354099,-0.526813,0.435064,-0.638593,-0.966848,-0.182431,-0.073565,0.272347,-0.915264,-1.593367,0,0
5857,2024 8 08,15:40:58.211,-0.354033,-0.526701,0.435076,-0.638715,-0.965286,-0.184885,-0.071659,0.293956,-1.101139,-1.548539,0,0
5858,2024 8 08,15:40:58.219,-0.353959,-0.52659,0.435081,-0.638843,-0.963829,-0.182534,-0.07055,0.486799,-1.151901,-1.574664,0,0
5859,2024 8 08,15:40:58.227,-0.353941,-0.526563,0.435082,-0.638875,-0.963469,-0.212851,-0.05012,0.540291,-1.158547,-1.585146,0,0
5860,2024 8 08,15:40:58.236,-0.353892,-0.526474,0.435095,-0.638966,-0.9652,-0.183092,-0.068894,0.414222,-1.11493,-1.542076,0,0
5861,2024 8 08,15:40:58.244,-0.353834,-0.526358,0.435115,-0.639081,-0.964334,-0.184218,-0.070209,0.198302,-1.189309,-1.572559,0,0
5862,2024 8 08,15:40:58.252,-0.353778,-0.526237,0.435125,-0.639205,-0.963627,-0.183818,-0.071045,0.396069,-1.30195,-1.454134,0,0
5863,2024 8 08,15:40:58.261,-0.353727,-0.526129,0.435126,-0.639321,-0.965164,-0.185698,-0.070216,0.47094,-1.249384,-1.284703,0,0
5864,2024 8 08,15:40:58.269,-0.353678,-0.526028,0.435121,-0.639435,-0.965375,-0.179735,-0.006246,0.442526,-1.141757,-1.191077,0,0
5865,2024 8 08,15:40:58.277,-0.353663,-0.525997,0.435119,-0.63947,-0.965364,-0.183295,-0.070757,0.430428,-1.107614,-1.166209,0,0
5866,2024 8 08,15:40:58.286,-0.353625,-0.525928,0.435111,-0.639553,-0.964372,-0.184142,-0.072444,0.510492,-1.141867,-1.161094,0,0
5867,2024 8 08,15:40:58.294,-0.353572,-0.525847,0.435094,-0.63966,-0.965309,-0.186434,-0.072084,0.622033,-1.074069,-1.119218,0,0
5868,2024 8 08,15:40:58.302,-0.353512,-0.525776,0.43507,-0.639768,-0.964433,-0.185318,-0.072174,0.740272,-0.925377,-1.022936,0,0
5869,2024 8 08,15:40:58.311,-0.353452,-0.525709,0.435045,-0.639873,-0.965302,-0.184758,-0.072563,0.700768,-0.792301,-0.948154,0,0
5870,2024 8 08,15:40:58.319,-0.353391,-0.525646,0.435022,-0.639974,-0.964766,-0.186511,-0.071133,0.678869,-0.74767,-0.923836,0,0
5871,2024 8 08,15:40:58.327,-0.353332,-0.525585,0.435004,-0.640069,-0.964485,-0.18631,-0.074574,0.673357,-0.697551,-0.878829,0,0
5872,2024 8 08,15:40:58.336,-0.353311,-0.525563,0.434998,-0.640102,-0.964412,-0.186114,-0.076095,0.671922,-0.678496,-0.861105,0,0
5873,2024 8 08,15:40:58.344,-0.353262,-0.525529,0.434972,-0.640175,-0.96196,-0.185453,-0.074375,0.899569,-0.673377,-0.818338,0,0
5874,2024 8 08,15:40:58.352,-0.353207,-0.525493,0.434938,-0.640259,-0.96331,-0.18698,-0.073269,0.922682,-0.5968,-0.725463,0,0
5875,2024 8 08,15:40:58.361,-0.353152,-0.525459,0.434901,-0.640342,-0.961688,-0.188289,-0.077071,0.806153,-0.563367,-0.61306,0,0
5876,2024 8 08,15:40:58.369,-0.353099,-0.525433,0.434855,-0.640424,-0.963198,-0.186705,-0.072357,0.938593,-0.627097,-0.495155,0,0
5877,2024 8 08,15:40:58.377,-0.353059,-0.525412,0.434811,-0.640493,-0.964016,-0.187656,-0.073141,0.67956,-0.548528,-0.30294,0,0
5878,2024 8 08,15:40:58.386,-0.353044,-0.525403,0.434794,-0.64052,-0.964267,-0.188219,-0.073877,0.54921,-0.507472,-0.221276,0,0
5879,2024 8 08,15:40:58.394,-0.353014,-0.525392,0.434747,-0.640577,-0.965201,-0.187258,-0.074394,0.935189,-0.601298,-0.19554,0,0
5880,2024 8 08,15:40:58.402,-0.352993,-0.525376,0.434698,-0.640636,-0.967042,-0.187899,-0.074886,0.632666,-0.542414,-0.081599,0,0
5881,2024 8 08,15:40:58.411,-0.35298,-0.525365,0.434666,-0.640673,-0.968283,-0.188478,-0.075196,0.36799,-0.488643,-0.000545,0,0
5882,2024 8 08,15:40:58.419,-0.352948,-0.525345,0.434608,-0.640746,-0.969246,-0.187049,-0.077108,0.90351,-0.547985,-0.179099,0,0
5883,2024 8 08,15:40:58.427,-0.352928,-0.52532,0.434549,-0.640819,-0.965504,-0.185608,-0.072446,0.797502,-0.666851,-0.124167,0,0
5884,2024 8 08,15:40:58.436,-0.352941,-0.525294,0.4345,-0.640865,-0.963052,-0.189262,-0.075057,0.040774,-0.671155,0.22531,0,0
5885,2024 8 08,15:40:58.444,-0.352942,-0.525293,0.434497,-0.640868,-0.962929,-0.189446,-0.075188,0.002653,-0.671372,0.242915,0,0
5886,2024 8 08,15:40:58.452,-0.352951,-0.525274,0.434435,-0.64092,-0.961571,-0.184959,-0.076997,0.675051,-0.840096,0.300281,0,0
5887,2024 8 08,15:40:58.461,-0.352966,-0.52525,0.434368,-0.640977,-0.966344,-0.186829,-0.071371,0.560855,-0.797737,0.249293,0,0
5888,2024 8 08,15:40:58.469,-0.352988,-0.525222,0.4343,-0.641034,-0.965464,-0.181751,-0.076547,0.495869,-0.957865,0.299333,0,0
5889,2024 8 08,15:40:58.477,-0.353013,-0.525182,0.434242,-0.641093,-0.967529,-0.184677,-0.072337,0.489169,-0.974375,0.142808,0,0
5890,2024 8 08,15:40:58.486,-0.353028,-0.525132,0.43419,-0.64116,-0.966067,-0.181612,-0.075679,0.222611,-1.029437,-0.141038,0,0
5891,2024 8 08,15:40:58.494,-0.35303,-0.525126,0.434184,-0.641169,-0.96588,-0.181222,-0.076104,0.188669,-1.036448,-0.177181,0,0
5892,2024 8 08,15:40:58.502,-0.353051,-0.525057,0.434163,-0.641228,-0.966682,-0.184065,-0.076578,0.028732,-1.089163,-0.389164,0,0
5893,2024 8 08,15:40:58.511,-0.353068,-0.524964,0.434148,-0.641304,-0.962309,-0.186126,-0.082367,-0.046364,-1.250264,-0.625261,0,0
5894,2024 8 08,15:40:58.519,-0.353071,-0.524883,0.434136,-0.641377,-0.962007,-0.184846,-0.07806,-0.058478,-0.973871,-0.512156,0,0
5895,2024 8 08,15:40:58.527,-0.353088,-0.524796,0.434137,-0.641438,-0.961557,-0.189004,-0.075329,-0.259567,-0.876563,-0.492695,0,0
5896,2024 8 08,15:40:58.536,-0.353106,-0.524719,0.434129,-0.641497,-0.961868,-0.188977,-0.07483,-0.099787,-0.957043,-0.341778,0,0
5897,2024 8 08,15:40:58.544,-0.353109,-0.524704,0.434127,-0.641509,-0.961928,-0.188972,-0.074734,-0.068989,-0.972556,-0.312688,0,0
5898,2024 8 08,15:40:58.552,-0.353122,-0.524651,0.434104,-0.64156,-0.962323,-0.203829,-0.081791,0.080983,-0.975701,-0.163063,0,0
5899,2024 8 08,15:40:58.561,-0.353132,-0.52459,0.434075,-0.641625,-0.962407,-0.187783,-0.07595,0.254817,-0.976369,-0.225929,0,0
5900,2024 8 08,15:40:58.569,-0.353132,-0.52459,0.434075,-0.641625,-0.965418,-0.187197,-0.077244,0.386905,-0.929762,-0.286635,0,0
5901,2024 8 08,15:40:58.577,-0.353127,-0.524482,0.433998,-0.641768,-0.963527,-0.187061,-0.075325,0.41744,-0.826589,-0.25447,0,0
5902,2024 8 08,15:40:58.586,-0.353093,-0.524448,0.433947,-0.641848,-0.963438,-0.216201,-0.038542,0.835678,-0.710494,-0.383711,0,0
5903,2024 8 08,15:40:58.594,-0.353085,-0.524439,0.433935,-0.641868,-0.963416,-0.182458,-0.072469,0.939838,-0.681581,-0.415898,0,0
5904,2024 8 08,15:40:58.602,-0.353064,-0.5244,0.433909,-0.641929,-0.965195,-0.180437,-0.06911,0.654431,-0.718737,-0.424192,0,0
5905,2024 8 08,15:40:58.611,-0.353042,-0.524361,0.433889,-0.641987,-0.963904,-0.182722,-0.073156,0.754882,-0.552225,-0.470499,0,0
5906,2024 8 08,15:40:58.619,-0.353011,-0.524317,0.433873,-0.642051,-0.965643,-0.186837,-0.07601,0.433603,-0.550147,-0.614017,0,0
5907,2024 8 08,15:40:58.627,-0.352977,-0.524274,0.433867,-0.642109,-0.963374,-0.18593,-0.075781,0.170389,-0.463319,-0.568307,0,0
5908,2024 8 08,15:40:58.636,-0.352933,-0.52424,0.433869,-0.642159,-0.962374,-0.215511,-0.034891,0.435155,-0.182233,-0.682978,0,0
5909,2024 8 08,15:40:58.644,-0.352919,-0.52423,0.43387,-0.642174,-0.962077,-0.186473,-0.079238,0.514056,-0.098469,-0.71715,0,0
5910,2024 8 08,15:40:58.652,-0.352873,-0.524216,0.43387,-0.642211,-0.962653,-0.186845,-0.080148,0.579894,0.052315,-0.685862,0,0
5911,2024 8 08,15:40:58.661,-0.352824,-0.524203,0.433874,-0.642246,-0.962173,-0.186631,-0.081754,0.22892,0.016927,-0.593498,0,0
5912,2024 8 08,15:40:58.669,-0.352775,-0.524194,0.43387,-0.642283,-0.963327,-0.185256,-0.080634,0.320811,0.005598,-0.482223,0,0
5913,2024 8 08,15:40:58.677,-0.352704,-0.524169,0.433882,-0.642334,-0.963053,-0.183734,-0.077131,0.260761,1.1e-05,-0.690758,0,0
5914,2024 8 08,15:40:58.686,-0.35265,-0.524146,0.433912,-0.642362,-0.963752,-0.186091,-0.081235,0.036959,0.0,-0.783567,0,0
5915,2024 8 08,15:40:58.694,-0.352599,-0.524129,0.433954,-0.642376,-0.96757,-0.186106,-0.077513,0.001193,0.0,-0.793138,0,0
5916,2024 8 08,15:40:58.702,-0.35259,-0.524127,0.433961,-0.642378,-0.968258,-0.186044,-0.076702,-0.201196,0.402504,-0.743129,0,0
5917,2024 8 08,15:40:58.711,-0.352548,-0.524106,0.434006,-0.642387,-0.964323,-0.18842,-0.078648,-0.241527,0.33435,-0.782644,0,0
5918,2024 8 08,15:40:58.719,-0.352472,-0.524093,0.434061,-0.642403,-0.964258,-0.186194,-0.075162,-0.04855,0.551595,-0.988047,0,0
5919,2024 8 08,15:40:58.727,-0.352411,-0.524073,0.434129,-0.642406,-0.962833,-0.188305,-0.078156,-0.196856,0.605193,-0.888802,0,0
5920,2024 8 08,15:40:58.736,-0.352353,-0.524058,0.434205,-0.642399,-0.962852,-0.188144,-0.077869,-0.334315,0.752235,-0.905415,0,0
5921,2024 8 08,15:40:58.744,-0.352287,-0.524057,0.434283,-0.642384,-0.964785,-0.189509,-0.078789,-0.268987,0.929208,-0.82077,0,0
5922,2024 8 08,15:40:58.752,-0.352271,-0.524057,0.434301,-0.64238,-0.965289,-0.189892,-0.079064,-0.247257,0.970623,-0.796883,0,0
5923,2024 8 08,15:40:58.761,-0.35221,-0.524063,0.434358,-0.64237,-0.963166,-0.189211,-0.07582,-0.153496,1.021284,-0.839464,0,0
5924,2024 8 08,15:40:58.769,-0.352133,-0.524083,0.43443,-0.642347,-0.962541,-0.187928,-0.071999,-0.216601,1.169951,-0.762401,0,0
5925,2024 8 08,15:40:58.777,-0.352049,-0.524107,0.434505,-0.642322,-0.96103,-0.189347,-0.075251,-0.062397,1.123912,-0.737221,0,0
5926,2024 8 08,15:40:58.786,-0.351969,-0.524133,0.434563,-0.642306,-0.961973,-0.190195,-0.075371,0.033085,1.0592,-0.689486,0,0
5927,2024 8 08,15:40:58.794,-0.351891,-0.524165,0.434622,-0.642283,-0.962003,-0.189701,-0.075229,-0.030429,1.084715,-0.588289,0,0
5928,2024 8 08,15:40:58.802,-0.351869,-0.524174,0.434639,-0.642276,-0.961955,-0.189505,-0.075204,-0.055157,1.09596,-0.556802,0,0
5929,2024 8 08,15:40:58.811,-0.351812,-0.524199,0.434681,-0.642258,-0.964641,-0.190142,-0.07183,-0.017737,1.098092,-0.55083,0,0
5930,2024 8 08,15:40:58.819,-0.351741,-0.524226,0.434731,-0.642242,-0.964595,-0.189708,-0.070969,0.037826,0.973754,-0.632814,0,0
5931,2024 8 08,15:40:58.827,-0.351666,-0.524248,0.434781,-0.642231,-0.965746,-0.189185,-0.071826,0.055889,0.887358,-0.662834,0,0
5932,2024 8 08,15:40:58.836,-0.351594,-0.524254,0.434833,-0.64223,-0.965227,-0.189994,-0.076062,-0.02132,0.659175,-0.750576,0,0
5933,2024 8 08,15:40:58.844,-0.351542,-0.524251,0.43489,-0.642222,-0.963996,-0.193858,-0.074744,-0.412374,0.655913,-0.582662,0,0
5934,2024 8 08,15:40:58.852,-0.351525,-0.524249,0.43491,-0.64222,-0.963555,-0.195321,-0.073985,-0.561,0.667529,-0.511808,0,0
5935,2024 8 08,15:40:58.861,-0.35148,-0.524253,0.434928,-0.642229,-0.961879,-0.192235,-0.075991,-0.088502,0.435415,-0.533515,0,0
5936,2024 8 08,15:40:58.869,-0.351426,-0.524258,0.434946,-0.642243,-0.964307,-0.191225,-0.073125,0.110697,0.339896,-0.467682,0,0
5937,2024 8 08,15:40:58.877,-0.351369,-0.524266,0.434959,-0.642258,-0.965426,-0.188251,-0.073326,0.201467,0.314722,-0.400094,0,0
5938,2024 8 08,15:40:58.886,-0.351319,-0.52427,0.434966,-0.642278,-0.964216,-0.190649,-0.073315,0.232059,0.27004,-0.413643,0,0
5939,2024 8 08,15:40:58.894,-0.35127,-0.524268,0.434971,-0.642303,-0.964841,-0.190086,-0.073864,0.352874,0.102012,-0.460703,0,0
5940,2024 8 08,15:40:58.902,-0.351251,-0.524267,0.434972,-0.642313,-0.965206,-0.210275,-0.038102,0.405015,0.030494,-0.480037,0,0
5941,2024 8 08,15:40:58.911,-0.351217,-0.524261,0.434973,-0.642336,-0.965607,-0.190688,-0.075945,0.38383,0.009348,-0.449153,0,0
5942,2024 8 08,15:40:58.919,-0.351178,-0.524245,0.434976,-0.642368,-0.965773,-0.191185,-0.074745,0.263125,-0.033271,-0.506539,0,0
5943,2024 8 08,15:40:58.927,-0.351144,-0.524227,0.434976,-0.642402,-0.964966,-0.190766,-0.076637,0.280461,-0.123753,-0.428109,0,0
5944,2024 8 08,15:40:58.936,-0.351119,-0.524198,0.434971,-0.642442,-0.967978,-0.190544,-0.070833,0.261614,-0.340817,-0.421988,0,0
5945,2024 8 08,15:40:58.944,-0.351094,-0.524158,0.434957,-0.642498,-0.965836,-0.190191,-0.070699,0.390291,-0.61416,-0.425482,0,0
5946,2024 8 08,15:40:58.952,-0.351079,-0.524131,0.434947,-0.642535,-0.963921,-0.18995,-0.071284,0.487039,-0.791184,-0.427224,0,0
5947,2024 8 08,15:40:58.961,-0.351079,-0.524131,0.434947,-0.642535,-0.963897,-0.189947,-0.071291,0.488247,-0.793394,-0.427245,0,0
5948,2024 8 08,15:40:58.969,-0.351076,-0.524059,0.43492,-0.642614,-0.96904,-0.19135,-0.069421,0.254492,-1.144136,-0.485693,0,0
5949,2024 8 08,15:40:58.977,-0.351083,-0.523971,0.434878,-0.64271,-0.964648,-0.192791,-0.071185,0.302307,-1.50427,-0.430555,0,0
5950,2024 8 08,15:40:58.986,-0.351104,-0.523872,0.434823,-0.642816,-0.959864,-0.212929,-0.056387,0.304974,-1.637835,-0.314002,0,0
5951,2024 8 08,15:40:58.994,-0.351152,-0.523768,0.434776,-0.642907,-0.961322,-0.190525,-0.077858,0.025551,-1.758945,-0.138151,0,0
5952,2024 8 08,15:40:59.002,-0.35122,-0.523674,0.43473,-0.642977,-0.959237,-0.190885,-0.072368,-0.052654,-1.49331,-0.013372,0,0
5953,2024 8 08,15:40:59.011,-0.351227,-0.523665,0.434726,-0.642984,-0.959038,-0.19092,-0.071844,-0.060118,-1.467959,-0.001463,0,0
5954,2024 8 08,15:40:59.019,-0.351277,-0.523597,0.434683,-0.643041,-0.959445,-0.190923,-0.075647,0.099892,-1.358013,0.214243,0,0
5955,2024 8 08,15:40:59.027,-0.35133,-0.523535,0.434632,-0.643097,-0.959917,-0.237595,-0.066007,0.119105,-1.080435,0.240143,0,0
5956,2024 8 08,15:40:59.036,-0.351378,-0.523497,0.434586,-0.643133,-0.960814,-0.188358,-0.078351,0.01731,-0.730835,0.400054,0,0
5957,2024 8 08,15:40:59.044,-0.351417,-0.523476,0.434547,-0.643155,-0.963002,-0.187639,-0.081045,0.002712,-0.474808,0.371513,0,0
5958,2024 8 08,15:40:59.052,-0.351441,-0.52347,0.434509,-0.643173,-0.962527,-0.18956,-0.075772,0.152854,-0.282823,0.3163,0,0
5959,2024 8 08,15:40:59.061,-0.351445,-0.523468,0.434502,-0.643176,-0.962449,-0.189878,-0.074899,0.177707,-0.251043,0.307161,0,0
5960,2024 8 08,15:40:59.069,-0.351456,-0.523467,0.434477,-0.643188,-0.964019,-0.187162,-0.077913,0.132581,-0.195941,0.305551,0,0
5961,2024 8 08,15:40:59.077,-0.351462,-0.523474,0.434448,-0.643199,-0.962748,-0.191348,-0.073001,0.270806,-0.0879,0.25637,0,0
5962,2024 8 08,15:40:59.086,-0.351461,-0.523489,0.434413,-0.643211,-0.964815,-0.191012,-0.07358,0.297989,-0.018379,0.294971,0,0
5963,2024 8 08,15:40:59.094,-0.351462,-0.523474,0.434448,-0.643199,-0.964098,-0.189036,-0.070648,0.351284,-0.099382,0.350623,0,0
5964,2024 8 08,15:40:59.102,-0.351464,-0.523516,0.434338,-0.643238,-0.963566,-0.189739,-0.076043,0.409905,-0.116891,0.362653,0,0
5965,2024 8 08,15:40:59.111,-0.351465,-0.523519,0.434329,-0.643241,-0.963446,-0.189898,-0.07726,0.423127,-0.12084,0.365366,0,0
5966,2024 8 08,15:40:59.119,-0.351462,-0.523474,0.434448,-0.643199,-0.96305,-0.191039,-0.07681,0.380244,-0.075781,0.27403,0,0
5967,2024 8 08,15:40:59.127,-0.351467,-0.523548,0.434257,-0.643265,-0.964044,-0.19059,-0.0767,0.369795,-0.019353,0.479013,0,0
5968,2024 8 08,15:40:59.136,-0.351478,-0.523564,0.434213,-0.643275,-0.962498,-0.190476,-0.073438,0.277313,-0.139875,0.485834,0,0
5969,2024 8 08,15:40:59.144,-0.35149,-0.523579,0.434173,-0.643283,-0.96245,-0.189025,-0.073652,0.297586,-0.082513,0.443207,0,0
5970,2024 8 08,15:40:59.152,-0.351507,-0.523589,0.434131,-0.643295,-0.964193,-0.192147,-0.071251,0.303046,-0.19878,0.431725,0,0
5971,2024 8 08,15:40:59.161,-0.351518,-0.523595,0.434092,-0.64331,-0.965024,-0.18954,-0.073711,0.347976,-0.187631,0.341709,0,0
5972,2024 8 08,15:40:59.169,-0.351521,-0.523597,0.434081,-0.643314,-0.965261,-0.188796,-0.074413,0.360803,-0.184447,0.31601,0,0
5973,2024 8 08,15:40:59.177,-0.351524,-0.523598,0.434061,-0.643325,-0.964652,-0.173056,-0.076193,0.194705,-0.183514,0.181076,0,0
5974,2024 8 08,15:40:59.186,-0.351526,-0.523592,0.434047,-0.643338,-0.962788,-0.190105,-0.075704,0.060705,-0.099221,0.056456,0,0
5975,2024 8 08,15:40:59.194,-0.351521,-0.523597,0.434081,-0.643314,-0.961548,-0.189665,-0.078019,0.019373,0.051447,0.018017,0,0
5976,2024 8 08,15:40:59.202,-0.35152,-0.523597,0.434031,-0.643348,-0.965433,-0.188539,-0.073487,-0.034793,0.099022,0.088112,0,0
5977,2024 8 08,15:40:59.211,-0.35152,-0.523597,0.434031,-0.643348,-0.963432,-0.188827,-0.075278,0.029085,-0.00767,0.110748,0,0
5978,2024 8 08,15:40:59.219,-0.35152,-0.523597,0.434031,-0.643348,-0.96244,-0.188969,-0.076167,0.06078,-0.06061,0.12198,0,0
5979,2024 8 08,15:40:59.227,-0.351525,-0.524249,0.43491,-0.64222,-0.966969,-0.188558,-0.077824,0.112587,-0.061025,0.173626,0,0
5980,2024 8 08,15:40:59.236,-0.351535,-0.523602,0.433969,-0.643377,-0.96574,-0.187673,-0.075678,0.172488,-0.111812,0.284301,0,0
5981,2024 8 08,15:40:59.244,-0.351555,-0.523601,0.43394,-0.643388,-0.963781,-0.187514,-0.074022,0.032487,-0.221576,0.354105,0,0
5982,2024 8 08,15:40:59.252,-0.351573,-0.523602,0.433902,-0.643402,-0.96225,-0.190661,-0.077695,0.248586,-0.291933,0.463983,0,0
5983,2024 8 08,15:40:59.261,-0.3516,-0.523603,0.433857,-0.643417,-0.961968,-0.187078,-0.075045,0.154942,-0.30412,0.534918,0,0
5984,2024 8 08,15:40:59.269,-0.351606,-0.523603,0.433848,-0.643419,-0.961946,-0.186137,-0.074298,0.125123,-0.305078,0.547979,0,0
5985,2024 8 08,15:40:59.277,-0.351633,-0.523605,0.433812,-0.643428,-0.962321,-0.188317,-0.075362,0.122393,-0.352373,0.596383,0,0
5986,2024 8 08,15:40:59.286,-0.351669,-0.523607,0.433766,-0.643437,-0.965771,-0.23658,0.065932,0.122108,-0.318025,0.655256,0,0
5987,2024 8 08,15:40:59.294,-0.351704,-0.523607,0.433729,-0.643443,-0.965954,-0.188593,-0.075476,0.030242,-0.306847,0.577455,0,0
5988,2024 8 08,15:40:59.302,-0.351743,-0.523611,0.433687,-0.643447,-0.961154,-0.188136,-0.080254,0.094883,-0.305413,0.643901,0,0
5989,2024 8 08,15:40:59.311,-0.351784,-0.523618,0.43364,-0.643451,-0.963688,-0.187658,-0.075325,0.117904,-0.260518,0.711869,0,0
5990,2024 8 08,15:40:59.319,-0.351795,-0.523619,0.433627,-0.643452,-0.964678,-0.187531,-0.073586,0.121386,-0.246832,0.729044,0,0
5991,2024 8 08,15:40:59.327,-0.351823,-0.523628,0.43359,-0.643454,-0.965536,-0.1896,-0.079225,0.165486,-0.244612,0.688295,0,0
5992,2024 8 08,15:40:59.336,-0.351863,-0.523636,0.433536,-0.643462,-0.96476,-0.188905,-0.078708,0.22281,-0.330184,0.717505,0,0
5993,2024 8 08,15:40:59.344,-0.351907,-0.523641,0.433479,-0.643474,-0.964458,-0.188905,-0.075525,0.197524,-0.401583,0.687063,0,0
5994,2024 8 08,15:40:59.352,-0.35195,-0.523642,0.433429,-0.643483,-0.966076,-0.185605,-0.075496,0.102267,-0.338147,0.632712,0,0
5995,2024 8 08,15:40:59.361,-0.351991,-0.523648,0.433378,-0.64349,-0.965671,-0.187395,-0.072334,0.111324,-0.742393,-0.264492,0,0
5996,2024 8 08,15:40:59.369,-0.352003,-0.52365,0.433362,-0.643492,-0.965431,-0.318799,-0.043631,0.119648,-0.30678,0.668046,0,0
5997,2024 8 08,15:40:59.377,-0.352038,-0.52365,0.433318,-0.643503,-0.964085,-0.186486,-0.077024,0.202287,-0.42673,0.751388,0,0
5998,2024 8 08,15:40:59.386,-0.352076,-0.52365,0.43326,-0.643521,-0.963254,-0.186738,-0.077739,0.233936,-0.513186,0.663462,0,0
5999,2024 8 08,15:40:59.394,-0.352112,-0.52365,0.433197,-0.643543,-0.963004,-0.188525,-0.079558,0.320449,-0.500742,0.623773,0,0
6000,2024 8 08,15:40:59.402,-0.352154,-0.523648,0.433139,-0.643561,-0.96419,-0.189838,-0.078745,0.159321,-0.413567,0.652846,0,0
6001,2024 8 08,15:40:59.411,-0.352186,-0.523657,0.433087,-0.643571,-0.963764,-0.1875,-0.078602,0.203174,-0.263376,0.627845,0,0
6002,2024 8 08,15:40:59.419,-0.352197,-0.52366,0.433069,-0.643575,-0.963507,-0.186447,-0.078612,0.232746,-0.205433,0.615217,0,0
6003,2024 8 08,15:40:59.427,-0.352222,-0.523667,0.433033,-0.64358,-0.963738,-0.186458,-0.07982,0.278552,-0.264843,0.649418,0,0
6004,2024 8 08,15:40:59.435,-0.352245,-0.52368,0.432986,-0.643589,-0.965936,-0.185018,-0.078858,0.297344,-0.218801,0.590413,0,0
6005,2024 8 08,15:40:59.444,-0.352262,-0.52369,0.432936,-0.643604,-0.964835,-0.185253,-0.079822,0.376504,-0.230729,0.488031,0,0
6006,2024 8 08,15:40:59.452,-0.352275,-0.523695,0.432892,-0.643623,-0.965353,-0.184293,-0.078005,0.338649,-0.203543,0.33672,0,0
6007,2024 8 08,15:40:59.460,-0.35228,-0.523701,0.432852,-0.643642,-0.96425,-0.229356,-0.087657,0.315784,-0.189582,0.237425,0,0
6008,2024 8 08,15:40:59.469,-0.352282,-0.523703,0.432837,-0.64365,-0.963681,-0.184518,-0.07553,0.308615,-0.185205,0.200714,0,0
6009,2024 8 08,15:40:59.477,-0.352283,-0.523707,0.432818,-0.643659,-0.964911,-0.185686,-0.07559,0.235721,-0.148504,0.153642,0,0
6010,2024 8 08,15:40:59.485,-0.352284,-0.523709,0.432805,-0.643665,-0.965847,-0.186526,-0.075686,0.183275,-0.122156,0.122172,0,0
6011,2024 8 08,15:40:59.494,-0.35229,-0.523705,0.432786,-0.643678,-0.963933,-0.186529,-0.078561,0.183109,-0.122072,0.181972,0,0
6012,2024 8 08,15:40:59.502,-0.352297,-0.52371,0.432756,-0.64369,-0.965314,-0.186529,-0.077198,0.183106,-0.12207,0.301046,0,0
6013,2024 8 08,15:40:59.510,-0.352305,-0.523715,0.432723,-0.643703,-0.967219,-0.186994,-0.080407,0.241212,-0.12207,0.363084,0,0
6014,2024 8 08,15:40:59.519,-0.352318,-0.52373,0.432682,-0.643712,-0.968225,-0.186558,-0.075521,0.301209,-0.17932,0.423267,0,0
6015,2024 8 08,15:40:59.527,-0.352318,-0.52373,0.432682,-0.643712,-0.968286,-0.186531,-0.075222,0.304876,-0.182819,0.426945,0,0
6016,2024 8 08,15:40:59.535,-0.352333,-0.523741,0.432639,-0.643723,-0.965621,-0.18564,-0.080538,0.19393,-0.12747,0.482829,0,0
6017,2024 8 08,15:40:59.544,-0.352348,-0.523756,0.432591,-0.643736,-0.964072,-0.185123,-0.075302,0.293856,-0.12262,0.487726,0,0
6018,2024 8 08,15:40:59.552,-0.352363,-0.523767,0.432547,-0.643748,-0.962619,-0.182908,-0.079967,0.303882,-0.176194,0.434157,0,0
6019,2024 8 08,15:40:59.560,-0.352372,-0.523775,0.432511,-0.643761,-0.967574,-0.186498,-0.075801,0.251694,-0.128913,0.321483,0,0
6020,2024 8 08,15:40:59.569,-0.352382,-0.52378,0.432487,-0.643768,-0.967771,-0.185262,-0.07991,0.139992,-0.123016,0.30743,0,0
6021,2024 8 08,15:40:59.577,-0.352395,-0.523783,0.432469,-0.64377,-0.962816,-0.18717,-0.080885,0.020968,-0.018425,0.305513,0,0
6022,2024 8 08,15:40:59.585,-0.352397,-0.523783,0.432467,-0.64377,-0.962084,-0.187452,-0.081029,0.003376,-0.002966,0.30523,0,0
6023,2024 8 08,15:40:59.594,-0.352411,-0.524073,0.434129,-0.642406,-0.963181,-0.188709,-0.074987,0.051123,-0.101594,0.355727,0,0
6024,2024 8 08,15:40:59.602,-0.352426,-0.523794,0.43242,-0.643777,-0.96177,-0.188125,-0.076756,0.109118,-0.168225,0.41419,0,0
6025,2024 8 08,15:40:59.610,-0.352442,-0.523802,0.43239,-0.643782,-0.962304,-0.21569,-0.056717,0.119571,-0.130975,0.424727,0,0
6026,2024 8 08,15:40:59.619,-0.352455,-0.523812,0.432359,-0.643788,-0.966686,-0.183638,-0.075808,0.170205,-0.123878,0.426735,0,0
6027,2024 8 08,15:40:59.627,-0.35248,-0.523813,0.432321,-0.643799,-0.964875,-0.182839,-0.077634,0.180359,-0.266577,0.427137,0,0
6028,2024 8 08,15:40:59.635,-0.352485,-0.523813,0.432313,-0.643801,-0.964494,-0.182671,-0.078017,0.182494,-0.296587,0.427222,0,0
6029,2024 8 08,15:40:59.644,-0.352505,-0.523824,0.432278,-0.643805,-0.96441,-0.184884,-0.080352,0.182964,-0.209423,0.521001,0,0
6030,2024 8 08,15:40:59.652,-0.352528,-0.523828,0.432231,-0.64382,-0.965132,-0.186874,-0.077181,0.275714,-0.328413,0.496169,0,0
6031,2024 8 08,15:40:59.660,-0.352549,-0.523834,0.43218,-0.643839,-0.964572,-0.18515,-0.080088,0.38936,-0.310986,0.490253,0,0
6032,2024 8 08,15:40:59.669,-0.352573,-0.52384,0.432126,-0.643856,-0.966967,-0.184363,-0.079359,0.326959,-0.306679,0.534033,0,0
6033,2024 8 08,15:40:59.677,-0.352603,-0.523847,0.43207,-0.643872,-0.965075,-0.185592,-0.078099,0.310998,-0.305578,0.589952,0,0
6034,2024 8 08,15:40:59.685,-0.352611,-0.523849,0.432055,-0.643876,-0.964575,-0.217649,-0.055004,0.306781,-0.305287,0.604728,0,0
6035,2024 8 08,15:40:59.694,-0.352632,-0.523855,0.432015,-0.643886,-0.965488,-0.184607,-0.076276,0.261918,-0.305207,0.608756,0,0
6036,2024 8 08,15:40:59.702,-0.352655,-0.523869,0.431969,-0.643893,-0.964361,-0.182164,-0.081045,0.292554,-0.175505,0.566659,0,0
6037,2024 8 08,15:40:59.710,-0.352675,-0.523884,0.431921,-0.643902,-0.966772,-0.184195,-0.081396,0.258644,-0.138078,0.597263,0,0
6038,2024 8 08,15:40:59.719,-0.352698,-0.523902,0.431873,-0.643907,-0.966133,-0.184797,-0.078455,0.248596,-0.126988,0.648616,0,0
6039,2024 8 08,15:40:59.727,-0.352714,-0.52392,0.431826,-0.643916,-0.964935,-0.247516,0.003907,0.371031,-0.081788,0.538733,0,0
6040,2024 8 08,15:40:59.735,-0.352718,-0.523925,0.431811,-0.643919,-0.964562,-0.182404,-0.077283,0.409147,-0.067717,0.504525,0,0
6041,2024 8 08,15:40:59.744,-0.352721,-0.523942,0.431771,-0.643931,-0.964116,-0.183861,-0.075556,0.503184,-0.063234,0.493627,0,0
6042,2024 8 08,15:40:59.752,-0.352726,-0.523958,0.431724,-0.643946,-0.965591,-0.182391,-0.074994,0.45277,-0.102294,0.449558,0,0
6043,2024 8 08,15:40:59.760,-0.352735,-0.523972,0.431669,-0.643967,-0.967993,-0.183738,-0.077212,0.271466,-0.121794,0.271421,0,0
6044,2024 8 08,15:40:59.769,-0.352749,-0.523975,0.431636,-0.643978,-0.967053,-0.184898,-0.075987,0.09118,-0.122062,0.296183,0,0
6045,2024 8 08,15:40:59.777,-0.352757,-0.523974,0.431614,-0.64399,-0.966836,-0.183442,-0.082161,-0.038611,-0.12207,0.153342,0,0
6046,2024 8 08,15:40:59.785,-0.352758,-0.523974,0.431611,-0.643991,-0.966827,-0.18313,-0.083421,-0.05974,-0.12207,0.123877,0,0
6047,2024 8 08,15:40:59.794,-0.352768,-0.523976,0.431591,-0.643998,-0.965258,-0.183112,-0.079965,0.135085,-0.12207,0.26922,0,0
6048,2024 8 08,15:40:59.802,-0.352784,-0.523978,0.43156,-0.644008,-0.964133,-0.18427,-0.083428,0.179029,-0.170372,0.350425,0,0
6049,2024 8 08,15:40:59.810,-0.352793,-0.523987,0.431521,-0.644022,-0.965063,-0.183022,-0.078659,0.230323,-0.134243,0.317049,0,0
6050,2024 8 08,15:40:59.819,-0.352795,-0.523997,0.431482,-0.644039,-0.965704,-0.182667,-0.079571,0.336516,-0.123415,0.259537,0,0
6051,2024 8 08,15:40:59.827,-0.352799,-0.524004,0.431446,-0.644055,-0.966573,-0.181887,-0.080759,0.316262,-0.168539,0.199727,0,0
6052,2024 8 08,15:40:59.835,-0.3528,-0.524006,0.431438,-0.644059,-0.966792,-0.181679,-0.081017,0.306669,-0.181144,0.185344,0,0
6053,2024 8 08,15:40:59.844,-0.352805,-0.523999,0.431408,-0.644081,-0.9661,-0.183093,-0.078888,0.350455,-0.318,0.183433,0,0
6054,2024 8 08,15:40:59.852,-0.352805,-0.523999,0.431408,-0.644081,-0.966956,-0.206805,-0.017034,0.230336,-0.225221,0.049766,0,0
6055,2024 8 08,15:40:59.860,-0.352802,-0.523988,0.431359,-0.644125,-0.96585,-0.181837,-0.082449,0.191069,-0.146324,0.008391,0,0
6056,2024 8 08,15:40:59.869,-0.352796,-0.523985,0.43134,-0.644143,-0.966835,-0.183067,-0.078643,0.184534,-0.083103,0.001505,0,0
6057,2024 8 08,15:40:59.877,-0.352788,-0.523977,0.43133,-0.644161,-0.967566,-0.18384,-0.07675,0.055082,-0.150753,-0.128009,0,0
6058,2024 8 08,15:40:59.885,-0.352785,-0.523974,0.431328,-0.644166,-0.967756,-0.179115,-0.00512,0.011015,-0.176636,-0.172087,0,0
6059,2024 8 08,15:40:59.894,-0.352773,-0.523965,0.431321,-0.644185,-0.964457,-0.182743,-0.082871,0.12742,-0.181747,-0.13909,0,0
6060,2024 8 08,15:40:59.902,-0.352761,-0.523944,0.431317,-0.644211,-0.963917,-0.183586,-0.081641,0.088495,-0.223998,-0.249381,0,0
6061,2024 8 08,15:40:59.910,-0.352746,-0.523923,0.431317,-0.644236,-0.965203,-0.183322,-0.07821,0.108017,-0.198835,-0.292395,0,0
6062,2024 8 08,15:40:59.919,-0.352732,-0.523904,0.431323,-0.644255,-0.965052,-0.184448,-0.081213,0.038313,-0.066241,-0.30213,0,0
6063,2024 8 08,15:40:59.927,-0.352718,-0.523925,0.431811,-0.643919,-0.9646,-0.182687,-0.07907,0.088933,-0.095839,-0.224965,0,0
6064,2024 8 08,15:40:59.935,-0.352713,-0.523883,0.431325,-0.644281,-0.96444,-0.181913,-0.078005,0.113583,-0.115352,-0.193826,0,0
6065,2024 8 08,15:40:59.944,-0.352701,-0.523871,0.431328,-0.644296,-0.965331,-0.184511,-0.077115,0.042203,-0.081482,-0.263564,0,0
6066,2024 8 08,15:40:59.952,-0.352681,-0.523856,0.431333,-0.644315,-0.96448,-0.182554,-0.079549,0.08826,-0.066619,-0.255444,0,0
6067,2024 8 08,15:40:59.960,-0.352667,-0.523844,0.431333,-0.644333,-0.964668,-0.182461,-0.077901,0.112558,-0.062606,-0.171454,0,0
6068,2024 8 08,15:40:59.969,-0.35265,-0.524146,0.433912,-0.642362,-0.965714,-0.183776,-0.082122,0.156827,-0.02398,-0.13636,0,0
6069,2024 8 08,15:40:59.977,-0.352629,-0.523831,0.431323,-0.644371,-0.965856,-0.183448,-0.079371,0.249486,-0.007127,-0.200507,0,0
6070,2024 8 08,15:40:59.985,-0.352612,-0.523818,0.431317,-0.644395,-0.964971,-0.182333,-0.078121,0.178127,-0.112242,-0.194148,0,0
6071,2024 8 08,15:40:59.994,-0.352605,-0.523813,0.431315,-0.644404,-0.964568,-0.181861,-0.07779,0.139583,-0.160968,-0.186555,0,0
6072,2024 8 08,15:41:00.002,-0.352593,-0.523802,0.431314,-0.644421,-0.966167,-0.182577,-0.078836,0.12767,-0.068312,-0.220113,0,0
6073,2024 8 08,15:41:00.010,-0.352572,-0.523788,0.431315,-0.644443,-0.964382,-0.186066,-0.042814,0.159426,-0.093385,-0.27181,0,0
6074,2024 8 08,15:41:00.019,-0.352549,-0.523834,0.43218,-0.643839,-0.963971,-0.185157,-0.081044,0.069737,-0.112489,-0.294032,0,0
6075,2024 8 08,15:41:00.027,-0.352534,-0.52376,0.431323,-0.644481,-0.963897,-0.189947,-0.071291,0.000647,-0.121981,-0.305072,0,0
6076,2024 8 08,15:41:00.035,-0.352506,-0.523745,0.431332,-0.644503,-0.965802,-0.184135,-0.078664,0.178641,-0.062526,-0.364715,0,0
6077,2024 8 08,15:41:00.044,-0.352483,-0.523733,0.431339,-0.64452,-0.96444,-0.181913,-0.078005,0.007003,-0.002451,-0.30751,0,0
6078,2024 8 08,15:41:00.052,-0.352482,-0.523733,0.431339,-0.64452,-0.964388,-0.184575,-0.080078,0.000375,-0.000131,-0.305301,0,0
6079,2024 8 08,15:41:00.060,-0.352454,-0.523724,0.431347,-0.644538,-0.966207,-0.182754,-0.077348,0.113871,-9e-06,-0.305184,0,0
6080,2024 8 08,15:41:00.069,-0.352427,-0.523711,0.431354,-0.644558,-0.965879,-0.18398,-0.082553,0.065307,-1e-06,-0.361277,0,0
6081,2024 8 08,15:41:00.077,-0.352405,-0.523702,0.431358,-0.644576,-0.961871,-0.183193,-0.084295,0.116738,-0.0,-0.255145,0,0
6082,2024 8 08,15:41:00.085,-0.352386,-0.523702,0.431364,-0.644581,-0.962808,-0.186609,-0.08402,-0.042072,0.163574,-0.136265,0,0
6083,2024 8 08,15:41:00.094,-0.352366,-0.523707,0.431361,-0.64459,-0.966778,-0.185248,-0.079259,0.048761,0.18078,-0.016221,0,0
6084,2024 8 08,15:41:00.102,-0.352364,-0.523708,0.431361,-0.644591,-0.967244,-0.185088,-0.0787,0.059426,0.182801,-0.002126,0,0
6085,2024 8 08,15:41:00.110,-0.352353,-0.524058,0.434205,-0.642399,-0.9627,-0.183393,-0.080302,0.165446,0.130742,-0.000304,0,0
6086,2024 8 08,15:41:00.119,-0.352339,-0.523728,0.431339,-0.644602,-0.965364,-0.183295,-0.070757,0.077133,0.123407,-4.7e-05,0,0
6087,2024 8 08,15:41:00.127,-0.352324,-0.523734,0.431327,-0.644615,-0.965769,-0.186313,-0.077161,0.16559,0.020397,-8e-06,0,0
6088,2024 8 08,15:41:00.135,-0.352313,-0.523739,0.431317,-0.644623,-0.965836,-0.190191,-0.070699,0.029159,0.104166,-1e-06,0,0
6089,2024 8 08,15:41:00.144,-0.352298,-0.523747,0.431302,-0.644635,-0.967039,-0.181456,-0.080232,0.253663,0.01944,-0.0,0,0
6090,2024 8 08,15:41:00.152,-0.352295,-0.523748,0.431299,-0.644638,-0.96726,-0.180824,-0.080502,0.295033,0.003828,-0.0,0,0
6091,2024 8 08,15:41:00.160,-0.352282,-0.523703,0.432837,-0.64365,-0.965754,-0.183025,-0.082104,0.157858,0.000792,-0.096813,0,0
6092,2024 8 08,15:41:00.169,-0.352259,-0.523741,0.431292,-0.644668,-0.965829,-0.185005,-0.080137,0.177635,0.000172,-0.212218,0,0
6093,2024 8 08,15:41:00.177,-0.352232,-0.523736,0.431298,-0.644683,-0.966601,-0.184673,-0.078204,0.087411,3.9e-05,-0.284148,0,0
6094,2024 8 08,15:41:00.185,-0.352203,-0.523731,0.431306,-0.644698,-0.963414,-0.184972,-0.077399,0.113908,0.093331,-0.300224,0,0
6095,2024 8 08,15:41:00.194,-0.35217,-0.523732,0.431309,-0.644712,-0.961934,-0.186517,-0.079056,0.120074,0.161148,-0.257858,0,0
6096,2024 8 08,15:41:00.202,-0.352162,-0.523733,0.43131,-0.644715,-0.961577,-0.186891,-0.079456,0.121564,0.17754,-0.247617,0,0
6097,2024 8 08,15:41:00.210,-0.352141,-0.523734,0.431302,-0.644731,-0.963288,-0.213041,-0.048074,0.347124,0.046535,-0.154977,0,0
6098,2024 8 08,15:41:00.219,-0.352116,-0.523739,0.431291,-0.644748,-0.96302,-0.185389,-0.077607,0.316526,0.012591,-0.130974,0,0
6099,2024 8 08,15:41:00.227,-0.35209,-0.523746,0.431284,-0.644762,-0.966469,-0.187268,-0.077278,0.220308,0.135559,-0.124553,0,0
6100,2024 8 08,15:41:00.235,-0.352064,-0.523747,0.431278,-0.644778,-0.966027,-0.183955,-0.08241,0.19378,0.038895,-0.166305,0,0
6101,2024 8 08,15:41:00.244,-0.352039,-0.523752,0.431275,-0.644791,-0.964181,-0.183016,-0.07939,0.143212,0.140588,-0.135112,0,0
6102,2024 8 08,15:41:00.252,-0.352032,-0.523753,0.431273,-0.644794,-0.963642,-0.182742,-0.078509,0.128467,0.170241,-0.126016,0,0
6103,2024 8 08,15:41:00.260,-0.352015,-0.523755,0.431277,-0.644799,-0.963481,-0.180975,-0.081278,0.039841,0.137009,-0.123294,0,0
6104,2024 8 08,15:41:00.269,-0.35199,-0.523764,0.431276,-0.644806,-0.963431,-0.180767,-0.077461,0.09596,0.210124,-0.122459,0,0
6105,2024 8 08,15:41:00.277,-0.351964,-0.52377,0.431284,-0.644811,-0.964405,-0.183339,-0.082527,-0.010048,0.233093,-0.204622,0,0
6106,2024 8 08,15:41:00.285,-0.35194,-0.523768,0.431293,-0.64482,-0.964392,-0.18286,-0.081871,0.037445,0.158915,-0.231026,0,0
6107,2024 8 08,15:41:00.294,-0.351915,-0.523756,0.431302,-0.644836,-0.964805,-0.226434,-0.001989,0.008385,0.017152,-0.244081,0,0
6108,2024 8 08,15:41:00.302,-0.351913,-0.523754,0.431303,-0.644838,-0.964872,-0.181649,-0.078137,0.000167,0.000341,-0.244139,0,0
6109,2024 8 08,15:41:00.310,-0.351895,-0.523739,0.431311,-0.644855,-0.964466,-0.182869,-0.079351,0.101902,-0.050936,-0.346037,0,0
6110,2024 8 08,15:41:00.319,-0.351875,-0.523729,0.431319,-0.644869,-0.965593,-0.183501,-0.07958,-0.029482,0.090022,-0.315032,0,0
6111,2024 8 08,15:41:00.327,-0.351859,-0.52371,0.431337,-0.644881,-0.967416,-0.182406,-0.081569,-0.108489,0.02115,-0.305799,0,0
6112,2024 8 08,15:41:00.335,-0.351848,-0.523682,0.431351,-0.644901,-0.966994,-0.183715,-0.07615,-0.023568,-0.144566,-0.353954,0,0
6113,2024 8 08,15:41:00.344,-0.35184,-0.52365,0.431365,-0.644921,-0.963383,-0.184054,-0.077529,-0.146219,-0.179637,-0.317075,0,0
6114,2024 8 08,15:41:00.352,-0.351839,-0.523644,0.431368,-0.644925,-0.96253,-0.184084,-0.078066,-0.179313,-0.182749,-0.306399,0,0
6115,2024 8 08,15:41:00.360,-0.351827,-0.52362,0.431378,-0.644944,-0.962817,-0.184461,-0.078867,-0.042578,-0.136368,-0.305317,0,0
6116,2024 8 08,15:41:00.369,-0.351813,-0.523597,0.431387,-0.644964,-0.964381,-0.185667,-0.081653,-0.005426,-0.123892,-0.305194,0,0
6117,2024 8 08,15:41:00.377,-0.351801,-0.52357,0.4314,-0.644984,-0.964078,-0.185625,-0.08022,-0.091621,-0.122324,-0.350611,0,0
6118,2024 8 08,15:41:00.385,-0.351791,-0.523543,0.431408,-0.645006,-0.965358,-0.184488,-0.077177,0.016998,-0.166935,-0.229381,0,0
6119,2024 8 08,15:41:00.394,-0.351776,-0.523519,0.431417,-0.645028,-0.962585,-0.184506,-0.07846,0.009669,-0.136251,-0.323306,0,0
6120,2024 8 08,15:41:00.402,-0.351758,-0.523497,0.431421,-0.645053,-0.963746,-0.184913,-0.078993,0.088992,-0.168182,-0.227814,0,0
6121,2024 8 08,15:41:00.410,-0.351753,-0.523491,0.431421,-0.64506,-0.964268,-0.185037,-0.079084,0.116002,-0.180368,-0.191307,0,0
6122,2024 8 08,15:41:00.419,-0.351741,-0.524226,0.434731,-0.642242,-0.961979,-0.186421,-0.07944,0.163448,-0.267683,-0.269802,0,0
6123,2024 8 08,15:41:00.427,-0.351718,-0.523456,0.431403,-0.64512,-0.962854,-0.184879,-0.077208,0.305161,0.792894,-0.548983,0,0
6124,2024 8 08,15:41:00.435,-0.35169,-0.523443,0.43139,-0.645154,-0.962294,-0.185253,-0.078719,0.394665,-0.189599,-0.345136,0,0
6125,2024 8 08,15:41:00.444,-0.351663,-0.523432,0.431377,-0.645187,-0.965301,-0.184502,-0.080381,0.33798,-0.143561,-0.279514,0,0
6126,2024 8 08,15:41:00.452,-0.351641,-0.523425,0.431363,-0.645214,-0.965823,-0.184832,-0.07928,0.272308,-0.127071,-0.171371,0,0
6127,2024 8 08,15:41:00.460,-0.351633,-0.523605,0.433812,-0.643428,-0.965843,-0.185008,-0.078776,0.250953,-0.12328,-0.133993,0,0
6128,2024 8 08,15:41:00.469,-0.35161,-0.523418,0.431349,-0.645246,-0.964899,-0.184101,-0.081503,0.364488,-0.043281,-0.2437,0,0
6129,2024 8 08,15:41:00.477,-0.351587,-0.523413,0.431336,-0.645271,-0.966394,-0.183417,-0.078242,0.332789,-0.089403,-0.171965,0,0
6130,2024 8 08,15:41:00.485,-0.351564,-0.523406,0.431324,-0.645298,-0.96645,-0.184739,-0.078583,0.27394,-0.113315,-0.212715,0,0
6131,2024 8 08,15:41:00.494,-0.351533,-0.523398,0.431316,-0.645326,-0.964535,-0.184716,-0.078043,0.252375,-0.043257,-0.31185,0,0
6132,2024 8 08,15:41:00.502,-0.351502,-0.523389,0.431313,-0.645352,-0.964031,-0.251035,-0.135837,0.208716,-0.012306,-0.350747,0,0
6133,2024 8 08,15:41:00.510,-0.35149,-0.523579,0.434173,-0.643283,-0.963936,-0.183286,-0.083313,0.190595,-0.003599,-0.361689,0,0
6134,2024 8 08,15:41:00.519,-0.351473,-0.523383,0.431318,-0.64537,-0.966272,-0.184937,-0.07817,0.037609,0.072792,-0.290981,0,0
6135,2024 8 08,15:41:00.527,-0.351451,-0.523377,0.431321,-0.645385,-0.964701,-0.185701,-0.078113,0.078934,0.033832,-0.295094,0,0
6136,2024 8 08,15:41:00.535,-0.351424,-0.523374,0.431319,-0.645402,-0.962949,-0.216405,-0.036842,0.180752,0.010667,-0.229715,0,0
6137,2024 8 08,15:41:00.544,-0.351402,-0.52337,0.431317,-0.645419,-0.962268,-0.184862,-0.075546,0.152181,-0.032315,-0.162384,0,0
6138,2024 8 08,15:41:00.552,-0.35138,-0.523372,0.431311,-0.645434,-0.962616,-0.184909,-0.073676,0.131998,-0.016186,-0.099983,0,0
6139,2024 8 08,15:41:00.560,-0.35137,-0.523373,0.431308,-0.64544,-0.962818,-0.185012,-0.073066,0.125413,-0.00545,-0.074149,0,0
6140,2024 8 08,15:41:00.569,-0.351365,-0.523374,0.431307,-0.645443,-0.962918,-0.185063,-0.072761,0.122121,-8.3e-05,-0.061235,0,0
6141,2024 8 08,15:41:00.577,-0.351359,-0.523368,0.431307,-0.645452,-0.965288,-0.185538,-0.078912,0.003695,-3e-06,-0.12023,0,0
6142,2024 8 08,15:41:00.585,-0.351355,-0.523354,0.431302,-0.645469,-0.963959,-0.181821,-0.074898,0.000166,-0.174899,-0.063688,0,0
6143,2024 8 08,15:41:00.594,-0.351354,-0.523335,0.431302,-0.645484,-0.965279,-0.185333,-0.080235,1e-05,-0.182622,-0.118629,0,0
6144,2024 8 08,15:41:00.602,-0.351357,-0.523316,0.431307,-0.645495,-0.963091,-0.187348,-0.084167,-0.113199,-0.069871,-0.12182,0,0
6145,2024 8 08,15:41:00.610,-0.351353,-0.523297,0.431313,-0.645508,-0.962042,-0.182583,-0.083556,-0.121307,-0.006008,-0.066262,0,0
6146,2024 8 08,15:41:00.619,-0.351353,-0.523297,0.431313,-0.645508,-0.961953,-0.182179,-0.083504,-0.121995,-0.000594,-0.061552,0,0
6147,2024 8 08,15:41:00.627,-0.351354,-0.523335,0.431302,-0.645484,-0.963246,-0.181272,-0.082632,-0.067834,-0.054294,-0.061093,0,0
6148,2024 8 08,15:41:00.635,-0.351354,-0.523335,0.431302,-0.645484,-0.9651,-0.184167,-0.079968,0.045086,-0.167163,-0.061042,0,0
6149,2024 8 08,15:41:00.644,-0.351347,-0.523257,0.431315,-0.645542,-0.966592,-0.184943,-0.079221,-0.099392,0.030075,-0.113791,0,0
6150,2024 8 08,15:41:00.652,-0.351341,-0.52324,0.431324,-0.645553,-0.962628,-0.182132,-0.082036,-0.066684,-0.047618,-0.172898,0,0
6151,2024 8 08,15:41:00.660,-0.351332,-0.523225,0.43132,-0.645573,-0.965339,-0.183367,-0.079158,0.092146,-0.110267,-0.181487,0,0
6152,2024 8 08,15:41:00.669,-0.35133,-0.523535,0.434632,-0.643097,-0.965763,-0.18356,-0.078708,0.116997,-0.120069,-0.182831,0,0
6153,2024 8 08,15:41:00.677,-0.351323,-0.52321,0.431315,-0.645593,-0.967836,-0.187995,-0.078232,0.121156,-0.171745,-0.133021,0,0
6154,2024 8 08,15:41:00.685,-0.351311,-0.523193,0.431317,-0.645612,-0.961091,-0.184833,-0.078147,0.023099,-0.082143,-0.173557,0,0
6155,2024 8 08,15:41:00.694,-0.351298,-0.523185,0.431314,-0.645628,-0.962553,-0.186579,-0.077351,0.053417,-0.016496,-0.083632,0,0
6156,2024 8 08,15:41:00.702,-0.351285,-0.523184,0.431314,-0.645636,-0.962457,-0.188467,-0.086057,0.011257,0.092869,-0.065797,0,0
6157,2024 8 08,15:41:00.710,-0.351272,-0.52319,0.431308,-0.645642,-0.962818,-0.185012,-0.073066,0.050063,0.163216,0.080662,0,0
6158,2024 8 08,15:41:00.719,-0.351269,-0.523191,0.431307,-0.645643,-0.962897,-0.183846,-0.081774,0.058513,0.178534,0.112552,0,0
6159,2024 8 08,15:41:00.727,-0.35126,-0.523202,0.431304,-0.645641,-0.964772,-0.184401,-0.079371,-0.032455,0.228456,0.026907,0,0
6160,2024 8 08,15:41:00.735,-0.351252,-0.523216,0.431305,-0.645634,-0.963747,-0.186368,-0.078803,-0.053946,0.24025,0.006675,0,0
6161,2024 8 08,15:41:00.744,-0.35124,-0.52323,0.431304,-0.645629,-0.964221,-0.183585,-0.076124,0.031503,0.197783,0.001714,0,0
6162,2024 8 08,15:41:00.752,-0.351224,-0.523246,0.431292,-0.645634,-0.962189,-0.185389,-0.078313,0.187701,0.142166,0.000455,0,0
6163,2024 8 08,15:41:00.760,-0.351206,-0.52326,0.431288,-0.645635,-0.962365,-0.186926,-0.078887,0.095718,0.216219,0.000125,0,0
6164,2024 8 08,15:41:00.769,-0.351201,-0.523264,0.431286,-0.645635,-0.962413,-0.187342,-0.079043,0.070816,0.236266,3.5e-05,0,0
6165,2024 8 08,15:41:00.777,-0.351185,-0.523272,0.431281,-0.645641,-0.96312,-0.185032,-0.08082,0.150539,0.198523,1e-05,0,0
6166,2024 8 08,15:41:00.785,-0.351168,-0.523285,0.431272,-0.645646,-0.965037,-0.187454,-0.079272,0.173405,0.187698,3e-06,0,0
6167,2024 8 08,15:41:00.794,-0.351145,-0.523297,0.43127,-0.64565,-0.964245,-0.185116,-0.079155,0.137754,0.226896,-0.084774,0,0
6168,2024 8 08,15:41:00.802,-0.351124,-0.523305,0.431267,-0.645657,-0.965347,-0.184074,-0.082475,0.08505,0.154883,-0.068466,0,0
6169,2024 8 08,15:41:00.810,-0.351106,-0.52331,0.431273,-0.645659,-0.965689,-0.185743,-0.076201,-0.014234,0.215546,-0.146379,0,0
6170,2024 8 08,15:41:00.819,-0.351081,-0.523314,0.431282,-0.645663,-0.964812,-0.187585,-0.076511,-0.004662,0.234774,-0.212119,0,0
6171,2024 8 08,15:41:00.827,-0.351073,-0.523315,0.431284,-0.645665,-0.964528,-0.188182,-0.076612,-0.00156,0.241007,-0.233427,0,0
6172,2024 8 08,15:41:00.835,-0.351048,-0.523307,0.431291,-0.645681,-0.962715,-0.186808,-0.081258,0.156657,-0.017016,-0.244027,0,0
6173,2024 8 08,15:41:00.844,-0.351032,-0.523298,0.431292,-0.645695,-0.962439,-0.186948,-0.080368,0.079576,-0.008478,-0.089863,0,0
6174,2024 8 08,15:41:00.852,-0.351019,-0.523304,0.431277,-0.645708,-0.963648,-0.188635,-0.077256,0.264381,-0.000343,0.089747,0,0
6175,2024 8 08,15:41:00.860,-0.351008,-0.523312,0.431256,-0.645721,-0.964282,-0.18496,-0.076296,0.302945,-1.9e-05,0.120303,0,0
6176,2024 8 08,15:41:00.869,-0.350987,-0.523328,0.43124,-0.645731,-0.963198,-0.186705,-0.072357,0.255857,0.147496,0.023618,0,0
6177,2024 8 08,15:41:00.877,-0.350983,-0.523331,0.431237,-0.645732,-0.962943,-0.183132,-0.077616,0.245101,0.180187,0.001936,0,0
6178,2024 8 08,15:41:00.885,-0.350961,-0.523343,0.431228,-0.645741,-0.963304,-0.301926,0.03398,0.196465,0.230595,0.000184,0,0
6179,2024 8 08,15:41:00.894,-0.350936,-0.523356,0.431217,-0.645751,-0.964527,-0.184212,-0.077462,0.231641,0.195585,2e-05,0,0
6180,2024 8 08,15:41:00.902,-0.350913,-0.523365,0.431196,-0.64577,-0.964089,-0.183986,-0.080161,0.428421,0.045268,-0.046443,0,0
6181,2024 8 08,15:41:00.910,-0.350892,-0.523367,0.431178,-0.645792,-0.964655,-0.18554,-0.080939,0.342941,-0.039833,-0.104919,0,0
6182,2024 8 08,15:41:00.919,-0.350872,-0.523365,0.431164,-0.645813,-0.964842,-0.186692,-0.079232,0.220215,-0.057987,-0.1648,0,0
6183,2024 8 08,15:41:00.927,-0.350867,-0.523365,0.43116,-0.645819,-0.964868,-0.186967,-0.078711,0.188862,-0.060562,-0.180266,0,0
6184,2024 8 08,15:41:00.935,-0.350854,-0.523354,0.431153,-0.64584,-0.963816,-0.184896,-0.082857,0.140052,-0.148977,-0.226644,0,0
6185,2024 8 08,15:41:00.944,-0.350837,-0.523341,0.431149,-0.645862,-0.963828,-0.184231,-0.083494,0.081812,-0.090184,-0.284484,0,0
6186,2024 8 08,15:41:00.952,-0.350824,-0.523324,0.431158,-0.645877,-0.964227,-0.18583,-0.081439,-0.063726,0.019271,-0.25841,0,0
6187,2024 8 08,15:41:00.960,-0.350808,-0.523307,0.431179,-0.645886,-0.962999,-0.186391,-0.080063,-0.195223,0.052776,-0.289307,0,0
6188,2024 8 08,15:41:00.969,-0.350797,-0.523289,0.431199,-0.645893,-0.96556,-0.185497,-0.077683,-0.150344,0.059319,-0.260062,0,0
6189,2024 8 08,15:41:00.977,-0.350794,-0.523284,0.431205,-0.645895,-0.966551,-0.185158,-0.076884,-0.128219,0.060662,-0.247603,0,0
6190,2024 8 08,15:41:00.985,-0.350787,-0.52327,0.431217,-0.645902,-0.966438,-0.186065,-0.079324,-0.041864,-0.020652,-0.244927,0,0
6191,2024 8 08,15:41:00.994,-0.350778,-0.52325,0.431228,-0.645916,-0.964749,-0.185774,-0.07447,-0.050203,-0.051494,-0.284638,0,0
6192,2024 8 08,15:41:01.002,-0.350769,-0.523229,0.431233,-0.645934,-0.96315,-0.18497,-0.080088,0.021288,-0.13836,-0.180638,0,0
6193,2024 8 08,15:41:01.010,-0.350763,-0.523203,0.431233,-0.645958,-0.962614,-0.184361,-0.081057,0.011566,-0.211098,-0.215689,0,0
6194,2024 8 08,15:41:01.019,-0.350748,-0.52318,0.43123,-0.645987,-0.963725,-0.183848,-0.080746,0.119769,-0.235456,-0.275573,0,0
6195,2024 8 08,15:41:01.027,-0.350742,-0.523173,0.431229,-0.645997,-0.964206,-0.183667,-0.080617,0.165924,-0.241785,-0.297145,0,0
6196,2024 8 08,15:41:01.035,-0.350733,-0.523152,0.431231,-0.646017,-0.963422,-0.183922,-0.082103,0.064218,-0.243482,-0.302931,0,0
6197,2024 8 08,15:41:01.044,-0.350724,-0.52313,0.431238,-0.646035,-0.964869,-0.184943,-0.07914,-0.019134,-0.093541,-0.266928,0,0
6198,2024 8 08,15:41:01.052,-0.350712,-0.523111,0.431249,-0.646049,-0.96556,-0.185497,-0.077683,-0.011468,-0.064826,-0.250874,0,0
6199,2024 8 08,15:41:01.060,-0.350703,-0.52309,0.431254,-0.646068,-0.964291,-0.184751,-0.079596,-0.003477,-0.172521,-0.209403,0,0
6200,2024 8 08,15:41:01.069,-0.350691,-0.523069,0.431252,-0.646093,-0.964265,-0.185458,-0.08013,0.07168,-0.149124,-0.191278,0,0
6201,2024 8 08,15:41:01.077,-0.350685,-0.523061,0.431251,-0.646103,-0.964347,-0.185855,-0.080429,0.106039,-0.130677,-0.185705,0,0
6202,2024 8 08,15:41:01.085,-0.350682,-0.523055,0.431246,-0.646114,-0.964372,-0.184142,-0.072444,0.116854,-0.124871,-0.077126,0,0
6203,2024 8 08,15:41:01.094,-0.350676,-0.523048,0.431239,-0.646127,-0.963253,-0.21799,-0.047687,0.085101,-0.052532,-0.09611,0,0
6204,2024 8 08,15:41:01.102,-0.350671,-0.523044,0.431235,-0.646136,-0.962437,-0.211539,-0.044021,0.061176,-0.000307,-0.121919,0,0
6205,2024 8 08,15:41:01.110,-0.350663,-0.523036,0.431225,-0.646153,-0.9653,-0.183183,-0.078179,0.120783,-0.119496,-0.062322,0,0
6206,2024 8 08,15:41:01.119,-0.35066,-0.52302,0.431243,-0.646156,-0.963476,-0.185938,-0.075776,-0.231011,0.05454,-0.17876,0,0
6207,2024 8 08,15:41:01.127,-0.350652,-0.522994,0.431269,-0.646164,-0.964803,-0.186963,-0.078009,-0.185519,0.002747,-0.356769,0,0
6208,2024 8 08,15:41:01.135,-0.350652,-0.522994,0.431269,-0.646164,-0.964869,-0.184943,-0.07914,-0.183261,0.000177,-0.365603,0,0
6209,2024 8 08,15:41:01.144,-0.350636,-0.522987,0.431277,-0.646172,-0.963072,-0.185666,-0.077226,0.042004,1.4e-05,-0.197322,0,0
6210,2024 8 08,15:41:01.152,-0.350621,-0.522976,0.431284,-0.646185,-0.964709,-0.184231,-0.078489,0.003826,1e-06,-0.239877,0,0
6211,2024 8 08,15:41:01.160,-0.350605,-0.522965,0.431294,-0.646196,-0.964419,-0.188041,-0.07554,0.000397,0.0,-0.298392,0,0
6212,2024 8 08,15:41:01.169,-0.350578,-0.522962,0.431288,-0.646217,-0.963094,-0.187568,-0.081278,0.161851,0.0,-0.196517,0,0
6213,2024 8 08,15:41:01.177,-0.350562,-0.522958,0.431283,-0.646233,-0.962517,-0.187514,-0.079809,0.180376,-0.053196,-0.078436,0,0
6214,2024 8 08,15:41:01.185,-0.35056,-0.522957,0.431282,-0.646235,-0.962444,-0.187507,-0.079623,0.182723,-0.059936,-0.063475,0,0
6215,2024 8 08,15:41:01.194,-0.350547,-0.522955,0.431285,-0.646242,-0.965333,-0.185021,-0.074626,0.079493,-0.009091,-0.113182,0,0
6216,2024 8 08,15:41:01.202,-0.350535,-0.522955,0.431292,-0.646244,-0.965766,-0.186283,-0.079601,-0.03815,0.100711,-0.120623,0,0
6217,2024 8 08,15:41:01.210,-0.350519,-0.522957,0.431296,-0.646247,-0.964221,-0.183585,-0.076124,-0.05706,0.11836,-0.071387,0,0
6218,2024 8 08,15:41:01.219,-0.35051,-0.522953,0.431301,-0.646253,-0.967939,-0.187791,-0.081138,-0.010517,0.021816,-0.062943,0,0
6219,2024 8 08,15:41:01.227,-0.350503,-0.52295,0.431294,-0.646263,-0.965077,-0.185988,-0.081859,0.047108,-0.044909,-0.012252,0,0
6220,2024 8 08,15:41:01.235,-0.3505,-0.522947,0.431287,-0.646272,-0.96375,-0.187972,-0.080056,0.009644,-0.057734,-0.002508,0,0
6221,2024 8 08,15:41:01.244,-0.3505,-0.522947,0.431287,-0.646272,-0.963482,-0.188373,-0.079692,0.002069,-0.060327,-0.000538,0,0
6222,2024 8 08,15:41:01.252,-0.350505,-0.522943,0.43129,-0.646271,-0.964182,-0.185806,-0.079236,-0.188961,0.033836,-0.000121,0,0
6223,2024 8 08,15:41:01.260,-0.350505,-0.522943,0.43129,-0.646271,-0.966209,-0.187857,-0.076889,-0.137687,0.148256,-0.046814,0,0
6224,2024 8 08,15:41:01.269,-0.350501,-0.522937,0.4313,-0.646271,-0.966677,-0.185372,-0.080046,0.012827,0.035966,-0.011357,0,0
6225,2024 8 08,15:41:01.277,-0.350506,-0.522935,0.431292,-0.646275,-0.967885,-0.18368,-0.079706,0.003226,-0.082324,0.088513,0,0
6226,2024 8 08,15:41:01.285,-0.350504,-0.522926,0.431274,-0.646295,-0.968547,-0.185788,-0.077093,0.136299,-0.292341,-0.022121,0,0
6227,2024 8 08,15:41:01.294,-0.350503,-0.52295,0.431294,-0.646263,-0.968717,-0.18633,-0.076421,0.170528,-0.346361,-0.050578,0,0
6228,2024 8 08,15:41:01.302,-0.350502,-0.522912,0.431259,-0.646318,-0.964879,-0.232119,-0.045026,0.091367,-0.228331,-0.058138,0,0
6229,2024 8 08,15:41:01.310,-0.350494,-0.522901,0.431252,-0.646336,-0.964526,-0.184365,-0.07955,0.069684,-0.10874,-0.147471,0,0
6230,2024 8 08,15:41:01.319,-0.350486,-0.522887,0.431246,-0.646356,-0.964426,-0.184514,-0.081651,0.020424,-0.118163,-0.129515,0,0
6231,2024 8 08,15:41:01.327,-0.350481,-0.52287,0.43125,-0.646369,-0.966787,-0.186606,-0.083625,-0.121871,0.007121,-0.12431,0,0
6232,2024 8 08,15:41:01.335,-0.350478,-0.522852,0.431257,-0.646381,-0.965801,-0.187228,-0.078135,-0.037593,-0.124427,-0.122761,0,0
6233,2024 8 08,15:41:01.344,-0.350477,-0.522847,0.431259,-0.646384,-0.9655,-0.187418,-0.07646,-0.011876,-0.164569,-0.122289,0,0
6234,2024 8 08,15:41:01.352,-0.35047,-0.522838,0.431256,-0.646398,-0.965076,-0.186816,-0.07858,0.078782,-0.135805,-0.080831,0,0
6235,2024 8 08,15:41:01.360,-0.350461,-0.522831,0.43125,-0.646411,-0.963305,-0.186297,-0.079585,0.066897,-0.085732,-0.108449,0,0
6236,2024 8 08,15:41:01.369,-0.350452,-0.522819,0.431239,-0.646433,-0.963698,-0.185197,-0.082611,0.061041,-0.113787,-0.016605,0,0
6237,2024 8 08,15:41:01.377,-0.350446,-0.522807,0.431232,-0.646451,-0.96597,-0.184651,-0.079266,0.009125,-0.121933,-0.104095,0,0
6238,2024 8 08,15:41:01.385,-0.350436,-0.522797,0.431233,-0.646464,-0.965918,-0.185396,-0.077,0.051407,-0.019826,-0.121504,0,0
6239,2024 8 08,15:41:01.394,-0.350435,-0.522795,0.431234,-0.646466,-0.965853,-0.185545,-0.076678,0.060592,-0.000912,-0.122044,0,0
6240,2024 8 08,15:41:01.402,-0.350422,-0.522791,0.431221,-0.646485,-0.964262,-0.186346,-0.080235,0.209836,-0.099273,-0.072459,0,0
6241,2024 8 08,15:41:01.410,-0.350411,-0.522784,0.431205,-0.646508,-0.96627,-0.187298,-0.077085,0.192722,-0.169275,-0.061878,0,0
6242,2024 8 08,15:41:01.419,-0.350394,-0.522784,0.431181,-0.646532,-0.962923,-0.184404,-0.079338,0.328499,-0.133716,-0.012923,0,0
6243,2024 8 08,15:41:01.427,-0.350378,-0.522779,0.431157,-0.646561,-0.965082,-0.18596,-0.078106,0.267432,-0.123235,-0.0963,0,0
6244,2024 8 08,15:41:01.435,-0.350357,-0.522772,0.43114,-0.646589,-0.965014,-0.187215,-0.078816,0.246762,-0.122201,-0.212851,0,0
6245,2024 8 08,15:41:01.444,-0.350351,-0.52277,0.431137,-0.646596,-0.964891,-0.187469,-0.079068,0.244468,-0.122087,-0.240236,0,0
6246,2024 8 08,15:41:01.452,-0.35033,-0.522762,0.43113,-0.646619,-0.964876,-0.185678,-0.081286,0.244185,-0.122073,-0.243607,0,0
6247,2024 8 08,15:41:01.460,-0.350329,-0.522749,0.431125,-0.646633,-0.964514,-0.19091,-0.082642,-0.115526,-0.077111,-0.109184,0,0
6248,2024 8 08,15:41:01.469,-0.35032,-0.522739,0.431112,-0.646655,-0.963341,-0.186529,-0.079402,0.042561,-0.196694,-0.113079,0,0
6249,2024 8 08,15:41:01.477,-0.350308,-0.522734,0.431096,-0.646676,-0.964043,-0.18596,-0.076243,0.239879,-0.148481,-0.076751,0,0
6250,2024 8 08,15:41:01.485,-0.350298,-0.522732,0.431087,-0.646689,-0.963286,-0.184643,-0.078153,0.163681,-0.040408,-0.020659,0,0
6251,2024 8 08,15:41:01.494,-0.350296,-0.522732,0.431084,-0.646692,-0.96299,-0.223628,-0.008961,0.13004,-0.007739,-0.003957,0,0
6252,2024 8 08,15:41:01.502,-0.350288,-0.522732,0.431076,-0.646702,-0.964283,-0.184446,-0.080079,0.123677,-0.043699,-0.000798,0,0
6253,2024 8 08,15:41:01.510,-0.35028,-0.522728,0.431068,-0.646715,-0.965414,-0.184881,-0.080798,0.080795,-0.057367,-0.041784,0,0
6254,2024 8 08,15:41:01.519,-0.350274,-0.52272,0.431062,-0.646728,-0.964109,-0.18601,-0.082644,0.065406,-0.060224,-0.056777,0,0
6255,2024 8 08,15:41:01.527,-0.350269,-0.522713,0.431055,-0.646741,-0.963245,-0.18576,-0.082977,0.062043,-0.060848,-0.019444,0,0
6256,2024 8 08,15:41:01.535,-0.350266,-0.522711,0.431052,-0.646746,-0.965245,-0.185923,-0.081718,0.021153,-0.020867,-0.004663,0,0
6257,2024 8 08,15:41:01.544,-0.350266,-0.522711,0.431052,-0.646746,-0.966066,-0.186012,-0.081222,0.005263,-0.005192,-0.00116,0,0
6258,2024 8 08,15:41:01.552,-0.350265,-0.522709,0.431042,-0.646755,-0.965955,-0.183525,-0.078905,0.001356,-0.040524,-0.000299,0,0
6259,2024 8 08,15:41:01.560,-0.350268,-0.522703,0.431034,-0.646764,-0.964638,-0.185294,-0.076117,0.000361,-0.094311,-8e-05,0,0
6260,2024 8 08,15:41:01.569,-0.350267,-0.522696,0.431026,-0.646776,-0.964406,-0.185271,-0.078159,0.038392,-0.076157,-2.2e-05,0,0
6261,2024 8 08,15:41:01.577,-0.350268,-0.522703,0.431034,-0.646764,-0.962876,-0.26536,0.006199,0.016773,-0.178894,-0.075729,0,0
6262,2024 8 08,15:41:01.585,-0.350271,-0.522667,0.431008,-0.646809,-0.964611,-0.185591,-0.079625,0.004876,-0.187735,-0.033721,0,0
6263,2024 8 08,15:41:01.594,-0.350272,-0.522661,0.431004,-0.646816,-0.96548,-0.184879,-0.078232,0.001455,-0.184487,-0.010066,0,0
6264,2024 8 08,15:41:01.602,-0.350273,-0.522657,0.431,-0.646821,-0.965151,-0.186134,-0.0787,0.000446,-0.110284,-0.003082,0,0
6265,2024 8 08,15:41:01.610,-0.350272,-0.522661,0.431004,-0.646816,-0.962931,-0.18703,-0.078108,-0.072315,-0.004027,-0.037194,0,0
6266,2024 8 08,15:41:01.619,-0.350274,-0.52272,0.431062,-0.646728,-0.961929,-0.21751,-0.053387,-0.070259,0.004311,-0.017542,0,0
6267,2024 8 08,15:41:01.627,-0.350273,-0.522657,0.431,-0.646821,-0.96388,-0.186895,-0.080097,0.006862,0.001415,-0.005756,0,0
6268,2024 8 08,15:41:01.635,-0.350264,-0.522635,0.431003,-0.646842,-0.965707,-0.187819,-0.083025,0.113061,0.000474,-0.001929,0,0
6269,2024 8 08,15:41:01.644,-0.350258,-0.522635,0.431,-0.646847,-0.966813,-0.188474,-0.084941,0.182275,6e-06,-2.3e-05,0,0
6270,2024 8 08,15:41:01.652,-0.350251,-0.52264,0.430991,-0.646852,-0.96445,-0.187532,-0.081162,0.064305,0.0,0.118777,0,0
6271,2024 8 08,15:41:01.660,-0.350251,-0.52264,0.430991,-0.646852,-0.964388,-0.184575,-0.080078,0.061171,0.0,0.121933,0,0
6272,2024 8 08,15:41:01.669,-0.350251,-0.52264,0.430991,-0.646852,-0.963002,-0.187639,-0.081045,-0.054209,0.115252,0.006811,0,0
6273,2024 8 08,15:41:01.677,-0.350248,-0.522638,0.430991,-0.646856,-0.96338,-0.185138,-0.078235,-0.003777,0.008029,0.000474,0,0
6274,2024 8 08,15:41:01.685,-0.350237,-0.522645,0.430989,-0.646857,-0.96654,-0.186414,-0.077689,-0.056278,0.168561,3.9e-05,0,0
6275,2024 8 08,15:41:01.694,-0.350218,-0.522657,0.430986,-0.64686,-0.961061,-0.187842,-0.082499,0.10493,0.236877,4e-06,0,0
6276,2024 8 08,15:41:01.702,-0.350199,-0.522667,0.430989,-0.64686,-0.960977,-0.184061,-0.076862,0.011413,0.297747,-0.108792,0,0
6277,2024 8 08,15:41:01.710,-0.350197,-0.522668,0.430989,-0.64686,-0.960968,-0.21247,-0.055337,0.001382,0.304276,-0.120463,0,0
6278,2024 8 08,15:41:01.719,-0.350179,-0.522679,0.430997,-0.646856,-0.964777,-0.18657,-0.077879,-0.05273,0.305056,-0.068943,0,0
6279,2024 8 08,15:41:01.727,-0.35015,-0.522692,0.430997,-0.646861,-0.964024,-0.187788,-0.083938,0.201178,0.252956,-0.114382,0,0
6280,2024 8 08,15:41:01.735,-0.350121,-0.522712,0.430998,-0.64686,-0.963917,-0.183586,-0.081641,0.082907,0.400045,-0.017851,0,0
6281,2024 8 08,15:41:01.744,-0.350094,-0.522735,0.430996,-0.646858,-0.967153,-0.188058,-0.077741,0.166361,0.371865,-0.053818,0,0
6282,2024 8 08,15:41:01.752,-0.35007,-0.522749,0.430992,-0.646862,-0.967687,-0.213726,-0.073718,0.129949,0.216682,-0.059751,0,0
6283,2024 8 08,15:41:01.760,-0.350066,-0.522752,0.430992,-0.646863,-0.967781,-0.18658,-0.08425,0.123554,0.18943,-0.060793,0,0
6284,2024 8 08,15:41:01.769,-0.350042,-0.52277,0.43098,-0.646868,-0.965059,-0.186148,-0.08443,0.269107,0.282189,-0.012073,0,0
6285,2024 8 08,15:41:01.777,-0.350023,-0.522785,0.430973,-0.646871,-0.963753,-0.185677,-0.079056,0.056127,0.300382,-0.050823,0,0
6286,2024 8 08,15:41:01.785,-0.349997,-0.522796,0.430981,-0.646871,-0.96501,-0.185961,-0.079857,-0.03546,0.304129,-0.201941,0,0
6287,2024 8 08,15:41:01.794,-0.349975,-0.5228,0.430987,-0.646875,-0.965281,-0.186023,-0.077767,-0.008077,0.210673,-0.140263,0,0
6288,2024 8 08,15:41:01.802,-0.349943,-0.522809,0.430991,-0.646883,-0.962362,-0.186782,-0.076924,0.137787,0.236207,-0.219517,0,0
6289,2024 8 08,15:41:01.810,-0.349936,-0.522811,0.430991,-0.646885,-0.961678,-0.213988,-0.060308,0.171953,0.242188,-0.238081,0,0
6290,2024 8 08,15:41:01.819,-0.349912,-0.522825,0.430986,-0.64689,-0.963695,-0.183728,-0.078134,0.271215,0.289119,-0.060691,0,0
6291,2024 8 08,15:41:01.827,-0.349885,-0.522848,0.430978,-0.646891,-0.966361,-0.187589,-0.07777,0.161376,0.390844,-0.015995,0,0
6292,2024 8 08,15:41:01.835,-0.349853,-0.52288,0.430963,-0.646893,-0.965633,-0.18504,-0.076253,0.399372,0.37291,-0.00435,0,0
6293,2024 8 08,15:41:01.844,-0.349828,-0.522905,0.43096,-0.646888,-0.965438,-0.187166,-0.078656,0.155841,0.324156,-0.045151,0,0
6294,2024 8 08,15:41:01.852,-0.349796,-0.522922,0.430967,-0.646887,-0.961561,-0.184975,-0.081755,0.088364,0.397529,-0.186779,0,0
6295,2024 8 08,15:41:01.860,-0.349787,-0.522927,0.43097,-0.646887,-0.960455,-0.18435,-0.082639,0.069128,0.418446,-0.227154,0,0
6296,2024 8 08,15:41:01.869,-0.349759,-0.522949,0.43098,-0.646876,-0.964211,-0.186547,-0.077798,0.021004,0.594532,-0.153999,0,0
6297,2024 8 08,15:41:01.877,-0.349721,-0.522986,0.430986,-0.646863,-0.962649,-0.186871,-0.07668,-0.03549,0.605426,-0.132012,0,0
6298,2024 8 08,15:41:01.885,-0.349679,-0.523019,0.431001,-0.64685,-0.962834,-0.18564,-0.076335,0.196587,0.650361,-0.208399,0,0
6299,2024 8 08,15:41:01.894,-0.349636,-0.523048,0.431028,-0.646831,-0.966183,-0.183277,-0.081164,0.022943,0.705672,-0.273629,0,0
6300,2024 8 08,15:41:01.902,-0.34959,-0.523075,0.431066,-0.646809,-0.966286,-0.186749,-0.078813,-0.114483,0.845637,-0.29467,0,0
6301,2024 8 08,15:41:01.910,-0.349567,-0.523088,0.431085,-0.646798,-0.966338,-0.179787,-0.002494,-0.182615,0.915028,-0.305101,0,0
6302,2024 8 08,15:41:01.919,-0.349523,-0.523109,0.431113,-0.646786,-0.968815,-0.187244,-0.073511,0.074904,0.657517,-0.408374,0,0
6303,2024 8 08,15:41:01.927,-0.349473,-0.523118,0.431139,-0.646788,-0.965999,-0.684608,0.07116,0.018678,0.358013,-0.426544,0,0
6304,2024 8 08,15:41:01.935,-0.349428,-0.523119,0.431154,-0.646802,-0.966996,-0.18902,-0.072207,0.151146,0.207778,-0.42721,0,0
6305,2024 8 08,15:41:01.944,-0.349391,-0.523114,0.431162,-0.64682,-0.962558,-0.199918,0.117215,0.131687,0.036745,-0.279267,0,0
6306,2024 8 08,15:41:01.952,-0.34937,-0.523104,0.431163,-0.646839,-0.961542,-0.258551,-0.108452,0.171442,0.002904,-0.101082,0,0
6307,2024 8 08,15:41:01.960,-0.349366,-0.523102,0.431163,-0.646843,-0.961463,-0.189938,-0.079582,0.18203,0.000268,-0.064726,0,0
6308,2024 8 08,15:41:01.969,-0.349362,-0.523101,0.431156,-0.646851,-0.961078,-0.189946,-0.080725,0.088506,2.8e-05,-0.014179,0,0
6309,2024 8 08,15:41:01.977,-0.349353,-0.523112,0.431132,-0.646863,-0.960234,-0.189947,-0.0799,0.297198,3e-06,0.184687,0,0
6310,2024 8 08,15:41:01.985,-0.349355,-0.523131,0.431097,-0.64687,-0.965168,-0.185536,-0.076691,0.403228,-0.04595,0.374296,0,0
6311,2024 8 08,15:41:01.994,-0.349351,-0.523157,0.43106,-0.646876,-0.965867,-0.186468,-0.075828,0.333195,0.077084,0.37444,0,0
6312,2024 8 08,15:41:02.002,-0.349345,-0.523178,0.431027,-0.646883,-0.965137,-0.186934,-0.071772,0.354179,0.025752,0.278015,0,0
6313,2024 8 08,15:41:02.010,-0.349343,-0.523184,0.431019,-0.646885,-0.964916,-0.175791,-0.069778,0.36424,0.004217,0.249688,0,0
6314,2024 8 08,15:41:02.019,-0.349335,-0.523199,0.430993,-0.646894,-0.965926,-0.184924,-0.073145,0.365867,0.000736,0.201544,0,0
6315,2024 8 08,15:41:02.027,-0.349325,-0.523213,0.430954,-0.646915,-0.965918,-0.185396,-0.077,0.452162,-0.171893,0.18652,0,0
6316,2024 8 08,15:41:02.035,-0.349317,-0.523215,0.430918,-0.646942,-0.963825,-0.18506,-0.075584,0.35383,-0.230016,0.056383,0,0
6317,2024 8 08,15:41:02.044,-0.34931,-0.523213,0.430897,-0.646961,-0.962771,-0.186688,-0.08098,0.147444,-0.115438,0.011589,0,0
6318,2024 8 08,15:41:02.052,-0.349308,-0.523205,0.430874,-0.646984,-0.964161,-0.273172,0.037335,0.203891,-0.238414,0.002496,0,0
6319,2024 8 08,15:41:02.060,-0.349306,-0.523198,0.430844,-0.64701,-0.96635,-0.182115,-0.008262,0.275999,-0.208338,0.082384,0,0
6320,2024 8 08,15:41:02.069,-0.349306,-0.523198,0.430844,-0.64701,-0.967089,-0.185244,-0.076809,0.298341,-0.189016,0.112774,0,0
6321,2024 8 08,15:41:02.077,-0.349309,-0.523188,0.430814,-0.647037,-0.96726,-0.180824,-0.080502,0.183699,-0.304357,0.039932,0,0
6322,2024 8 08,15:41:02.085,-0.349308,-0.523205,0.430874,-0.646984,-0.966353,-0.1858,-0.075928,0.177084,-0.390077,-0.068864,0,0
6323,2024 8 08,15:41:02.094,-0.349307,-0.523149,0.430771,-0.647098,-0.966293,-0.188046,-0.076588,0.259554,-0.417548,-0.069177,0,0
6324,2024 8 08,15:41:02.102,-0.349307,-0.523149,0.430771,-0.647098,-0.964475,-0.18687,-0.077616,0.254323,-0.463195,-0.101791,0,0
6325,2024 8 08,15:41:02.110,-0.349303,-0.523101,0.43071,-0.64718,-0.96462,-0.188406,-0.079815,0.399464,-0.519438,-0.078314,0,0
6326,2024 8 08,15:41:02.119,-0.349301,-0.523093,0.430696,-0.647197,-0.964801,-0.189158,-0.080702,0.462895,-0.540776,-0.065974,0,0
6327,2024 8 08,15:41:02.127,-0.349296,-0.523077,0.430663,-0.647234,-0.963659,-0.186686,-0.079164,0.518101,-0.621363,-0.025209,0,0
6328,2024 8 08,15:41:02.135,-0.349291,-0.523056,0.430621,-0.647282,-0.962848,-0.186733,-0.080504,0.503037,-0.656304,-0.044469,0,0
6329,2024 8 08,15:41:02.144,-0.349305,-0.523026,0.430591,-0.647318,-0.963436,-0.174191,-0.048939,0.128166,-0.557322,-0.019447,0,0
6330,2024 8 08,15:41:02.152,-0.349302,-0.523007,0.430543,-0.647368,-0.963173,-0.188172,-0.076551,0.426119,-0.54621,-0.006155,0,0
6331,2024 8 08,15:41:02.160,-0.349294,-0.522992,0.430501,-0.647412,-0.965572,-0.187213,-0.074931,0.413511,-0.441234,-0.037685,0,0
6332,2024 8 08,15:41:02.169,-0.349291,-0.523056,0.430621,-0.647282,-0.966738,-0.187082,-0.074456,0.381863,-0.391036,-0.053309,0,0
6333,2024 8 08,15:41:02.177,-0.349289,-0.522983,0.430477,-0.647438,-0.967313,-0.167003,-0.13184,0.366248,-0.36627,-0.061017,0,0
6334,2024 8 08,15:41:02.185,-0.349267,-0.522969,0.430428,-0.647494,-0.965396,-0.169239,-0.06637,0.665956,-0.546059,-0.120984,0,0
6335,2024 8 08,15:41:02.194,-0.349248,-0.522947,0.430378,-0.647554,-0.963946,-0.181759,-0.076755,0.671209,-0.667284,-0.181072,0,0
6336,2024 8 08,15:41:02.202,-0.349238,-0.522922,0.43033,-0.647612,-0.962968,-0.187234,-0.076202,0.671378,-0.671193,-0.066703,0,0
6337,2024 8 08,15:41:02.210,-0.349226,-0.522886,0.430278,-0.647682,-0.966132,-0.184739,-0.078009,0.556797,-0.72867,-0.175972,0,0
6338,2024 8 08,15:41:02.219,-0.349209,-0.522852,0.430228,-0.647752,-0.964516,-0.182781,-0.078119,0.719262,-0.788602,-0.239033,0,0
6339,2024 8 08,15:41:02.227,-0.349207,-0.522849,0.430224,-0.647758,-0.964396,-0.182637,-0.078127,0.731261,-0.793029,-0.24369,0,0
6340,2024 8 08,15:41:02.235,-0.349192,-0.522806,0.430193,-0.647822,-0.96702,-0.185697,-0.079444,0.348244,-0.738548,-0.463558,0,0
6341,2024 8 08,15:41:02.244,-0.349171,-0.522746,0.430173,-0.647895,-0.970744,-0.186002,-0.076546,0.310069,-0.895422,-0.647776,0,0
6342,2024 8 08,15:41:02.252,-0.349144,-0.52268,0.430145,-0.647981,-0.9686,-0.181767,-0.084332,0.465864,-1.019714,-0.668417,0,0
6343,2024 8 08,15:41:02.260,-0.349108,-0.522594,0.430123,-0.648084,-0.969597,-0.179978,-0.078981,0.485196,-1.140405,-1.039419,0,0
6344,2024 8 08,15:41:02.269,-0.34907,-0.52249,0.430113,-0.648196,-0.970979,-0.182228,-0.085733,0.38396,-1.312586,-1.297521,0,0
6345,2024 8 08,15:41:02.277,-0.349064,-0.522474,0.430111,-0.648212,-0.971182,-0.182559,-0.086727,0.369058,-1.337931,-1.335515,0,0
6346,2024 8 08,15:41:02.285,-0.349036,-0.522355,0.430107,-0.648326,-0.972833,-0.183421,-0.075959,0.214967,-1.645408,-1.493262,0,0
6347,2024 8 08,15:41:02.294,-0.349014,-0.522186,0.430118,-0.648467,-0.970316,-0.184366,-0.073738,-0.160585,-2.046902,-1.819504,0,0
6348,2024 8 08,15:41:02.302,-0.348998,-0.521966,0.430139,-0.648639,-0.963554,-0.183747,-0.075311,0.018399,-2.562683,-2.075298,0,0
6349,2024 8 08,15:41:02.310,-0.349016,-0.521724,0.430171,-0.648803,-0.96227,-0.18947,-0.079115,-0.43435,-2.660666,-1.783166,0,0
6350,2024 8 08,15:41:02.319,-0.349044,-0.521485,0.430196,-0.648964,-0.957782,-0.194846,-0.086798,-0.669117,-2.728335,-1.724739,0,0
6351,2024 8 08,15:41:02.327,-0.34905,-0.521435,0.430201,-0.648997,-0.956841,-0.195973,-0.08841,-0.718367,-2.742531,-1.712482,0,0
6352,2024 8 08,15:41:02.335,-0.349076,-0.521251,0.430199,-0.649132,-0.956634,-0.191342,-0.088388,-0.541527,-2.839466,-1.334508,0,0
6353,2024 8 08,15:41:02.344,-0.349134,-0.521047,0.430199,-0.649264,-0.9577,-0.189912,-0.088754,-0.593793,-2.676228,-1.109032,0,0
6354,2024 8 08,15:41:02.352,-0.349174,-0.520866,0.430186,-0.649397,-0.960151,-0.183342,-0.084444,-0.056573,-2.270987,-1.00962,0,0
6355,2024 8 08,15:41:02.360,-0.349232,-0.520688,0.430172,-0.649518,-0.961118,-0.189328,-0.088451,-0.331501,-2.306847,-0.804022,0,0
6356,2024 8 08,15:41:02.369,-0.349292,-0.520512,0.430151,-0.649641,-0.964229,-0.189424,-0.088042,-0.356949,-2.271255,-0.841024,0,0
6357,2024 8 08,15:41:02.377,-0.349308,-0.523205,0.430874,-0.646984,-0.96505,-0.189449,-0.087934,-0.363662,-2.261866,-0.850786,0,0
6358,2024 8 08,15:41:02.385,-0.349359,-0.520336,0.430128,-0.649761,-0.960374,-0.193655,-0.090004,-0.278009,-2.215571,-0.591003,0,0
6359,2024 8 08,15:41:02.394,-0.349399,-0.520204,0.430097,-0.649865,-0.96287,-0.191028,-0.083664,-0.297261,-2.116094,-0.474957,0,0
6360,2024 8 08,15:41:02.402,-0.349451,-0.520064,0.430059,-0.649974,-0.962905,-0.189586,-0.085944,-0.046152,-2.215758,-0.441519,0,0
6361,2024 8 08,15:41:02.410,-0.349513,-0.519922,0.430022,-0.650079,-0.963592,-0.190852,-0.087972,-0.183399,-2.0337,-0.389315,0,0
6362,2024 8 08,15:41:02.419,-0.349558,-0.519793,0.42999,-0.650179,-0.963801,-0.219322,-0.044049,-0.141344,-1.811033,-0.415326,0,0
6363,2024 8 08,15:41:02.427,-0.349572,-0.519753,0.429979,-0.650211,-0.963866,-0.186527,-0.074733,-0.128268,-1.741801,-0.423413,0,0
6364,2024 8 08,15:41:02.435,-0.349626,-0.519633,0.429972,-0.650282,-0.960937,-0.190134,-0.0875,-0.247019,-1.924624,-0.507927,0,0
6365,2024 8 08,15:41:02.444,-0.349687,-0.519502,0.429949,-0.650369,-0.958362,-0.191307,-0.087761,-0.245107,-1.821928,-0.37325,0,0
6366,2024 8 08,15:41:02.452,-0.349778,-0.519337,0.429891,-0.65049,-0.956661,-0.191059,-0.087892,0.120467,-1.979056,-0.045628,0,0
6367,2024 8 08,15:41:02.460,-0.349841,-0.519245,0.429817,-0.65058,-0.956164,-0.190928,-0.091176,0.181338,-1.756705,0.152591,0,0
6368,2024 8 08,15:41:02.469,-0.349897,-0.519167,0.429735,-0.650665,-0.956491,-0.192541,-0.095815,0.334593,-1.660508,0.232319,0,0
6369,2024 8 08,15:41:02.477,-0.349944,-0.519111,0.429633,-0.650752,-0.960151,-0.183342,-0.084444,0.66304,-1.399805,0.392783,0,0
6370,2024 8 08,15:41:02.485,-0.349952,-0.519101,0.429614,-0.650768,-0.960909,-0.189502,-0.084149,0.727509,-1.346812,0.424806,0,0
6371,2024 8 08,15:41:02.494,-0.349981,-0.519081,0.429518,-0.650832,-0.963669,-0.215966,-0.035191,0.973703,-1.246436,0.572057,0,0
6372,2024 8 08,15:41:02.502,-0.349997,-0.522796,0.430981,-0.646871,-0.962409,-0.189459,-0.091367,0.983735,-0.937287,0.558977,0,0
6373,2024 8 08,15:41:02.510,-0.350001,-0.519078,0.429279,-0.650982,-0.960491,-0.187204,-0.092762,1.165294,-0.816598,0.503391,0,0
6374,2024 8 08,15:41:02.519,-0.349996,-0.519089,0.429168,-0.651048,-0.960793,-0.189948,-0.093574,1.121262,-0.703608,0.490126,0,0
6375,2024 8 08,15:41:02.527,-0.349993,-0.519108,0.429057,-0.651108,-0.960578,-0.188233,-0.08861,1.101666,-0.584293,0.579942,0,0
6376,2024 8 08,15:41:02.535,-0.349992,-0.519113,0.429028,-0.651123,-0.960493,-0.210846,-0.046097,1.099075,-0.554412,0.605921,0,0
6377,2024 8 08,15:41:02.544,-0.349979,-0.519142,0.428936,-0.651169,-0.961549,-0.191438,-0.083396,1.410169,-0.461126,0.609656,0,0
6378,2024 8 08,15:41:02.552,-0.349958,-0.51918,0.428811,-0.651232,-0.965742,-0.187717,-0.082263,1.550349,-0.520766,0.566321,0,0
6379,2024 8 08,15:41:02.560,-0.349935,-0.519208,0.428693,-0.6513,-0.973969,-0.18426,-0.086583,1.276953,-0.544212,0.335624,0,0
6380,2024 8 08,15:41:02.569,-0.34993,-0.5192,0.428578,-0.651384,-0.971356,-0.18504,-0.09078,1.524214,-1.019084,0.261453,0,0
6381,2024 8 08,15:41:02.577,-0.349921,-0.519176,0.428426,-0.651508,-0.967033,-0.184436,-0.088607,1.623271,-1.476279,0.247593,0,0
6382,2024 8 08,15:41:02.585,-0.349918,-0.519169,0.428378,-0.651547,-0.965711,-0.184161,-0.087657,1.642782,-1.612003,0.244864,0,0
6383,2024 8 08,15:41:02.594,-0.34993,-0.5192,0.428578,-0.651384,-0.968406,-0.181466,-0.082844,1.605599,-1.681291,0.244299,0,0
6384,2024 8 08,15:41:02.602,-0.349953,-0.519071,0.428141,-0.651761,-0.969122,-0.187641,-0.087604,1.265441,-1.987681,0.081305,0,0
6385,2024 8 08,15:41:02.610,-0.349983,-0.518979,0.42801,-0.651905,-0.96344,-0.184672,-0.087432,0.937151,-2.302054,-0.020895,0,0
6386,2024 8 08,15:41:02.619,-0.350051,-0.518857,0.427939,-0.652012,-0.965662,-0.188217,-0.096903,-0.125165,-2.088979,-0.170388,0,0
6387,2024 8 08,15:41:02.627,-0.350095,-0.51875,0.427851,-0.652132,-0.964378,-0.179496,-0.096651,0.843356,-2.027145,-0.185997,0,0
6388,2024 8 08,15:41:02.635,-0.350109,-0.518712,0.427818,-0.652175,-0.963664,-0.175689,-0.095956,1.30061,-2.017591,-0.18387,0,0
6389,2024 8 08,15:41:02.644,-0.350147,-0.51863,0.427778,-0.652247,-0.964092,-0.18698,-0.097617,0.537088,-1.746365,-0.260094,0,0
6390,2024 8 08,15:41:02.652,-0.350184,-0.518545,0.427707,-0.652341,-0.959748,-0.187064,-0.100172,0.498405,-1.669659,-0.102732,0,0
6391,2024 8 08,15:41:02.660,-0.350227,-0.51847,0.427634,-0.652425,-0.963542,-0.186937,-0.096359,0.422011,-1.466563,0.082913,0,0
6392,2024 8 08,15:41:02.669,-0.350266,-0.522711,0.431052,-0.646746,-0.965211,-0.189072,-0.094823,0.308538,-1.231045,0.153369,0,0
6393,2024 8 08,15:41:02.677,-0.35033,-0.522762,0.43113,-0.646619,-0.962131,-0.197363,-0.093537,-0.360341,-1.359217,0.320896,0,0
6394,2024 8 08,15:41:02.685,-0.350356,-0.518302,0.427502,-0.652577,-0.960658,-0.200996,-0.093014,-0.658323,-1.431888,0.394064,0,0
6395,2024 8 08,15:41:02.694,-0.350373,-0.518269,0.427443,-0.652632,-0.960204,-0.193782,-0.089978,0.147838,-1.418393,0.272947,0,0
6396,2024 8 08,15:41:02.702,-0.350407,-0.518215,0.427372,-0.652704,-0.96006,-0.190497,-0.092555,0.505968,-1.444117,0.283536,0,0
6397,2024 8 08,15:41:02.710,-0.350447,-0.518169,0.427288,-0.652773,-0.958888,-0.192012,-0.095411,0.440335,-1.246892,0.403474,0,0
6398,2024 8 08,15:41:02.719,-0.350473,-0.518141,0.427234,-0.652817,-0.958044,-0.193354,-0.097156,0.366837,-1.099885,0.487565,0,0
6399,2024 8 08,15:41:02.727,-0.350508,-0.51811,0.42715,-0.652877,-0.959467,-0.215328,-0.059713,0.425816,-1.098662,0.428674,0,0
6400,2024 8 08,15:41:02.735,-0.350543,-0.518079,0.427066,-0.652939,-0.957153,-0.187621,-0.099574,0.72064,-1.098634,0.427301,0,0
6401,2024 8 08,15:41:02.744,-0.350544,-0.518078,0.427062,-0.652941,-0.957065,-0.187512,-0.09961,0.7318,-1.098633,0.427249,0,0
6402,2024 8 08,15:41:02.752,-0.350587,-0.518044,0.426996,-0.652989,-0.964353,-0.169732,-0.093687,0.04877,-0.984698,0.370279,0,0
6403,2024 8 08,15:41:02.760,-0.350684,-0.517983,0.426978,-0.652996,-0.961238,-0.189225,-0.0924,0.621489,-0.75264,0.534968,0,0
6404,2024 8 08,15:41:02.769,-0.350712,-0.523111,0.431249,-0.646049,-0.958778,-0.188994,-0.095841,0.943451,-1.121711,0.714009,0,0
6405,2024 8 08,15:41:02.777,-0.350747,-0.518005,0.426741,-0.6531,-0.958989,-0.190283,-0.092228,0.973053,-0.609989,1.057864,0,0
6406,2024 8 08,15:41:02.785,-0.350766,-0.518054,0.426591,-0.653149,-0.955136,-0.186543,-0.097877,1.56805,-0.717927,1.147616,0,0
6407,2024 8 08,15:41:02.794,-0.350768,-0.518059,0.426574,-0.653155,-0.954686,-0.186106,-0.098537,1.637527,-0.730531,1.158096,0,0
6408,2024 8 08,15:41:02.802,-0.350785,-0.51812,0.426461,-0.653172,-0.960493,-0.210846,-0.046097,1.122887,-0.103857,1.211802,0,0
6409,2024 8 08,15:41:02.810,-0.350789,-0.518206,0.426318,-0.653194,-0.958414,-0.173589,-0.084297,1.463987,-0.067612,1.322659,0,0
6410,2024 8 08,15:41:02.819,-0.350864,-0.518252,0.426283,-0.65314,-0.960546,-0.202752,-0.095866,-0.217735,0.396728,1.339461,0,0
6411,2024 8 08,15:41:02.827,-0.35082,-0.518378,0.426156,-0.653147,-0.959685,-0.190584,-0.09976,1.219836,0.42189,0.989937,0,0
6412,2024 8 08,15:41:02.835,-0.350768,-0.518059,0.426574,-0.653155,-0.962318,-0.184899,-0.102025,1.071507,0.823675,0.780338,0,0
6413,2024 8 08,15:41:02.844,-0.350758,-0.518517,0.426036,-0.653148,-0.962802,-0.183855,-0.102441,1.044256,0.897492,0.74183,0,0
6414,2024 8 08,15:41:02.852,-0.35069,-0.518621,0.425987,-0.653134,-0.965996,-0.179777,-0.102134,1.281165,1.250876,0.443732,0,0
6415,2024 8 08,15:41:02.860,-0.350612,-0.518723,0.425968,-0.653107,-0.965499,-0.181242,-0.098244,0.755355,1.562118,0.048075,0,0
6416,2024 8 08,15:41:02.869,-0.350494,-0.522901,0.431252,-0.646336,-0.968795,-0.17853,-0.096657,0.643079,1.675836,-0.509003,0,0
6417,2024 8 08,15:41:02.877,-0.350342,-0.518918,0.426043,-0.653048,-0.970651,-0.173817,-0.100038,0.618043,1.93465,-1.053444,0,0
6418,2024 8 08,15:41:02.885,-0.350226,-0.518946,0.426255,-0.65295,-0.970713,-0.187855,-0.105622,-2.478899,2.409977,-1.871918,0,0
6419,2024 8 08,15:41:02.894,-0.350013,-0.518993,0.426508,-0.652861,-0.986048,-0.167897,-0.098579,-0.718303,3.208561,-2.798876,0,0
6420,2024 8 08,15:41:02.902,-0.349959,-0.519005,0.426572,-0.652839,-0.989882,-0.162906,-0.096818,-0.278075,3.408242,-3.030656,0,0
6421,2024 8 08,15:41:02.910,-0.349758,-0.518985,0.426877,-0.652763,-0.990161,-0.154131,-0.089235,-1.901588,3.638082,-4.159761,0,0
6422,2024 8 08,15:41:02.919,-0.349501,-0.518916,0.427438,-0.652588,-1.005387,-0.15813,-0.091086,-4.05283,4.668404,-5.694497,0,0
6423,2024 8 08,15:41:02.927,-0.349098,-0.518804,0.428105,-0.652456,-1.006443,-0.159928,-0.091247,-3.77405,4.603642,-7.946027,0,0
6424,2024 8 08,15:41:02.935,-0.348593,-0.518578,0.429022,-0.652303,-1.043607,0.132763,-0.018883,-6.623534,6.135658,-10.780279,0,0
6425,2024 8 08,15:41:02.944,-0.347815,-0.518248,0.430156,-0.652234,-1.028191,-0.154083,-0.068407,-5.664335,6.837313,-15.609327,0,0
6426,2024 8 08,15:41:02.952,-0.347582,-0.518149,0.430495,-0.652213,-1.023583,-0.155582,-0.052197,-5.377656,7.047019,-17.052601,0,0
6427,2024 8 08,15:41:02.960,-0.346597,-0.517866,0.431632,-0.65221,-1.074855,-0.149039,-0.08991,-3.706024,9.111853,-20.8708,0,0
6428,2024 8 08,15:41:02.969,-0.345004,-0.517368,0.433131,-0.652455,-1.070158,-0.163481,-0.077001,-2.109383,9.718493,-27.71817,0,0
6429,2024 8 08,15:41:02.977,-0.342869,-0.516784,0.43487,-0.652884,-1.100968,-0.169096,-0.089506,-0.699236,11.300505,-33.465866,0,0
6430,2024 8 08,15:41:02.985,-0.33923,-0.515796,0.437591,-0.653751,-1.142272,-0.152938,-0.106621,3.520724,12.870855,-43.720093,0,0
6431,2024 8 08,15:41:02.994,-0.335859,-0.514704,0.439798,-0.654869,-1.113301,-0.156178,-0.075644,5.47646,10.56455,-51.422714,0,0
6432,2024 8 08,15:41:03.002,-0.33534,-0.514532,0.440133,-0.655047,-1.107654,-0.157196,-0.070024,5.728445,10.146534,-52.571899,0,0
6433,2024 8 08,15:41:03.010,-0.332066,-0.513327,0.442386,-0.656139,-1.131977,-0.19701,-0.070238,3.62735,11.990939,-59.089603,0,0
6434,2024 8 08,15:41:03.019,-0.32781,-0.511735,0.445235,-0.657593,-1.162251,-0.200287,-0.054474,5.280581,11.771371,-65.69371,0,0
6435,2024 8 08,15:41:03.027,-0.323172,-0.509699,0.448352,-0.659347,-1.165677,-0.202488,-0.019071,4.385838,8.984135,-73.694695,0,0
6436,2024 8 08,15:41:03.035,-0.318348,-0.507061,0.451818,-0.661358,-1.182494,-0.227302,5.1e-05,1.760422,4.372028,-81.444077,0,0
6437,2024 8 08,15:41:03.044,-0.313253,-0.503796,0.45544,-0.663795,-1.166867,-0.247628,0.014887,3.630564,-0.724609,-88.801598,0,0
6438,2024 8 08,15:41:03.052,-0.312112,-0.503052,0.456249,-0.664349,-1.162254,-0.251896,0.018135,4.198874,-1.866325,-90.426773,0,0
6439,2024 8 08,15:41:03.060,-0.307756,-0.500178,0.459201,-0.666505,-1.157676,-0.269709,0.017764,4.49358,-1.995415,-94.574257,0,0
6440,2024 8 08,15:41:03.069,-0.302067,-0.496494,0.462859,-0.669321,-1.088095,-0.308802,0.033245,7.566727,-1.556904,-98.977905,0,0
6441,2024 8 08,15:41:03.077,-0.295697,-0.492986,0.466603,-0.67215,-1.056546,-0.344544,0.03957,11.679741,5.077667,-101.206619,0,0
6442,2024 8 08,15:41:03.085,-0.288775,-0.489846,0.470172,-0.67496,-0.982458,-0.372485,0.070178,18.36504,9.764435,-101.311432,0,0
6443,2024 8 08,15:41:03.094,-0.281272,-0.487395,0.473265,-0.677734,-0.941697,-0.374238,0.125027,27.368217,18.00535,-98.819954,0,0
6444,2024 8 08,15:41:03.102,-0.279133,-0.48673,0.474119,-0.678515,-0.931907,-0.373673,0.141367,29.991499,20.499023,-98.018684,0,0
6445,2024 8 08,15:41:03.110,-0.272934,-0.485706,0.476079,-0.680386,-0.953646,-0.364373,0.149768,36.17123,27.336676,-94.339653,0,0
6446,2024 8 08,15:41:03.119,-0.265043,-0.484901,0.478081,-0.682665,-0.994727,-0.315091,0.140439,41.973843,31.519855,-88.466492,0,0
6447,2024 8 08,15:41:03.127,-0.256915,-0.484802,0.4792,-0.685052,-1.094172,-0.157869,0.134753,52.147518,33.524277,-77.519356,0,0
6448,2024 8 08,15:41:03.135,-0.24946,-0.485059,0.478944,-0.6878,-1.08213,0.041952,0.102399,62.893951,23.784611,-63.355145,0,0
6449,2024 8 08,15:41:03.144,-0.243025,-0.485594,0.477393,-0.6908,-1.001003,0.200424,0.119043,67.522133,16.970196,-47.598206,0,0
6450,2024 8 08,15:41:03.152,-0.240924,-0.485784,0.476821,-0.691811,-0.97137,0.251006,0.12727,68.759262,14.930971,-42.280209,0,0
6451,2024 8 08,15:41:03.160,-0.237302,-0.486683,0.474811,-0.693807,-0.929162,0.290929,0.101056,68.460754,12.782604,-28.269844,0,0
6452,2024 8 08,15:41:03.169,-0.233827,-0.488387,0.471526,-0.696024,-0.910162,0.383021,0.093659,67.63031,11.5641,-6.995226,0,0
6453,2024 8 08,15:41:03.177,-0.231355,-0.490803,0.467449,-0.697897,-0.878524,0.434725,0.088895,64.299431,10.914999,10.449118,0,0
6454,2024 8 08,15:41:03.185,-0.229809,-0.493616,0.463067,-0.699342,-0.815334,0.454251,0.082217,58.480515,10.472154,21.737305,0,0
6455,2024 8 08,15:41:03.194,-0.228861,-0.496756,0.458741,-0.700281,-0.767272,0.473097,0.072987,52.498466,14.321622,28.870098,0,0
6456,2024 8 08,15:41:03.202,-0.22853,-0.497959,0.45711,-0.70061,-0.75022,0.480401,0.069367,50.245609,16.022213,31.376066,0,0
6457,2024 8 08,15:41:03.210,-0.228314,-0.500643,0.454307,-0.700587,-0.769245,0.473936,0.052355,43.238228,21.243954,36.017323,0,0
6458,2024 8 08,15:41:03.219,-0.228518,-0.504409,0.451053,-0.699918,-0.825968,0.454607,0.029926,33.524055,26.923679,42.971058,0,0
6459,2024 8 08,15:41:03.227,-0.229435,-0.508655,0.447878,-0.698579,-0.866168,0.417022,0.011829,23.39325,29.61076,50.664291,0,0
6460,2024 8 08,15:41:03.235,-0.231166,-0.51311,0.444934,-0.696626,-0.877674,0.362439,0.002228,13.16844,31.051649,58.098145,0,0
6461,2024 8 08,15:41:03.244,-0.233613,-0.517756,0.442263,-0.694064,-0.894121,0.294925,-0.006612,4.112691,33.540977,64.884506,0,0
6462,2024 8 08,15:41:03.252,-0.234672,-0.519704,0.441164,-0.692962,-0.901541,0.266087,-0.010325,0.411067,34.653488,67.676743,0,0
6463,2024 8 08,15:41:03.260,-0.235201,-0.520677,0.440616,-0.692411,-0.905247,0.251683,-0.01218,-1.437776,35.209148,69.071381,0,0
6464,2024 8 08,15:41:03.269,-0.238609,-0.525563,0.438336,-0.688991,-0.939895,0.188449,-0.000359,-8.098553,36.93491,75.014862,0,0
6465,2024 8 08,15:41:03.277,-0.24257,-0.530641,0.436051,-0.685154,-0.981044,0.131533,-0.001416,-12.43447,37.510113,81.197044,0,0
6466,2024 8 08,15:41:03.285,-0.246988,-0.535791,0.433664,-0.68107,-0.990648,0.071579,-0.003761,-15.094398,36.67284,86.581299,0,0
6467,2024 8 08,15:41:03.294,-0.251716,-0.541031,0.4311,-0.67681,-0.994824,0.01376,0.003808,-15.756758,36.908035,91.251709,0,0
6468,2024 8 08,15:41:03.302,-0.256588,-0.546413,0.428338,-0.672394,-1.005393,-0.045725,0.003451,-15.022114,37.706326,94.932655,0,0
6469,2024 8 08,15:41:03.310,-0.261482,-0.55194,0.425295,-0.66791,-1.008483,-0.09784,0.004742,-12.648748,38.488941,97.994057,0,0
6470,2024 8 08,15:41:03.319,-0.261956,-0.552476,0.425,-0.667475,-1.008783,-0.102889,0.004867,-12.418807,38.564766,98.290657,0,0
6471,2024 8 08,15:41:03.327,-0.266262,-0.557615,0.421994,-0.663387,-1.016951,-0.146687,0.010876,-9.342995,39.857548,99.821663,0,0
6472,2024 8 08,15:41:03.335,-0.270781,-0.563364,0.418503,-0.658893,-1.018787,-0.190018,0.011605,-5.854676,41.492748,100.429932,0,0
6473,2024 8 08,15:41:03.344,-0.275018,-0.56933,0.414815,-0.654324,-1.036116,-0.230793,0.010036,-2.108596,44.158585,99.833878,0,0
6474,2024 8 08,15:41:03.352,-0.27888,-0.5754,0.411017,-0.649759,-1.059183,-0.261775,0.008986,1.517186,46.240383,98.102982,0,0
6475,2024 8 08,15:41:03.360,-0.282378,-0.581471,0.407195,-0.645233,-1.066836,-0.299069,0.006388,4.16204,47.325745,95.398438,0,0
6476,2024 8 08,15:41:03.369,-0.282961,-0.582484,0.406558,-0.644478,-1.068112,-0.305288,0.005954,4.603109,47.506744,94.947411,0,0
6477,2024 8 08,15:41:03.377,-0.285541,-0.587592,0.403346,-0.640703,-1.081389,-0.33526,0.006273,6.460896,48.478058,91.308304,0,0
6478,2024 8 08,15:41:03.385,-0.288152,-0.593234,0.399839,-0.636514,-1.074119,0.178366,-0.029688,7.688222,48.123474,86.085808,0,0
6479,2024 8 08,15:41:03.394,-0.290473,-0.598813,0.396479,-0.632322,-1.058412,-0.401597,-0.010248,7.930988,49.354858,80.858994,0,0
6480,2024 8 08,15:41:03.402,-0.292546,-0.604351,0.393417,-0.627994,-1.066197,-0.42733,-0.019395,6.314928,51.895985,77.726334,0,0
6481,2024 8 08,15:41:03.410,-0.294546,-0.609788,0.390588,-0.623554,-1.094983,-0.449101,-0.026274,3.894251,52.683197,75.68174,0,0
6482,2024 8 08,15:41:03.419,-0.294999,-0.61102,0.389946,-0.622548,-1.101505,-0.454034,-0.027833,3.345705,52.861584,75.218414,0,0
6483,2024 8 08,15:41:03.427,-0.296712,-0.615145,0.387867,-0.618954,-1.105983,-0.475772,-0.037753,0.460955,49.551205,72.721146,0,0
6484,2024 8 08,15:41:03.435,-0.298788,-0.619466,0.385722,-0.61497,-1.068589,-0.51014,-0.050347,-3.376614,44.974072,67.480621,0,0
6485,2024 8 08,15:41:03.444,-0.300922,-0.623463,0.383891,-0.611023,-1.030041,-0.549715,-0.064306,-7.130597,41.705608,61.98037,0,0
6486,2024 8 08,15:41:03.452,-0.303049,-0.627099,0.382392,-0.607179,-1.013556,-0.584919,-0.071156,-10.287089,39.518944,57.568146,0,0
6487,2024 8 08,15:41:03.460,-0.305167,-0.63035,0.381112,-0.603547,-0.998928,-0.609167,-0.081777,-11.885668,35.419998,53.48156,0,0
6488,2024 8 08,15:41:03.469,-0.305756,-0.631256,0.380756,-0.602535,-0.994855,-0.615919,-0.084735,-12.330762,34.278725,52.343727,0,0
6489,2024 8 08,15:41:03.477,-0.307372,-0.633388,0.379897,-0.60001,-0.959726,-0.631918,-0.097245,-12.286715,30.47854,48.072842,0,0
6490,2024 8 08,15:41:03.485,-0.309042,-0.635618,0.379025,-0.597339,-0.925979,-0.660715,-0.093122,-10.3228,27.239935,42.151031,0,0
6491,2024 8 08,15:41:03.494,-0.310393,-0.637619,0.378291,-0.594967,-0.900354,-0.693573,-0.092884,-7.926031,23.871082,34.616024,0,0
6492,2024 8 08,15:41:03.502,-0.311228,-0.639355,0.377733,-0.593021,-0.87815,-0.721999,-0.092479,-4.320877,21.708498,26.516308,0,0
6493,2024 8 08,15:41:03.510,-0.311494,-0.640882,0.377316,-0.591499,-0.872106,-0.742168,-0.082166,0.393255,19.956116,19.270441,0,0
6494,2024 8 08,15:41:03.519,-0.311579,-0.641376,0.377181,-0.591006,-0.870149,-0.748698,-0.078827,1.919435,19.38879,16.924623,0,0
6495,2024 8 08,15:41:03.527,-0.311185,-0.642658,0.376826,-0.590047,-0.856632,-0.753617,-0.063786,6.754992,15.709352,10.479467,0,0
6496,2024 8 08,15:41:03.535,-0.310338,-0.643602,0.376525,-0.589658,-0.834395,-0.757627,-0.053758,10.517073,12.114445,4.406719,0,0
6497,2024 8 08,15:41:03.544,-0.309071,-0.644251,0.376301,-0.589756,-0.809249,-0.752213,-0.042169,14.126348,8.517199,-2.169408,0,0
6498,2024 8 08,15:41:03.552,-0.307408,-0.644619,0.3762,-0.590288,-0.795369,-0.73908,-0.027771,16.932953,5.611192,-8.685976,0,0
6499,2024 8 08,15:41:03.560,-0.305321,-0.644742,0.376263,-0.591195,-2.393322,-0.515701,-0.07509,19.930004,4.46323,-15.423195,0,0
6500,2024 8 08,15:41:03.569,-0.304908,-0.64476,0.376279,-0.591379,-2.746666,-0.466746,-0.085956,20.516937,4.287962,-16.730114,0,0
6501,2024 8 08,15:41:03.577,-0.301131,-0.6432,0.377265,-0.594372,-1.414261,-0.576791,0.367891,21.998043,-42.238461,-75.058929,0,0
6502,2024 8 08,15:41:03.585,-0.296253,-0.637437,0.376396,-0.603487,-1.211784,-0.494115,0.07674,101.350143,-90.876358,-93.796196,1,0
6503,2024 8 08,15:41:03.594,-0.291765,-0.631887,0.373095,-0.613473,-1.052234,-0.227766,0.421459,63.621819,-103.085518,-53.495747,0,0
6504,2024 8 08,15:41:03.602,-0.289018,-0.628109,0.370927,-0.619952,-1.14215,-0.095841,0.358642,46.88858,-64.479576,-36.945358,0,0
6505,2024 8 08,15:41:03.610,-0.287424,-0.624384,0.368867,-0.62566,-1.112834,0.139828,0.119338,35.887871,-77.145004,-32.824356,0,0
6506,2024 8 08,15:41:03.619,-0.287049,-0.623419,0.368333,-0.62712,-1.099204,0.205322,0.053945,33.050346,-82.617897,-32.060917,0,0
6507,2024 8 08,15:41:03.627,-0.287493,-0.618867,0.368483,-0.631313,-0.904749,0.089877,-0.007116,-4.861137,-76.229805,-41.589443,0,0
6508,2024 8 08,15:41:03.635,-0.288693,-0.614045,0.371121,-0.633923,-0.934737,-0.202229,-0.203044,-35.665428,-49.770771,-40.331985,0,0
6509,2024 8 08,15:41:03.644,-0.289982,-0.609373,0.373792,-0.63627,-0.858289,-0.203024,-0.303448,-33.335793,-45.531578,-36.015495,0,0
6510,2024 8 08,15:41:03.652,-0.29093,-0.605422,0.376165,-0.63821,-0.886002,-0.139218,-0.223898,-27.964216,-35.342602,-32.654793,0,0
6511,2024 8 08,15:41:03.660,-0.291511,-0.602078,0.378652,-0.639638,-0.929601,-0.070169,-0.06981,-28.83481,-25.53091,-33.025303,0,0
6512,2024 8 08,15:41:03.669,-0.291678,-0.601058,0.379436,-0.640062,-0.943073,-0.048489,-0.019353,-29.387791,-22.553524,-33.307919,0,0
6513,2024 8 08,15:41:03.677,-0.29218,-0.598728,0.382111,-0.640421,-0.958373,-0.095777,-0.006252,-39.509079,-17.710129,-35.736496,0,0
6514,2024 8 08,15:41:03.685,-0.292938,-0.595726,0.385918,-0.640588,-0.943706,-0.194735,-0.034592,-44.892258,-14.443899,-36.928097,0,0
6515,2024 8 08,15:41:03.694,-0.293449,-0.592838,0.389577,-0.640819,-0.934009,-0.229886,-0.040341,-37.660549,-12.489499,-34.738277,0,0
6516,2024 8 08,15:41:03.702,-0.293688,-0.590307,0.392653,-0.64117,-0.935897,-0.209981,-0.038639,-30.268215,-11.435455,-30.590332,0,0
6517,2024 8 08,15:41:03.710,-0.293828,-0.58815,0.395196,-0.641528,-0.940838,-0.20341,-0.052823,-25.025501,-9.897216,-25.936253,0,0
6518,2024 8 08,15:41:03.719,-0.294009,-0.586308,0.397276,-0.641848,-0.953782,-0.191669,-0.037875,-20.242468,-8.811367,-21.399662,0,0
6519,2024 8 08,15:41:03.727,-0.294078,-0.585647,0.398017,-0.641963,-0.958962,-0.186908,-0.030635,-18.497719,-8.44328,-19.744699,0,0
6520,2024 8 08,15:41:03.735,-0.294241,-0.584726,0.399002,-0.642116,-0.946244,-0.189808,-0.057234,-15.119111,-6.761453,-14.133369,0,0
6521,2024 8 08,15:41:03.744,-0.29441,-0.5838,0.400102,-0.642197,-0.955328,-0.156753,-0.052837,-13.600054,-3.732601,-11.817233,0,0
6522,2024 8 08,15:41:03.752,-0.294562,-0.583102,0.401237,-0.642054,-0.939966,-0.165025,-0.00486,-13.28668,0.157674,-9.312803,0,0
6523,2024 8 08,15:41:03.760,-0.294472,-0.582659,0.402485,-0.641716,-0.949988,-0.130329,0.022164,-11.650334,4.681142,-10.352994,0,0
6524,2024 8 08,15:41:03.769,-0.294212,-0.582383,0.403904,-0.641194,-0.846913,-0.175311,-0.044407,-11.91413,8.362574,-12.433725,0,0
6525,2024 8 08,15:41:03.777,-0.294098,-0.582279,0.404491,-0.640971,-0.797662,-0.199034,-0.077057,-12.153041,9.80404,-13.310688,0,0
6526,2024 8 08,15:41:03.785,-0.2936,-0.581846,0.406006,-0.640633,-0.894642,-0.212586,-0.036788,-18.328911,9.386218,-16.44832,0,0
6527,2024 8 08,15:41:03.794,-0.293247,-0.581538,0.407064,-0.640404,-0.968894,-0.220669,-0.005043,-22.80459,8.974244,-18.665583,0,0
6528,2024 8 08,15:41:03.802,-0.29256,-0.581169,0.408878,-0.639899,-1.020924,-0.140344,0.010421,-5.905048,11.603137,-18.198181,0,0
6529,2024 8 08,15:41:03.810,-0.291908,-0.581016,0.410209,-0.639483,-0.979566,-0.181606,0.080927,-7.568702,9.300319,-13.595642,0,0
6530,2024 8 08,15:41:03.819,-0.29116,-0.580724,0.411503,-0.639257,-0.975348,-0.173755,0.088476,-6.930299,5.740052,-14.596206,0,0
6531,2024 8 08,15:41:03.827,-0.290363,-0.580418,0.412623,-0.639176,-0.975141,-0.179315,0.006542,-3.812822,5.165948,-14.530809,0,0
6532,2024 8 08,15:41:03.835,-0.290313,-0.580399,0.412694,-0.639171,-0.975128,-0.179664,0.001406,-3.617418,5.129963,-14.526711,0,0
6533,2024 8 08,15:41:03.844,-0.28969,-0.580062,0.413602,-0.639172,-0.974239,-0.198789,0.009899,-3.65807,4.12789,-13.193952,0,0
6534,2024 8 08,15:41:03.852,-0.288948,-0.579829,0.414332,-0.639246,-0.96584,-0.197428,0.020727,-0.432275,4.038597,-11.48785,0,0
6535,2024 8 08,15:41:03.860,-0.288158,-0.579524,0.41512,-0.639369,-0.979235,-0.189085,0.031761,-1.561302,3.111935,-13.581164,0,0
6536,2024 8 08,15:41:03.869,-0.287308,-0.579282,0.415771,-0.639547,-0.970542,-0.202188,0.035149,2.941323,3.272388,-11.584122,0,0
6537,2024 8 08,15:41:03.877,-0.286193,-0.579212,0.416162,-0.639856,-0.98457,-0.170649,0.030115,5.452023,3.76525,-12.855282,0,0
6538,2024 8 08,15:41:03.885,-0.286039,-0.579202,0.416216,-0.639899,-0.986503,-0.166305,0.029421,5.797832,3.833134,-13.030364,0,0
6539,2024 8 08,15:41:03.894,-0.285023,-0.578906,0.416797,-0.640242,-0.989654,-0.178748,0.028091,5.133547,2.922886,-16.993601,0,0
6540,2024 8 08,15:41:03.902,-0.283761,-0.578683,0.417281,-0.640688,-0.97199,-0.208195,0.027878,6.187901,3.332245,-15.357303,0,0
6541,2024 8 08,15:41:03.910,-0.282382,-0.578421,0.417812,-0.641188,-0.964587,-0.202468,0.018275,7.464145,3.202939,-16.871111,0,0
6542,2024 8 08,15:41:03.919,-0.28095,-0.578245,0.418289,-0.641665,-0.967966,-0.188049,0.01732,7.498943,4.114054,-15.965247,0,0
6543,2024 8 08,15:41:03.927,-0.279618,-0.578036,0.418836,-0.642078,-0.970556,-0.199663,0.011308,6.194147,4.045825,-16.52021,0,0
6544,2024 8 08,15:41:03.935,-0.279349,-0.577994,0.418946,-0.642161,-0.971079,-0.202005,0.010096,5.931022,4.032067,-16.632124,0,0
6545,2024 8 08,15:41:03.944,-0.278325,-0.577843,0.41931,-0.642504,-0.968535,-0.182494,-0.005792,5.875396,3.365738,-13.717782,0,0
6546,2024 8 08,15:41:03.952,-0.277283,-0.577795,0.419551,-0.64284,-0.966101,-0.215344,0.026556,7.220763,3.405801,-10.499102,0,0
6547,2024 8 08,15:41:03.960,-0.276251,-0.577865,0.419582,-0.643201,-0.96332,-0.218671,0.019382,8.825683,3.183733,-8.32418,0,0
6548,2024 8 08,15:41:03.969,-0.275255,-0.577985,0.419468,-0.643594,-0.958632,-0.213319,-0.062199,10.306793,2.993461,-6.935256,0,0
6549,2024 8 08,15:41:03.977,-0.274193,-0.578209,0.419181,-0.644034,-0.967228,-0.209541,0.020894,12.21044,3.126978,-6.093653,0,0
6550,2024 8 08,15:41:03.985,-0.27392,-0.578266,0.419107,-0.644146,-0.969435,-0.205208,0.022756,12.699223,3.16126,-5.877562,0,0
6551,2024 8 08,15:41:03.994,-0.273085,-0.578457,0.418868,-0.644485,-0.971787,-0.204765,0.026782,12.343164,3.170352,-6.04102,0,0
6552,2024 8 08,15:41:04.002,-0.272045,-0.578669,0.418592,-0.644913,-0.968239,-0.208486,0.033122,12.11482,2.99821,-6.827894,0,0
6553,2024 8 08,15:41:04.010,-0.270934,-0.578814,0.418348,-0.645409,-0.96793,-0.213678,0.031799,12.35273,2.086308,-7.999219,0,0
6554,2024 8 08,15:41:04.019,-0.269802,-0.578896,0.418122,-0.645956,-0.971257,-0.214157,0.031757,12.122716,1.651565,-8.252872,0,0
6555,2024 8 08,15:41:04.027,-0.268708,-0.578961,0.417852,-0.646529,-0.965151,-0.186134,-0.0787,12.518917,1.015576,-7.737,0,0
6556,2024 8 08,15:41:04.035,-0.268374,-0.578981,0.417769,-0.646703,-0.96329,-0.22933,0.024688,12.639658,0.821759,-7.579789,0,0
6557,2024 8 08,15:41:04.044,-0.267486,-0.579006,0.417483,-0.647233,-0.963039,-0.229775,0.034092,13.545346,-0.065406,-7.902715,0,0
6558,2024 8 08,15:41:04.052,-0.266405,-0.57901,0.417069,-0.647942,-0.966559,-0.229918,0.03088,15.020658,-1.003128,-7.92406,0,0
6559,2024 8 08,15:41:04.060,-0.264826,-0.579007,0.416308,-0.64908,-0.967446,-0.221966,0.036897,17.224451,-2.361819,-7.565179,0,0
6560,2024 8 08,15:41:04.069,-0.263649,-0.578923,0.415657,-0.650051,-0.963576,-0.222808,0.034328,17.244602,-3.902969,-7.975812,0,0
6561,2024 8 08,15:41:04.077,-0.262341,-0.578652,0.415061,-0.651202,-0.956801,-0.194489,0.09347,19.92448,-6.189256,-11.68663,0,0
6562,2024 8 08,15:41:04.085,-0.262127,-0.578604,0.414966,-0.651391,-0.95565,-0.18922,0.104463,20.42314,-6.573579,-12.358298,0,0
6563,2024 8 08,15:41:04.094,-0.2612,-0.578425,0.414368,-0.652303,-0.970692,-0.217981,0.042195,18.012596,-6.143879,-8.9625,0,0
6564,2024 8 08,15:41:04.102,-0.260188,-0.578092,0.413721,-0.653412,-0.965287,-0.200647,0.036711,15.441876,-7.126241,-8.578466,0,0
6565,2024 8 08,15:41:04.110,-0.259244,-0.577667,0.413157,-0.654518,-0.964342,-0.228957,0.027492,15.615148,-8.134434,-8.941138,0,0
6566,2024 8 08,15:41:04.119,-0.258304,-0.577175,0.41257,-0.655693,-0.971227,-0.228495,0.019836,14.117621,-9.480181,-9.404375,0,0
6567,2024 8 08,15:41:04.127,-0.257433,-0.576574,0.412063,-0.656882,-0.981582,-0.224593,0.01564,13.768632,-9.975391,-9.742759,0,0
6568,2024 8 08,15:41:04.135,-0.256654,-0.575811,0.41167,-0.658101,-0.988863,-0.247799,0.017731,10.593678,-11.815713,-11.110697,0,0
6569,2024 8 08,15:41:04.144,-0.256469,-0.575622,0.411579,-0.658396,-0.990496,-0.254348,0.018443,9.720066,-12.311998,-11.477839,0,0
6570,2024 8 08,15:41:04.152,-0.255923,-0.574884,0.411367,-0.659385,-0.952921,-0.224632,0.01062,9.87277,-12.873508,-11.347146,0,0
6571,2024 8 08,15:41:04.160,-0.255309,-0.573997,0.411164,-0.660521,-0.946234,-0.235118,0.006128,8.382785,-12.543291,-11.389137,0,0
6572,2024 8 08,15:41:04.169,-0.25466,-0.572999,0.411055,-0.661704,-0.931526,-0.237323,0.042603,7.339744,-13.248676,-12.680119,0,0
6573,2024 8 08,15:41:04.177,-0.25402,-0.572031,0.411014,-0.662813,-0.94795,-0.247094,-0.095048,6.082135,-12.111352,-12.443902,0,0
6574,2024 8 08,15:41:04.185,-0.253348,-0.571045,0.411038,-0.663905,-0.939104,-0.231266,-0.022038,6.174127,-11.694967,-13.710829,0,0
6575,2024 8 08,15:41:04.194,-0.253146,-0.57075,0.411047,-0.66423,-0.935115,-0.229464,-0.029788,6.263995,-11.616448,-14.1673,0,0
6576,2024 8 08,15:41:04.202,-0.252583,-0.57008,0.411003,-0.665046,-0.967638,-0.224776,-0.017668,6.656635,-10.184981,-13.133604,0,0
6577,2024 8 08,15:41:04.210,-0.251814,-0.569284,0.410963,-0.666043,-0.981208,-0.230369,-0.016323,8.60622,-9.503389,-13.896208,0,0
6578,2024 8 08,15:41:04.219,-0.25081,-0.568473,0.41086,-0.667177,-0.974343,-0.204749,-0.024015,11.383246,-9.410636,-15.33753,0,0
6579,2024 8 08,15:41:04.227,-0.249688,-0.567656,0.410847,-0.668301,-0.985037,-0.230258,-0.068676,10.407683,-7.916574,-16.557446,0,0
6580,2024 8 08,15:41:04.235,-0.248291,-0.56677,0.410776,-0.669615,-0.985574,-0.22339,-0.06855,13.172207,-8.484257,-18.981052,0,0
6581,2024 8 08,15:41:04.244,-0.247792,-0.566459,0.410748,-0.670081,-0.985068,-0.21886,-0.065871,14.35957,-8.801379,-19.888556,0,0
6582,2024 8 08,15:41:04.252,-0.246596,-0.565822,0.410735,-0.671067,-0.990521,-0.212437,-0.052787,13.808631,-7.486652,-21.010645,0,0
6583,2024 8 08,15:41:04.260,-0.245009,-0.565001,0.410872,-0.672254,-1.002319,-0.22281,-0.060614,13.378859,-6.542495,-23.052452,0,0
6584,2024 8 08,15:41:04.269,-0.243176,-0.564116,0.411114,-0.673514,-1.022442,-0.226096,-0.039617,13.314477,-5.583388,-25.142572,0,0
6585,2024 8 08,15:41:04.277,-0.241127,-0.563186,0.411466,-0.674812,-1.024754,-0.243562,-0.024173,14.46953,-5.216122,-27.910549,0,0
6586,2024 8 08,15:41:04.285,-0.238825,-0.562163,0.41194,-0.676192,-1.045285,-0.252949,-0.02449,15.314107,-4.55497,-31.197981,0,0
6587,2024 8 08,15:41:04.294,-0.237913,-0.561758,0.412132,-0.676735,-1.054547,-0.255992,-0.025455,15.614689,-4.274094,-32.505291,0,0
6588,2024 8 08,15:41:04.302,-0.236005,-0.560918,0.412582,-0.677824,-1.059958,-0.252562,-0.018497,16.466814,-4.62412,-35.256832,0,0
6589,2024 8 08,15:41:04.310,-0.2334,-0.559685,0.413269,-0.679322,-1.064047,-0.254269,-0.01608,16.633474,-5.660544,-39.271172,0,0
6590,2024 8 08,15:41:04.319,-0.230438,-0.558217,0.414143,-0.681005,-1.162453,-0.220996,0.019185,16.794981,-5.980515,-42.893272,0,0
6591,2024 8 08,15:41:04.327,-0.227405,-0.556787,0.414778,-0.682805,-1.066089,-0.211912,0.092723,24.839529,-7.256111,-43.240955,0,0
6592,2024 8 08,15:41:04.335,-0.225481,-0.555888,0.415154,-0.683954,-0.984824,-0.209023,0.142515,30.696354,-8.168528,-43.15284,0,0
6593,2024 8 08,15:41:04.344,-0.221588,-0.554126,0.416903,-0.68559,-1.102819,-0.320262,-0.119903,7.995478,-1.045955,-57.297985,0,0
6594,2024 8 08,15:41:04.352,-0.221488,-0.554081,0.416949,-0.685632,-1.105861,-0.32313,-0.126669,7.410188,-0.862316,-57.662685,0,0
6595,2024 8 08,15:41:04.360,-0.217286,-0.552182,0.418873,-0.687332,-1.145663,-0.273877,-0.018054,17.133129,-0.335879,-63.617542,0,0
6596,2024 8 08,15:41:04.369,-0.212586,-0.549943,0.421179,-0.689184,-1.417877,-0.164363,0.098775,14.080971,-0.81874,-70.191925,0,0
6597,2024 8 08,15:41:04.377,-0.208245,-0.547902,0.422818,-0.69113,-1.220848,-0.21338,0.040397,30.339859,-5.836233,-65.597923,0,0
6598,2024 8 08,15:41:04.385,-0.202229,-0.544962,0.425646,-0.693498,-1.337802,-0.230611,-0.074769,12.28091,-1.55069,-93.161789,0,0
6599,2024 8 08,15:41:04.394,-0.195294,-0.541512,0.429516,-0.695794,-1.503411,-0.197827,-0.020277,17.822041,1.302169,-106.261383,0,0
6600,2024 8 08,15:41:04.402,-0.194555,-0.541145,0.429929,-0.696039,-1.521067,-0.194332,-0.014468,18.412767,1.606305,-107.657906,0,0
6601,2024 8 08,15:41:04.410,-0.188186,-0.537656,0.432828,-0.698686,-1.520198,-0.121052,0.017147,30.185379,-8.683247,-113.330826,0,0
6602,2024 8 08,15:41:04.419,-0.179791,-0.532632,0.437617,-0.701745,-1.5857,-0.164138,-0.040158,15.633625,-6.893184,-141.393372,0,0
6603,2024 8 08,15:41:04.427,-0.169297,-0.5262,0.44399,-0.705184,-1.743059,-0.115417,0.025098,17.12118,-8.906684,-176.723679,0,0
6604,2024 8 08,15:41:04.435,-0.157812,-0.518234,0.451233,-0.709125,-1.824587,-0.133989,0.064412,18.468573,-18.830193,-195.625183,0,0
6605,2024 8 08,15:41:04.444,-0.144934,-0.508337,0.459582,-0.713642,-1.879766,-0.255547,0.194603,13.016005,-29.549938,-231.169708,0,0
6606,2024 8 08,15:41:04.452,-0.14268,-0.506604,0.461043,-0.714433,-1.889426,-0.276826,0.217393,12.06154,-31.426416,-237.391724,0,0
6607,2024 8 08,15:41:04.460,-0.130195,-0.495831,0.470061,-0.718435,-1.831696,-0.285863,0.220053,3.367796,-40.291145,-266.445251,0,0
6608,2024 8 08,15:41:04.469,-0.115754,-0.481768,0.480652,-0.723403,-1.711352,-0.508442,0.061635,0.265601,-57.928001,-278.653381,0,0
6609,2024 8 08,15:41:04.477,-0.100594,-0.466051,0.491854,-0.728387,-1.682422,-0.67373,-0.011404,-1.660905,-60.78817,-292.57251,0,0
6610,2024 8 08,15:41:04.485,-0.085204,-0.449569,0.503232,-0.732901,-1.634693,-0.840595,0.001181,-5.093794,-63.714478,-295.283997,0,1
6611,2024 8 08,15:41:04.494,-0.069607,-0.432948,0.513971,-0.737079,-1.534134,-0.844515,0.124045,-1.298157,-61.715561,-292.677673,0,0
6612,2024 8 08,15:41:04.502,-0.065961,-0.429063,0.516481,-0.738055,-1.510628,-0.845431,0.152764,-0.410928,-61.248314,-292.068451,0,0
6613,2024 8 08,15:41:04.510,-0.053595,-0.415902,0.524893,-0.740596,-1.434662,-0.819442,0.109496,-3.19888,-56.447914,-282.819641,0,0
6614,2024 8 08,15:41:04.519,-0.039414,-0.40049,0.53339,-0.743856,-1.191381,-0.596287,0.170221,10.177909,-61.312565,-274.286652,0,0
6615,2024 8 08,15:41:04.527,-0.024457,-0.385038,0.541055,-0.747093,-0.929623,-0.376402,0.15649,20.103935,-50.57288,-267.976868,0,0
6616,2024 8 08,15:41:04.535,-0.008252,-0.370425,0.547726,-0.749957,-0.839659,-0.186195,0.096534,29.977886,-34.282276,-269.096375,0,0
6617,2024 8 08,15:41:04.544,0.009613,-0.356938,0.554274,-0.751653,-0.479892,-0.20695,0.50385,32.144375,-0.391983,-272.92688,0,0
6618,2024 8 08,15:41:04.552,0.02861,-0.347652,0.557668,-0.753023,-0.240613,0.034059,1.061011,72.049942,43.342552,-225.529465,0,0
6619,2024 8 08,15:41:04.560,0.034167,-0.344936,0.55866,-0.753424,-0.170628,0.104551,1.223973,83.721725,56.134254,-211.666428,0,0
6620,2024 8 08,15:41:04.569,0.045869,-0.342742,0.556685,-0.755266,-0.877353,0.028812,0.291137,105.224274,55.09536,-139.755798,0,0
6621,2024 8 08,15:41:04.577,0.054682,-0.341717,0.551502,-0.758946,-0.989599,0.439535,0.302044,112.089127,36.678108,-61.925194,0,0
6622,2024 8 08,15:41:04.585,0.058983,-0.342953,0.544593,-0.763055,-0.961068,0.599205,0.273866,104.001968,21.697607,3.506264,0,0
6623,2024 8 08,15:41:04.594,0.058746,-0.344329,0.536884,-0.767904,-0.778195,0.652602,0.176154,96.182938,-12.129091,45.970333,0,0
6624,2024 8 08,15:41:04.602,0.054817,-0.34593,0.52645,-0.774702,-0.398502,0.739055,0.167615,77.88636,-30.039001,75.029564,0,0
6625,2024 8 08,15:41:04.610,0.054206,-0.346082,0.525367,-0.775422,-0.351632,0.74883,0.173699,75.552032,-30.328089,76.445778,0,0
6626,2024 8 08,15:41:04.619,0.050536,-0.348408,0.519987,-0.778242,-0.279428,0.719335,0.147787,56.531639,-10.193737,80.748138,0,0
6627,2024 8 08,15:41:04.627,0.046031,-0.352541,0.514527,-0.780285,-0.33882,0.703682,0.119199,36.293785,8.560829,88.574654,0,0
6628,2024 8 08,15:41:04.635,0.04078,-0.358303,0.510117,-0.780846,-0.467954,0.659887,0.107806,12.824465,23.795189,100.216026,0,0
6629,2024 8 08,15:41:04.644,0.034062,-0.365329,0.506708,-0.780127,-0.570967,0.574029,0.108051,-10.176748,28.172588,116.682785,0,0
6630,2024 8 08,15:41:04.652,0.025467,-0.373104,0.504069,-0.778477,-0.605757,0.468881,0.100697,-30.474943,26.688383,134.617905,0,0
6631,2024 8 08,15:41:04.660,0.023582,-0.37478,0.503527,-0.7781,-0.611201,0.446033,0.098851,-34.722813,26.236664,138.467865,0,0
6632,2024 8 08,15:41:04.669,0.015105,-0.38171,0.501966,-0.775926,-0.607658,0.346333,0.100899,-47.374657,28.521339,151.591644,0,0
6633,2024 8 08,15:41:04.677,0.003805,-0.390948,0.500242,-0.772553,-0.620965,0.222355,0.102951,-58.945805,33.926136,166.331146,0,0
6634,2024 8 08,15:41:04.685,-0.008535,-0.401319,0.498378,-0.768377,-0.677491,0.125515,0.096544,-65.632195,41.882732,179.876083,0,0
6635,2024 8 08,15:41:04.694,-0.021509,-0.412628,0.496225,-0.763498,-0.761841,0.028489,0.090294,-68.600677,49.051674,191.836105,0,0
6636,2024 8 08,15:41:04.702,-0.03504,-0.42458,0.493502,-0.758178,-0.859609,-0.066653,0.082687,-67.676941,52.762711,203.253296,0,0
6637,2024 8 08,15:41:04.710,-0.038773,-0.427883,0.492733,-0.756703,-0.886862,-0.092666,0.080534,-67.282768,53.646721,206.373688,0,0
6638,2024 8 08,15:41:04.719,-0.049546,-0.437375,0.489828,-0.752475,-0.940436,-0.246966,-0.07302,-62.437962,53.110023,214.312164,0,0
6639,2024 8 08,15:41:04.727,-0.063314,-0.44929,0.485258,-0.747331,-0.95945,-0.228148,0.034461,-52.488827,50.866261,222.97847,0,0
6640,2024 8 08,15:41:04.735,-0.077525,-0.461882,0.479395,-0.74206,-0.988886,-0.286974,0.013414,-41.189014,52.972729,230.326706,0,0
6641,2024 8 08,15:41:04.744,-0.091558,-0.474897,0.472253,-0.736792,-1.031279,-0.317374,-0.010857,-28.367085,56.243587,236.732605,0,0
6642,2024 8 08,15:41:04.752,-0.105239,-0.488269,0.463849,-0.731531,-1.086233,-0.329978,-0.030839,-15.001338,60.051781,242.381943,0,0
6643,2024 8 08,15:41:04.760,-0.109695,-0.492656,0.461047,-0.729812,-1.10474,-0.33343,-0.037141,-10.615311,61.319748,244.19722,0,0
6644,2024 8 08,15:41:04.769,-0.119424,-0.502875,0.45372,-0.725841,-1.156013,-0.349254,-0.040195,-2.368937,64.410034,247.493851,0,0
6645,2024 8 08,15:41:04.777,-0.13145,-0.515934,0.443633,-0.720757,-1.20528,-0.360745,-0.03454,7.876214,66.37384,251.296722,0,0
6646,2024 8 08,15:41:04.785,-0.143767,-0.529737,0.43217,-0.7153,-1.245864,-0.378799,-0.032732,17.112221,68.663055,254.981796,0,0
6647,2024 8 08,15:41:04.794,-0.15583,-0.543807,0.419795,-0.709537,-1.288689,-0.394003,-0.028042,24.751757,72.135712,257.48877,0,0
6648,2024 8 08,15:41:04.802,-0.167459,-0.557993,0.406817,-0.703389,-1.340832,-0.422223,-0.021243,30.591232,76.478348,258.11142,0,0
6649,2024 8 08,15:41:04.810,-0.171767,-0.56328,0.401958,-0.70108,-1.360742,-0.433499,-0.018625,32.675781,78.134827,258.246735,0,0
6650,2024 8 08,15:41:04.819,-0.179692,-0.573536,0.392153,-0.696262,-1.38158,-0.459359,-0.008933,35.576664,80.616501,256.68103,0,0
6651,2024 8 08,15:41:04.827,-0.189263,-0.586457,0.3797,-0.689762,-1.406211,-0.503128,-0.007689,37.402973,85.964027,252.880066,0,0
6652,2024 8 08,15:41:04.835,-0.198809,-0.600063,0.366707,-0.682324,-1.439702,-0.560639,-0.014781,37.131664,92.56633,247.109085,0,0
6653,2024 8 08,15:41:04.844,-0.207911,-0.613708,0.353935,-0.674152,-1.485642,-0.624726,-0.021495,33.947807,99.333031,240.010834,0,0
6654,2024 8 08,15:41:04.852,-0.216519,-0.627115,0.341754,-0.665325,-1.53354,-0.708738,-0.022989,29.065733,104.937386,231.493698,0,0
6655,2024 8 08,15:41:04.860,-0.220038,-0.632623,0.336771,-0.661654,-1.553287,-0.74455,-0.02329,26.973082,107.17276,227.906342,0,0
6656,2024 8 08,15:41:04.869,-0.221773,-0.635339,0.334315,-0.659845,-1.563021,-0.762203,-0.023438,25.941551,108.274651,226.138016,0,0
6657,2024 8 08,15:41:04.877,-0.229557,-0.647972,0.323434,-0.650246,-1.539516,-0.89999,-0.011918,19.700142,111.156258,214.555618,0,0
6658,2024 8 08,15:41:04.885,-0.236546,-0.660113,0.31358,-0.640274,-1.481454,-1.073411,-0.001799,15.577932,116.463051,200.181396,0,0
6659,2024 8 08,15:41:04.894,-0.242514,-0.671873,0.304816,-0.629954,-1.439584,-1.236245,-0.031279,13.236631,123.381195,184.946381,0,0
6660,2024 8 08,15:41:04.902,-0.247564,-0.683214,0.297016,-0.619427,-1.418401,-1.336821,-0.094099,11.007884,127.13826,171.347534,0,0
6661,2024 8 08,15:41:04.910,-0.251957,-0.693848,0.29005,-0.609047,-1.34752,-1.397521,-0.190519,8.445181,124.424118,157.483459,0,0
6662,2024 8 08,15:41:04.919,-0.252279,-0.694626,0.289541,-0.608288,-1.342335,-1.401961,-0.197572,8.257721,124.225578,156.469315,0,0
6663,2024 8 08,15:41:04.927,-0.255703,-0.703357,0.284033,-0.599339,-1.230752,-1.451981,-0.346654,5.880538,116.521439,139.799835,0,0
6664,2024 8 08,15:41:04.935,-0.25878,-0.71161,0.279325,-0.590421,-1.123547,-1.494184,-0.512148,0.068617,108.828613,117.467491,0,0
6665,2024 8 08,15:41:04.944,-0.261166,-0.718607,0.276184,-0.58232,-0.972342,-1.543313,-0.704021,-6.132062,99.428185,91.538605,0,0
6666,2024 8 08,15:41:04.952,-0.262645,-0.72417,0.274852,-0.575357,-0.929657,-1.861208,-0.792602,-13.060201,90.946259,62.26487,0,0
6667,2024 8 08,15:41:04.960,-0.263366,-0.728754,0.275418,-0.568935,-1.04986,-2.156543,-0.708953,-18.777752,88.084747,40.586746,0,0
6668,2024 8 08,15:41:04.969,-0.263629,-0.731827,0.276754,-0.564205,-1.165944,-2.218302,-0.552688,-18.539055,59.922165,22.332047,0,0
6669,2024 8 08,15:41:04.977,-0.26367,-0.732312,0.276965,-0.563459,-1.184254,-2.228042,-0.528041,-18.501406,55.480164,19.452785,0,0
6670,2024 8 08,15:41:04.985,-0.263541,-0.732279,0.278161,-0.562974,-0.997482,-2.152142,-0.35681,-10.501252,7.468014,-2.066263,0,0
6671,2024 8 08,15:41:04.994,-0.262535,-0.730263,0.279761,-0.565262,-2.598165,-1.085294,-0.468597,-1.570558,-24.858425,-28.315203,0,0
6672,2024 8 08,15:41:05.002,-0.255203,-0.727977,0.282026,-0.570402,-1.700404,-0.772536,-0.250903,28.420341,-62.690662,-130.459366,0,0
6673,2024 8 08,15:41:05.010,-0.248196,-0.718953,0.287001,-0.582281,-1.370853,-0.429213,-0.054696,74.040512,-107.854568,-162.619629,1,0
6674,2024 8 08,15:41:05.019,-0.24085,-0.708596,0.290356,-0.596199,-1.141471,0.120464,0.973196,23.527744,-162.778244,-137.561859,0,0
6675,2024 8 08,15:41:05.027,-0.239243,-0.70633,0.29109,-0.599244,-1.091276,0.240748,1.198128,12.474141,-174.797089,-132.078522,0,0
6676,2024 8 08,15:41:05.035,-0.238206,-0.699239,0.29574,-0.605654,-1.240119,-0.023085,0.14074,-17.319439,-110.102402,-109.492516,0,0
6677,2024 8 08,15:41:05.044,-0.237588,-0.689477,0.300828,-0.61449,-1.00263,0.124419,-0.355452,-31.721844,-140.85994,-110.916748,0,0
6678,2024 8 08,15:41:05.052,-0.238164,-0.678836,0.307805,-0.622589,-0.819141,-0.16615,-0.327568,-60.679466,-104.67366,-116.386032,0,0
6679,2024 8 08,15:41:05.060,-0.23805,-0.671335,0.31677,-0.626272,-1.028858,-0.429344,-0.240579,-71.596992,-49.91431,-103.093559,0,0
6680,2024 8 08,15:41:05.069,-0.238069,-0.665021,0.324667,-0.628965,-1.015034,-0.310614,0.023848,-66.106125,-42.176945,-86.888779,0,0
6681,2024 8 08,15:41:05.077,-0.238075,-0.663306,0.326812,-0.629697,-1.011278,-0.27836,0.095683,-64.614456,-40.074986,-82.486534,0,0
6682,2024 8 08,15:41:05.085,-0.239114,-0.658903,0.33267,-0.630851,-1.025808,-0.255832,0.110587,-72.246864,-37.020035,-71.127754,0,0
6683,2024 8 08,15:41:05.094,-0.240529,-0.653772,0.339087,-0.632225,-0.968696,-0.223669,0.036119,-69.777557,-38.323917,-66.233139,0,0
6684,2024 8 08,15:41:05.102,-0.241496,-0.648315,0.345449,-0.634025,-0.962658,-0.223987,0.0026,-60.708015,-40.656586,-70.078644,0,0
6685,2024 8 08,15:41:05.110,-0.241906,-0.64273,0.351485,-0.636231,-0.937375,-0.232795,0.061457,-53.268837,-42.619923,-70.280975,0,0
6686,2024 8 08,15:41:05.119,-0.241842,-0.637499,0.356735,-0.638595,-0.994159,-0.186805,0.095975,-40.766785,-41.696644,-66.242142,0,0
6687,2024 8 08,15:41:05.127,-0.241822,-0.635837,0.358403,-0.639346,-1.012205,-0.17219,0.106945,-36.793575,-41.403221,-64.958588,0,0
6688,2024 8 08,15:41:05.135,-0.241495,-0.631948,0.361662,-0.641484,-0.986913,-0.274783,-0.03267,-30.147949,-43.863483,-63.243431,0,0
6689,2024 8 08,15:41:05.144,-0.240337,-0.625605,0.366703,-0.645274,-0.995161,-0.151,0.054989,-21.987514,-44.881149,-69.165733,0,0
6690,2024 8 08,15:41:05.152,-0.238767,-0.620389,0.371137,-0.648349,-0.954939,-0.192983,-0.001054,-24.273428,-41.72998,-76.441216,0,0
6691,2024 8 08,15:41:05.160,-0.237035,-0.614951,0.375973,-0.651371,-0.932586,-0.28114,-0.140371,-26.941006,-40.505314,-80.114502,0,0
6692,2024 8 08,15:41:05.169,-0.23498,-0.61031,0.379898,-0.654197,-0.887574,-0.344404,-0.11774,-10.542376,-32.084587,-67.256866,0,0
6693,2024 8 08,15:41:05.177,-0.234595,-0.609482,0.380592,-0.65471,-0.878631,-0.355157,-0.109056,-7.038932,-30.343607,-64.47934,0,0
6694,2024 8 08,15:41:05.185,-0.232727,-0.607216,0.382294,-0.656486,-0.884205,-0.338484,-0.220305,2.007517,-20.064362,-49.581142,0,0
6695,2024 8 08,15:41:05.194,-0.230425,-0.605487,0.383328,-0.658291,-0.93102,-0.213103,-0.019693,13.456095,-9.736225,-34.166115,0,0
6696,2024 8 08,15:41:05.202,-0.228469,-0.604447,0.384032,-0.659518,-0.945859,-0.25432,-0.001723,9.262339,-5.699294,-27.240818,0,0
6697,2024 8 08,15:41:05.210,-0.226469,-0.603537,0.384713,-0.660643,-0.947978,-0.223463,0.010224,12.874994,-3.127108,-26.586277,0,0
6698,2024 8 08,15:41:05.219,-0.224579,-0.602993,0.385076,-0.661573,-0.955185,-0.226154,0.013327,12.768008,-0.794774,-20.661781,0,0
6699,2024 8 08,15:41:05.227,-0.224113,-0.602871,0.385154,-0.661797,-0.957206,-0.228596,0.013622,12.549316,-0.21966,-18.964725,0,0
6700,2024 8 08,15:41:05.235,-0.222767,-0.602646,0.38527,-0.662388,-0.961414,-0.213985,0.022214,14.031923,0.708676,-18.053896,0,0
6701,2024 8 08,15:41:05.244,-0.221261,-0.602434,0.385363,-0.663033,-0.964074,-0.224186,0.022047,12.165353,1.026464,-14.690209,0,0
6702,2024 8 08,15:41:05.252,-0.219823,-0.602394,0.385214,-0.663633,-0.972712,-0.216699,0.037895,14.099967,1.693041,-11.397145,0,0
6703,2024 8 08,15:41:05.260,-0.218435,-0.60243,0.384942,-0.664216,-0.968955,-0.217383,0.029155,14.799237,1.689935,-10.426797,0,0
6704,2024 8 08,15:41:05.269,-0.217104,-0.60245,0.384672,-0.66479,-0.959469,-0.222828,0.014194,13.992663,1.571733,-9.90113,0,0
6705,2024 8 08,15:41:05.277,-0.216701,-0.602455,0.38459,-0.664965,-0.956405,-0.224629,0.009532,13.69059,1.535456,-9.745641,0,0
6706,2024 8 08,15:41:05.285,-0.215792,-0.602457,0.384438,-0.665347,-0.954123,-0.236879,0.017149,12.390924,1.362993,-9.424849,0,0
6707,2024 8 08,15:41:05.294,-0.214703,-0.60246,0.384241,-0.66581,-0.950441,-0.23484,0.026965,11.756188,1.259525,-8.699819,0,0
6708,2024 8 08,15:41:05.302,-0.213704,-0.602441,0.384082,-0.66624,-0.953023,-0.283292,0.068881,9.695957,0.827358,-7.556403,0,0
6709,2024 8 08,15:41:05.310,-0.212772,-0.602444,0.383921,-0.666628,-0.955817,-0.260996,0.039491,10.312752,0.504697,-6.674079,0,0
6710,2024 8 08,15:41:05.319,-0.211962,-0.602402,0.38367,-0.667069,-0.958945,-0.255465,0.037933,9.53798,-0.699219,-5.402664,0,0
6711,2024 8 08,15:41:05.327,-0.211682,-0.602384,0.383576,-0.667228,-0.960074,-0.255042,0.039484,9.166366,-1.173001,-4.930084,0,0
6712,2024 8 08,15:41:05.335,-0.211102,-0.602304,0.383266,-0.667662,-0.954529,-0.253395,0.023908,10.759653,-2.372139,-4.922082,0,0
6713,2024 8 08,15:41:05.344,-0.210354,-0.602189,0.382787,-0.668276,-0.962769,-0.246334,0.037299,12.285303,-3.240943,-4.899764,0,0
6714,2024 8 08,15:41:05.352,-0.209549,-0.602023,0.382265,-0.668977,-0.974209,-0.238882,0.034499,13.513556,-4.216578,-5.526126,0,0
6715,2024 8 08,15:41:05.360,-0.208657,-0.601705,0.381756,-0.669831,-0.971504,-0.1795,-0.003482,12.89149,-6.196437,-7.511943,0,0
6716,2024 8 08,15:41:05.369,-0.207782,-0.601209,0.38142,-0.67074,-0.95609,-0.257178,0.031953,10.926353,-7.427822,-9.166363,0,0
6717,2024 8 08,15:41:05.377,-0.206825,-0.600622,0.381052,-0.671769,-0.950235,-0.241833,0.035539,12.8831,-8.732738,-10.115988,0,0
6718,2024 8 08,15:41:05.385,-0.206435,-0.600383,0.3809,-0.67219,-0.948565,-0.233101,0.037274,13.91907,-9.269893,-10.459311,0,0
6719,2024 8 08,15:41:05.394,-0.205797,-0.599912,0.38071,-0.672913,-0.947184,-0.248555,0.019897,11.89871,-9.0482,-10.638795,0,0
6720,2024 8 08,15:41:05.402,-0.205007,-0.599318,0.380468,-0.67382,-0.986587,-0.27635,-0.02734,11.27055,-8.775346,-10.566961,0,0
6721,2024 8 08,15:41:05.410,-0.204497,-0.598934,0.380311,-0.674405,-1.015434,-0.294789,-0.059811,11.049065,-8.607248,-10.498572,0,0
6722,2024 8 08,15:41:05.419,-0.203745,-0.598146,0.380083,-0.675461,-0.957441,-0.229084,0.017718,8.542542,-9.798778,-9.06671,0,0
6723,2024 8 08,15:41:05.427,-0.20313,-0.597487,0.379866,-0.67635,-0.942038,-0.260028,0.007716,9.484629,-10.060559,-8.623303,0,0
6724,2024 8 08,15:41:05.435,-0.20251,-0.596767,0.379645,-0.677295,-0.949799,-0.236289,-0.084177,7.494402,-9.954545,-8.722583,0,0
6725,2024 8 08,15:41:05.444,-0.202478,-0.59673,0.379633,-0.677343,-0.950196,-0.244689,0.015112,7.392448,-9.949114,-8.727669,0,0
6726,2024 8 08,15:41:05.452,-0.201954,-0.596183,0.37937,-0.678129,-0.953818,-0.260373,0.000301,9.63331,-8.487895,-6.986197,0,0
6727,2024 8 08,15:41:05.460,-0.201325,-0.595579,0.379078,-0.679009,-0.978472,-0.283756,-0.027444,8.091809,-8.595029,-7.957558,0,0
6728,2024 8 08,15:41:05.469,-0.200619,-0.594956,0.378851,-0.67989,-0.940094,-0.247883,0.018079,8.824838,-8.495593,-8.91991,0,0
6729,2024 8 08,15:41:05.477,-0.199961,-0.594408,0.378763,-0.680612,-0.945585,-0.254496,-0.020704,7.231647,-6.708241,-8.912167,0,0
6730,2024 8 08,15:41:05.485,-0.199265,-0.593844,0.37875,-0.681315,-0.952172,-0.242092,-0.022658,6.196838,-5.916448,-9.920406,0,0
6731,2024 8 08,15:41:05.494,-0.199176,-0.593772,0.378748,-0.681406,-0.953015,-0.240504,-0.022909,6.06433,-5.815058,-10.049513,0,0
6732,2024 8 08,15:41:05.502,-0.198575,-0.593213,0.378965,-0.681947,-0.945274,-0.246486,-0.002677,3.564314,-6.00769,-11.773582,0,0
6733,2024 8 08,15:41:05.510,-0.197934,-0.592619,0.379285,-0.682472,-1.00084,-0.233103,-0.005745,2.319573,-4.812321,-11.574692,0,0
6734,2024 8 08,15:41:05.519,-0.197283,-0.591864,0.379703,-0.683082,-0.965526,-0.247453,0.029613,1.664736,-7.136546,-14.00997,0,0
6735,2024 8 08,15:41:05.527,-0.19655,-0.591078,0.380151,-0.683725,-0.987266,-0.276976,-0.028312,3.043006,-6.692856,-14.629416,0,0
6736,2024 8 08,15:41:05.535,-0.195747,-0.590176,0.38062,-0.684473,-0.996353,-0.27453,0.004273,2.755542,-7.495093,-15.528221,0,0
6737,2024 8 08,15:41:05.544,-0.195592,-0.590001,0.380711,-0.684618,-0.99811,-0.274057,0.010574,2.699955,-7.650219,-15.70202,0,0
6738,2024 8 08,15:41:05.552,-0.194821,-0.589192,0.381067,-0.685336,-1.016085,-0.25596,0.00611,5.561052,-9.022211,-17.2693,0,0
6739,2024 8 08,15:41:05.560,-0.193753,-0.588173,0.381394,-0.68633,-0.991918,-0.247186,0.030886,7.30548,-10.071112,-19.069155,0,0
6740,2024 8 08,15:41:05.569,-0.192515,-0.587128,0.381765,-0.687367,-0.975327,-0.260559,-0.005091,9.048505,-9.370057,-20.590906,0,0
6741,2024 8 08,15:41:05.577,-0.191042,-0.586081,0.382132,-0.688465,-0.984779,-0.265136,-0.026355,9.821746,-8.284288,-22.513176,0,0
6742,2024 8 08,15:41:05.585,-0.1893,-0.585019,0.382537,-0.689624,-1.005669,-0.274632,-0.048629,12.197819,-7.74914,-24.983397,0,0
6743,2024 8 08,15:41:05.594,-0.188866,-0.584754,0.382637,-0.689914,-1.010883,-0.277003,-0.054189,12.790836,-7.615578,-25.599913,0,0
6744,2024 8 08,15:41:05.602,-0.18716,-0.583862,0.382975,-0.690945,-1.024711,-0.272265,-0.052415,13.92461,-6.778735,-27.898714,0,0
6745,2024 8 08,15:41:05.610,-0.185348,-0.582953,0.383204,-0.692072,-0.959647,-0.328471,-0.021621,15.020142,-6.952246,-21.063866,0,0
6746,2024 8 08,15:41:05.619,-0.182519,-0.582005,0.383469,-0.693472,-1.034494,-0.260252,-0.077999,17.848587,-3.644669,-34.349396,0,0
6747,2024 8 08,15:41:05.627,-0.179291,-0.580804,0.384384,-0.694812,-1.049808,-0.300938,-0.01707,18.217825,-0.683686,-41.856731,0,0
6748,2024 8 08,15:41:05.635,-0.175842,-0.579674,0.385379,-0.696083,-1.127225,-0.307313,-0.06175,17.04664,-0.462007,-39.607311,0,0
6749,2024 8 08,15:41:05.644,-0.174813,-0.579337,0.385677,-0.696462,-1.150331,-0.309216,-0.075085,16.697081,-0.395843,-38.935936,0,0
6750,2024 8 08,15:41:05.652,-0.171395,-0.578507,0.385783,-0.697938,-1.116699,-0.205038,0.034269,34.021835,-0.876029,-50.323837,0,0
6751,2024 8 08,15:41:05.660,-0.166763,-0.577068,0.387308,-0.699399,-1.178778,-0.242369,-0.016294,22.534622,3.470778,-63.87735,0,0
6752,2024 8 08,15:41:05.669,-0.161077,-0.575541,0.389249,-0.700904,-1.284254,-0.23964,0.065154,27.42524,6.29325,-73.774857,0,0
6753,2024 8 08,15:41:05.677,-0.153468,-0.573257,0.391931,-0.703,-1.287053,-0.298083,0.055671,30.891855,2.89701,-69.712997,0,0
6754,2024 8 08,15:41:05.685,-0.146,-0.570857,0.394241,-0.705245,-1.45152,-0.187644,0.060847,32.825527,2.150123,-99.104408,0,0
6755,2024 8 08,15:41:05.694,-0.144832,-0.570481,0.394596,-0.705598,-1.480968,-0.16721,0.062919,33.131584,2.136692,-104.372421,0,0
6756,2024 8 08,15:41:05.702,-0.137888,-0.567791,0.397724,-0.70739,-1.553111,-0.237723,0.110842,34.146927,3.141592,-114.748802,0,0
6757,2024 8 08,15:41:05.710,-0.128677,-0.563879,0.401718,-0.709987,-1.60867,-0.144624,-0.006325,35.736187,-3.540399,-131.219879,0,0
6758,2024 8 08,15:41:05.719,-0.118279,-0.558668,0.406706,-0.71306,-1.675404,-0.083373,-0.010729,31.40996,-8.521419,-157.673492,0,0
6759,2024 8 08,15:41:05.727,-0.10646,-0.551875,0.413463,-0.716305,-1.846554,-0.047021,0.000456,25.804024,-14.820793,-190.157883,0,0
6760,2024 8 08,15:41:05.735,-0.093088,-0.54302,0.422137,-0.719847,-2.00263,-0.081228,0.099053,17.401068,-25.402302,-229.63504,0,0
6761,2024 8 08,15:41:05.744,-0.090079,-0.540996,0.424114,-0.720641,-2.036263,-0.091027,0.123776,15.448892,-27.879555,-238.593613,0,0
6762,2024 8 08,15:41:05.752,-0.077343,-0.531423,0.433396,-0.723646,-2.158124,-0.171464,0.258658,9.141102,-35.860703,-279.128754,0,0
6763,2024 8 08,15:41:05.760,-0.061152,-0.517348,0.446067,-0.72763,-2.068105,-0.20463,0.208458,2.958229,-59.10783,-306.421753,0,0
6764,2024 8 08,15:41:05.769,-0.045128,-0.500146,0.459938,-0.73214,-1.902138,-0.508912,0.080766,-14.193264,-86.800667,-319.677155,0,0
6765,2024 8 08,15:41:05.777,-0.028911,-0.481317,0.47453,-0.736227,-1.778549,-0.795071,-0.010283,-22.146505,-92.796448,-332.510254,0,1
6766,2024 8 08,15:41:05.785,-0.012922,-0.461839,0.489142,-0.73957,-1.634576,-1.017162,0.075118,-21.074957,-92.049225,-330.504333,0,0
6767,2024 8 08,15:41:05.794,0.003211,-0.443055,0.502667,-0.742095,-1.621507,-1.032531,0.118066,-16.922432,-79.694885,-317.913361,0,0
6768,2024 8 08,15:41:05.802,0.007912,-0.437625,0.506554,-0.742798,-1.623579,-1.028369,0.127609,-15.628639,-75.618896,-313.888062,0,0
6769,2024 8 08,15:41:05.810,0.019607,-0.424058,0.515118,-0.744487,-1.525003,-0.779144,0.157702,-3.895301,-78.924828,-300.793427,0,0
6770,2024 8 08,15:41:05.819,0.033657,-0.406573,0.524518,-0.747117,-1.122936,-0.419238,0.192366,12.487966,-88.944183,-288.578766,0,0
6771,2024 8 08,15:41:05.827,0.048042,-0.388756,0.532827,-0.749914,-0.832362,-0.165722,0.1965,21.148029,-83.037758,-277.764984,0,0
6772,2024 8 08,15:41:05.835,0.064192,-0.372679,0.540172,-0.751606,-0.320459,-0.084177,0.598963,35.567177,-40.02597,-274.542786,0,0
6773,2024 8 08,15:41:05.844,0.081654,-0.36183,0.543644,-0.75274,-0.01259,-0.007698,1.214908,68.57048,20.598499,-217.265472,0,0
6774,2024 8 08,15:41:05.852,0.087664,-0.358386,0.544635,-0.753106,0.080007,0.019323,1.432842,80.728912,41.913162,-194.890228,0,0
6775,2024 8 08,15:41:05.860,0.095778,-0.358117,0.542245,-0.753985,-0.844221,0.044467,0.537369,95.393097,55.629044,-88.671753,0,0
6776,2024 8 08,15:41:05.869,0.099407,-0.360222,0.535501,-0.757328,-1.18163,0.465048,0.448365,100.053726,28.139999,17.944344,0,0
