frame,date,time,quaternion_x,quaternion_y,quaternion_z,quaternion_w,accel_x,accel_y,accel_z,gyro_x,gyro_y,gyro_z,HS,TO
5848,2024 8 08,15:40:58.136,-0.321735,-0.64666,0.244619,-0.646899,-1.042544,-0.107783,0.049704,0.364255,0.277488,-1.024236,0,0
5849,2024 8 08,15:40:58.144,-0.321798,-0.646663,0.244514,-0.646905,-1.040099,-0.106464,0.04546,-0.116531,0.42554,-0.977105,0,0
5850,2024 8 08,15:40:58.152,-0.321845,-0.646665,0.244454,-0.646902,-1.045776,-0.124693,-0.014455,0.056326,0.308368,-0.857744,0,0
5851,2024 8 08,15:40:58.161,-0.321846,-0.646665,0.244453,-0.646902,-1.045924,-0.107912,0.04785,0.060841,0.305307,-0.854626,0,0
5852,2024 8 08,15:40:58.169,-0.321887,-0.646664,0.244369,-0.646915,-1.048697,-0.115754,0.047853,0.406936,0.362835,-1.027456,0,0
5853,2024 8 08,15:40:58.177,-0.321937,-0.646655,0.244291,-0.646928,-1.047031,-0.107093,0.049671,0.255414,0.536402,-0.923278,0,0
5854,2024 8 08,15:40:58.186,-0.321974,-0.646654,0.244201,-0.646944,-1.046469,-0.110981,0.04442,0.469029,0.49226,-0.972157,0,0
5855,2024 8 08,15:40:58.194,-0.322014,-0.646659,0.244106,-0.646955,-1.043333,-0.107324,0.045317,0.376052,0.488662,-1.031334,0,0
5856,2024 8 08,15:40:58.202,-0.322035,-0.646679,0.244018,-0.646959,-1.044778,-0.112639,0.044531,0.748215,0.107385,-0.81924,0,0
5857,2024 8 08,15:40:58.211,-0.322037,-0.646681,0.244008,-0.646959,-1.044933,-0.113207,0.044446,0.787996,0.06663,-0.796569,0,0
5858,2024 8 08,15:40:58.219,-0.322066,-0.646693,0.243953,-0.646953,-1.047915,-0.112851,0.050365,0.157504,0.220585,-0.79387,0,0
5859,2024 8 08,15:40:58.227,-0.322099,-0.646697,0.243872,-0.646963,-1.041621,-0.111551,0.046127,0.33608,0.397411,-0.897964,0,0
5860,2024 8 08,15:40:58.236,-0.322133,-0.6467,0.243798,-0.646971,-1.042786,-0.106831,0.054593,0.206927,0.319539,-0.861262,0,0
5861,2024 8 08,15:40:58.244,-0.322167,-0.646702,0.24373,-0.646978,-1.038489,-0.106919,0.045722,0.187079,0.20586,-0.804766,0,0
5862,2024 8 08,15:40:58.252,-0.322175,-0.64673,0.243662,-0.646971,-1.045011,-0.107737,0.042656,0.334405,0.036552,-0.745267,0,0
5863,2024 8 08,15:40:58.261,-0.322176,-0.646735,0.24365,-0.64697,-1.046154,-0.10788,0.042118,0.36023,0.006874,-0.734837,0,0
5864,2024 8 08,15:40:58.269,-0.322188,-0.646746,0.243582,-0.64698,-1.044017,-0.126847,0.009122,0.511823,0.246026,-0.781834,0,0
5865,2024 8 08,15:40:58.277,-0.3222,-0.646762,0.243509,-0.646985,-1.043212,-0.112246,0.045602,0.541508,0.19621,-0.694389,0,0
5866,2024 8 08,15:40:58.286,-0.322215,-0.646776,0.24345,-0.646986,-1.044574,-0.112676,0.045071,0.308966,0.090503,-0.628672,0,0
5867,2024 8 08,15:40:58.294,-0.322233,-0.646783,0.243401,-0.646988,-1.043736,-0.126726,0.013147,0.211738,0.162039,-0.567369,0,0
5868,2024 8 08,15:40:58.302,-0.322249,-0.646794,0.243359,-0.646985,-1.042057,-0.112433,0.04964,0.050132,-0.054803,-0.553591,0,0
5869,2024 8 08,15:40:58.311,-0.322253,-0.646796,0.243349,-0.646984,-1.041664,-0.112707,0.049765,0.012323,-0.105535,-0.550367,0,0
5870,2024 8 08,15:40:58.319,-0.322261,-0.646804,0.243312,-0.646987,-1.040476,-0.109498,0.044701,0.139616,0.06411,-0.458599,0,0
5871,2024 8 08,15:40:58.327,-0.322273,-0.646814,0.243281,-0.646982,-1.042336,-0.110489,0.045224,0.081724,0.016879,-0.435501,0,0
5872,2024 8 08,15:40:58.336,-0.322292,-0.646825,0.243257,-0.646971,-1.040331,-0.110391,0.052117,-0.111146,-0.173217,-0.518391,0,0
5873,2024 8 08,15:40:58.344,-0.322304,-0.646838,0.243228,-0.646963,-1.038034,-0.108607,0.049047,0.056778,-0.048494,-0.408815,0,0
5874,2024 8 08,15:40:58.352,-0.322305,-0.646853,0.243209,-0.646954,-1.040527,-0.108809,0.047154,0.059809,-0.18779,-0.29157,0,0
5875,2024 8 08,15:40:58.361,-0.322305,-0.646853,0.243209,-0.646954,-1.041237,-0.108866,0.046615,0.060672,-0.227466,-0.258175,0,0
5876,2024 8 08,15:40:58.369,-0.322301,-0.646866,0.243199,-0.646947,-1.044505,-0.095257,-0.004812,-0.024084,-0.196574,-0.163393,0,0
5877,2024 8 08,15:40:58.377,-0.3223,-0.646864,0.24319,-0.646953,-1.04616,-0.112176,0.04342,-0.007494,0.022924,-0.05084,0,0
5878,2024 8 08,15:40:58.386,-0.322303,-0.646852,0.243184,-0.646966,-1.043341,-0.111268,0.044444,-0.085574,0.132083,-0.016194,0,0
5879,2024 8 08,15:40:58.394,-0.322311,-0.646833,0.243179,-0.646982,-1.044758,-0.110652,0.047401,-0.069029,0.207637,-0.005275,0,0
5880,2024 8 08,15:40:58.402,-0.322328,-0.646808,0.243165,-0.647005,-1.04554,-0.111757,0.045096,-0.063696,0.354154,-0.083198,0,0
5881,2024 8 08,15:40:58.411,-0.322336,-0.646795,0.243158,-0.647016,-1.045928,-0.124231,0.018577,-0.061053,0.426758,-0.121811,0,0
5882,2024 8 08,15:40:58.419,-0.322337,-0.646791,0.243158,-0.647019,-1.045155,-0.111985,0.044463,-0.061036,0.411092,-0.09785,0,0
5883,2024 8 08,15:40:58.427,-0.322348,-0.646763,0.243157,-0.647042,-1.040449,-0.110199,0.047728,-0.068985,0.324968,0.055195,0,0
5884,2024 8 08,15:40:58.436,-0.322358,-0.646735,0.243155,-0.647066,-1.041167,-0.111925,0.047408,-0.127187,0.375032,0.076398,0,0
5885,2024 8 08,15:40:58.444,-0.322361,-0.646715,0.243164,-0.647081,-1.039353,-0.112579,0.04432,-0.171751,0.120046,0.168446,0,0
5886,2024 8 08,15:40:58.452,-0.322371,-0.646688,0.243174,-0.6471,-1.040379,-0.117797,0.053349,-0.1716,0.293631,0.13332,0,0
5887,2024 8 08,15:40:58.461,-0.322382,-0.646672,0.243193,-0.647103,-1.04276,-0.108881,0.04695,-0.459219,-0.028487,0.178537,0,0
5888,2024 8 08,15:40:58.469,-0.322385,-0.646668,0.243199,-0.647103,-1.043153,-0.109599,0.046848,-0.477853,-0.057632,0.182628,0,0
5889,2024 8 08,15:40:58.477,-0.322398,-0.646653,0.243231,-0.647101,-1.044603,-0.13004,0.020154,-0.455028,-0.104361,0.168475,0,0
5890,2024 8 08,15:40:58.486,-0.322412,-0.646654,0.243273,-0.647076,-1.046552,-0.110084,0.047783,-0.575928,-0.414319,0.067716,0,0
5891,2024 8 08,15:40:58.494,-0.322428,-0.646668,0.243313,-0.647039,-1.046267,-0.110793,0.042616,-0.514806,-0.642272,-0.011734,0,0
5892,2024 8 08,15:40:58.502,-0.322453,-0.646688,0.243356,-0.646991,-1.045266,-0.110914,0.04361,-0.623785,-0.739681,-0.157008,0,0
5893,2024 8 08,15:40:58.511,-0.322488,-0.646711,0.243409,-0.64693,-1.046043,-0.109088,0.045249,-0.816786,-0.900595,-0.192648,0,0
5894,2024 8 08,15:40:58.519,-0.322523,-0.646739,0.243458,-0.646867,-1.047563,-0.072644,0.019705,-0.84792,-1.013719,-0.285563,0,0
5895,2024 8 08,15:40:58.527,-0.322534,-0.646747,0.24347,-0.646849,-1.04734,-0.097448,-0.001723,-0.84655,-0.992821,-0.321731,0,0
5896,2024 8 08,15:40:58.536,-0.322573,-0.646769,0.243503,-0.646794,-1.044134,-0.109696,0.046613,-0.790537,-0.754053,-0.442488,0,0
5897,2024 8 08,15:40:58.544,-0.322611,-0.646795,0.243536,-0.646737,-1.04295,-0.112443,0.048416,-0.689283,-0.840436,-0.375308,0,0
5898,2024 8 08,15:40:58.552,-0.322648,-0.646823,0.243575,-0.646676,-1.043218,-0.1127,0.04466,-0.627326,-0.873467,-0.307302,0,0
5899,2024 8 08,15:40:58.561,-0.322673,-0.64685,0.243608,-0.646623,-1.042497,-0.114586,0.046573,-0.588568,-0.723177,-0.204604,0,0
5900,2024 8 08,15:40:58.569,-0.322685,-0.646873,0.243633,-0.646586,-1.043631,-0.112093,0.043439,-0.418233,-0.730259,-0.14138,0,0
5901,2024 8 08,15:40:58.577,-0.322689,-0.646881,0.243639,-0.646573,-1.044193,-0.111567,0.043264,-0.360116,-0.719403,-0.133011,0,0
5902,2024 8 08,15:40:58.586,-0.322696,-0.646905,0.243648,-0.646543,-1.045976,-0.106713,0.02661,-0.215361,-0.60079,-0.176656,0,0
5903,2024 8 08,15:40:58.594,-0.322702,-0.646923,0.243646,-0.646522,-1.044957,-0.128012,0.010004,-0.08906,-0.312702,-0.220448,0,0
5904,2024 8 08,15:40:58.602,-0.322704,-0.646935,0.243633,-0.646514,-1.045167,-0.111456,0.045152,0.056823,-0.072105,-0.193157,0,0
5905,2024 8 08,15:40:58.611,-0.322697,-0.646944,0.243597,-0.646522,-1.044307,-0.111347,0.046608,0.336393,0.074156,-0.215709,0,0
5906,2024 8 08,15:40:58.619,-0.32269,-0.646957,0.243552,-0.646529,-1.044071,-0.113429,0.046102,0.48851,0.151992,-0.41044,0,0
5907,2024 8 08,15:40:58.627,-0.322687,-0.646962,0.243533,-0.646533,-1.043865,-0.114064,0.045726,0.54313,0.173973,-0.442112,0,0
5908,2024 8 08,15:40:58.636,-0.322672,-0.646971,0.243485,-0.64655,-1.043335,-0.114266,0.044188,0.621213,0.197653,-0.292252,0,0
5909,2024 8 08,15:40:58.644,-0.322654,-0.646971,0.243435,-0.646578,-1.045621,-0.112849,0.04393,0.565819,0.33126,-0.191745,0,0
5910,2024 8 08,15:40:58.652,-0.322644,-0.646964,0.243379,-0.64661,-1.04512,-0.113878,0.043544,0.490236,0.480346,-0.269298,0,0
5911,2024 8 08,15:40:58.661,-0.322648,-0.646823,0.243575,-0.646676,-1.044722,-0.112396,0.044736,0.340516,0.538165,-0.282402,0,0
5912,2024 8 08,15:40:58.669,-0.322651,-0.646928,0.243285,-0.646678,-1.044877,-0.111357,0.042573,0.398566,0.627333,-0.215941,0,0
5913,2024 8 08,15:40:58.677,-0.322653,-0.64692,0.243264,-0.646694,-1.044954,-0.099167,0.019205,0.427191,0.671302,-0.183168,0,0
5914,2024 8 08,15:40:58.686,-0.322655,-0.646904,0.243235,-0.646719,-1.047353,-0.108444,0.047743,0.187337,0.3715,-0.183107,0,0
5915,2024 8 08,15:40:58.694,-0.322663,-0.646884,0.243192,-0.646751,-1.045976,-0.106713,0.02661,0.301371,0.661705,-0.301235,0,0
5916,2024 8 08,15:40:58.702,-0.322675,-0.646872,0.243137,-0.646778,-1.041278,-0.109377,0.046102,0.363177,0.380036,-0.421351,0,0
5917,2024 8 08,15:40:58.711,-0.322683,-0.646865,0.243078,-0.646803,-1.041979,-0.11213,0.046829,0.366026,0.481694,-0.426887,0,0
5918,2024 8 08,15:40:58.719,-0.322687,-0.646962,0.243533,-0.646533,-1.043376,-0.114554,0.044161,0.309711,0.431304,-0.370733,0,0
5919,2024 8 08,15:40:58.727,-0.322688,-0.646863,0.243019,-0.646825,-1.043479,-0.114732,0.043966,0.305574,0.427602,-0.366608,0,0
5920,2024 8 08,15:40:58.736,-0.322709,-0.646835,0.242983,-0.646856,-1.042171,-0.114309,0.04307,-0.024121,0.482171,-0.256472,0,0
5921,2024 8 08,15:40:58.744,-0.322735,-0.646802,0.242974,-0.646879,-1.040742,-0.127058,0.017775,-0.165104,0.487589,-0.02904,0,0
5922,2024 8 08,15:40:58.752,-0.322764,-0.646758,0.24297,-0.64691,-1.038874,-0.116669,0.041915,-0.234228,0.488194,0.049738,0,0
5923,2024 8 08,15:40:58.761,-0.32279,-0.646715,0.242991,-0.646933,-1.043277,-0.115434,0.043246,-0.506061,0.330301,0.270109,0,0
5924,2024 8 08,15:40:58.769,-0.32282,-0.646664,0.243035,-0.646952,-1.04512,-0.113878,0.043544,-0.750685,0.360867,0.351909,0,0
5925,2024 8 08,15:40:58.777,-0.322825,-0.646657,0.243041,-0.646954,-1.04539,-0.112859,0.0425,-0.786611,0.365355,0.363922,0,0
5926,2024 8 08,15:40:58.786,-0.32286,-0.646602,0.243089,-0.646973,-1.044624,-0.114022,0.042485,-0.944079,0.416662,0.365819,0,0
5927,2024 8 08,15:40:58.794,-0.322901,-0.646541,0.243144,-0.646994,-1.047691,-0.11182,0.048876,-0.920714,0.47527,0.316193,0,0
5928,2024 8 08,15:40:58.802,-0.322945,-0.646481,0.243195,-0.647012,-1.049819,-0.110636,0.050022,-0.916524,0.485782,0.208668,0,0
5929,2024 8 08,15:40:58.811,-0.322986,-0.646424,0.243226,-0.647038,-1.045938,-0.11236,0.046344,-0.67226,0.585163,0.090887,0,0
5930,2024 8 08,15:40:58.819,-0.323019,-0.646386,0.243254,-0.647048,-1.044778,-0.112639,0.044531,-0.5273,0.172194,0.019276,0,0
5931,2024 8 08,15:40:58.827,-0.323027,-0.646378,0.24326,-0.647051,-1.044535,-0.110915,0.047317,-0.496933,0.085682,0.004274,0,0
5932,2024 8 08,15:40:58.836,-0.323058,-0.646352,0.243274,-0.647056,-1.043731,-0.110109,0.048105,-0.490281,0.254444,0.000988,0,0
5933,2024 8 08,15:40:58.844,-0.323091,-0.646322,0.243286,-0.647064,-1.044289,-0.112521,0.048655,-0.488762,0.246617,-0.092498,0,0
5934,2024 8 08,15:40:58.852,-0.323128,-0.646283,0.243288,-0.647084,-1.041855,-0.111995,0.044754,-0.35094,0.428039,-0.114698,0,0
5935,2024 8 08,15:40:58.861,-0.323162,-0.646243,0.243281,-0.64711,-1.041981,-0.110778,0.046329,-0.181127,0.563308,-0.21074,0,0
5936,2024 8 08,15:40:58.869,-0.323185,-0.646217,0.243259,-0.647133,-1.042729,-0.1119,0.045298,-0.003523,0.463519,-0.235236,0,0
5937,2024 8 08,15:40:58.877,-0.323191,-0.64621,0.243253,-0.647139,-1.042926,-0.112196,0.045026,0.043285,0.437219,-0.241692,0,0
5938,2024 8 08,15:40:58.886,-0.323205,-0.646196,0.243222,-0.647157,-1.04578,-0.111576,0.046703,0.187274,0.473825,-0.287202,0,0
5939,2024 8 08,15:40:58.894,-0.323216,-0.646177,0.243179,-0.647187,-1.045194,-0.112441,0.044057,0.184319,0.52734,-0.343211,0,0
5940,2024 8 08,15:40:58.902,-0.323232,-0.646156,0.243132,-0.647217,-1.044683,-0.112348,0.04398,0.183468,0.628328,-0.359336,0,0
5941,2024 8 08,15:40:58.911,-0.323236,-0.64615,0.24309,-0.647237,-1.044532,-0.113336,0.043957,0.310188,0.319595,-0.279455,0,0
5942,2024 8 08,15:40:58.919,-0.323232,-0.646156,0.243132,-0.647217,-1.049176,-0.111626,0.048639,0.097413,0.100367,-0.213364,0,0
5943,2024 8 08,15:40:58.927,-0.32323,-0.646161,0.243052,-0.647243,-1.050618,-0.111095,0.050094,0.031305,0.032254,-0.192829,0,0
5944,2024 8 08,15:40:58.936,-0.32324,-0.646143,0.243015,-0.64727,-1.04452,-0.112893,0.047606,0.133235,0.502399,-0.309251,0,0
5945,2024 8 08,15:40:58.944,-0.323248,-0.646128,0.242968,-0.647299,-1.044159,-0.112829,0.046797,0.328594,0.452463,-0.306543,0,0
5946,2024 8 08,15:40:58.952,-0.323251,-0.64612,0.242938,-0.647316,-1.043979,-0.092487,0.008789,0.401551,0.41127,-0.288897,0,0
5947,2024 8 08,15:40:58.961,-0.323244,-0.646113,0.242896,-0.647342,-1.044041,-0.094099,0.008213,0.256535,0.324169,-0.186043,0,0
5948,2024 8 08,15:40:58.969,-0.323242,-0.646101,0.242857,-0.647371,-1.044195,-0.112522,0.048666,0.303113,0.40707,-0.191133,0,0
5949,2024 8 08,15:40:58.977,-0.323244,-0.646113,0.242896,-0.647342,-1.042608,-0.113242,0.047899,0.305059,0.310944,-0.24114,0,0
5950,2024 8 08,15:40:58.986,-0.323242,-0.646101,0.242857,-0.647371,-1.042826,-0.113466,0.047549,0.297496,0.244207,-0.236258,0,0
5951,2024 8 08,15:40:58.994,-0.323231,-0.646105,0.242779,-0.647402,-1.044594,-0.114824,0.045409,0.24105,-0.109498,-0.19512,0,0
5952,2024 8 08,15:40:59.002,-0.323227,-0.646116,0.242756,-0.6474,-1.043477,-0.115901,0.044565,0.196168,0.114564,-0.224488,0,0
5953,2024 8 08,15:40:59.011,-0.323229,-0.646111,0.242721,-0.647418,-1.042265,-0.11464,0.047611,0.216842,0.22996,-0.118579,0,0
5954,2024 8 08,15:40:59.019,-0.323227,-0.646116,0.242756,-0.6474,-1.040083,-0.113253,0.048855,0.072754,0.22067,-0.014435,0,0
5955,2024 8 08,15:40:59.027,-0.323226,-0.646098,0.242696,-0.647442,-1.041204,-0.114549,0.050216,0.009727,0.075228,0.00522,0,0
5956,2024 8 08,15:40:59.036,-0.323224,-0.646095,0.242693,-0.647447,-1.043157,-0.114721,0.051118,0.001414,0.010933,0.052923,0,0
5957,2024 8 08,15:40:59.044,-0.323224,-0.646095,0.242693,-0.647447,-1.043381,-0.115023,0.050746,-0.013698,0.001713,0.059764,0,0
5958,2024 8 08,15:40:59.052,-0.323225,-0.646083,0.242703,-0.647455,-1.043064,-0.116498,0.047635,-0.097028,-0.01345,0.081428,0,0
5959,2024 8 08,15:40:59.061,-0.323216,-0.646177,0.243179,-0.647187,-1.043066,-0.114443,0.048302,-0.067458,-0.116247,0.208325,0,0
5960,2024 8 08,15:40:59.069,-0.323204,-0.646079,0.242733,-0.647458,-1.043516,-0.113086,0.050806,-0.075636,-0.233366,0.194564,0,0
5961,2024 8 08,15:40:59.077,-0.323192,-0.646083,0.24276,-0.647449,-1.044118,-0.114989,0.047458,-0.174923,-0.352975,0.234268,0,0
5962,2024 8 08,15:40:59.086,-0.323182,-0.64609,0.242791,-0.647436,-1.043234,-0.132764,-0.013293,-0.277941,-0.45999,0.242076,0,0
5963,2024 8 08,15:40:59.094,-0.323178,-0.646093,0.242802,-0.647431,-1.042948,-0.114138,0.050375,-0.286323,-0.488538,0.250136,0,0
5964,2024 8 08,15:40:59.102,-0.323165,-0.646103,0.242835,-0.647416,-1.042388,-0.110423,0.048675,-0.213037,-0.522704,0.292611,0,0
5965,2024 8 08,15:40:59.111,-0.323151,-0.646111,0.242874,-0.6474,-1.043076,-0.113607,0.047832,-0.243045,-0.449921,0.295899,0,0
5966,2024 8 08,15:40:59.119,-0.323138,-0.646114,0.242912,-0.647389,-1.042383,-0.116009,0.047669,-0.302292,-0.414183,0.26312,0,0
5967,2024 8 08,15:40:59.127,-0.32313,-0.646109,0.242953,-0.647382,-1.042548,-0.114855,0.044121,-0.38919,-0.293712,0.331306,0,0
5968,2024 8 08,15:40:59.136,-0.323118,-0.646101,0.242998,-0.64738,-1.040725,-0.115496,0.042914,-0.372277,-0.302149,0.581606,0,0
5969,2024 8 08,15:40:59.144,-0.323114,-0.646097,0.243016,-0.647379,-1.040393,-0.115616,0.04308,-0.385877,-0.298347,0.63492,0,0
5970,2024 8 08,15:40:59.152,-0.323104,-0.646082,0.243066,-0.64738,-1.041072,-0.114964,0.045925,-0.491575,-0.253417,0.585214,0,0
5971,2024 8 08,15:40:59.161,-0.323089,-0.646061,0.243122,-0.647387,-1.040783,-0.112427,0.045025,-0.451687,-0.215144,0.646509,0,0
5972,2024 8 08,15:40:59.169,-0.323071,-0.646044,0.243188,-0.647389,-1.043327,-0.112279,0.043997,-0.494845,-0.266866,0.664009,0,0
5973,2024 8 08,15:40:59.177,-0.323057,-0.646024,0.243261,-0.647388,-1.043871,-0.113676,0.045973,-0.629158,-0.231557,0.680626,0,0
5974,2024 8 08,15:40:59.186,-0.323049,-0.646004,0.243337,-0.647384,-1.044616,-0.112063,0.044242,-0.742232,-0.366235,0.758279,0,0
5975,2024 8 08,15:40:59.194,-0.323045,-0.645997,0.243368,-0.647381,-1.044801,-0.103968,0.026699,-0.765871,-0.407775,0.776611,0,0
5976,2024 8 08,15:40:59.202,-0.323033,-0.645986,0.243435,-0.647372,-1.044442,-0.11142,0.048294,-0.685544,-0.426451,0.741284,0,0
5977,2024 8 08,15:40:59.211,-0.323014,-0.645976,0.243506,-0.647364,-1.043569,-0.113419,0.046891,-0.543049,-0.478668,0.694691,0,0
5978,2024 8 08,15:40:59.219,-0.322983,-0.645974,0.243602,-0.647347,-1.043974,-0.112317,0.044939,-0.367621,-0.609301,0.671573,0,0
5979,2024 8 08,15:40:59.227,-0.322962,-0.645968,0.243683,-0.647333,-1.043977,-0.111354,0.046354,-0.604718,-0.49109,0.790628,0,0
5980,2024 8 08,15:40:59.236,-0.322942,-0.645963,0.243767,-0.647316,-1.047265,-0.109923,0.044978,-0.551421,-0.605822,0.675916,0,0
5981,2024 8 08,15:40:59.244,-0.322941,-0.645963,0.24377,-0.647315,-1.047388,-0.10987,0.044926,-0.549426,-0.610115,0.671624,0,0
5982,2024 8 08,15:40:59.252,-0.322933,-0.645958,0.243845,-0.647296,-1.046939,-0.112147,0.043556,-0.777296,-0.553343,0.500423,0,0
5983,2024 8 08,15:40:59.261,-0.322928,-0.645951,0.243916,-0.647279,-1.042865,-0.112745,0.051105,-0.679831,-0.4373,0.545418,0,0
5984,2024 8 08,15:40:59.269,-0.322924,-0.645942,0.243983,-0.647264,-1.046089,-0.108805,0.043283,-0.561436,-0.483547,0.438219,0,0
5985,2024 8 08,15:40:59.277,-0.322928,-0.645951,0.243916,-0.647279,-1.043327,-0.112279,0.043997,-0.659774,-0.324014,0.264638,0,0
5986,2024 8 08,15:40:59.286,-0.322931,-0.645938,0.244103,-0.64722,-1.0439,-0.111782,0.042525,-0.670016,-0.57656,0.300392,0,0
5987,2024 8 08,15:40:59.294,-0.322931,-0.645938,0.244103,-0.64722,-1.043967,-0.111815,0.042063,-0.671208,-0.605956,0.304553,0,0
5988,2024 8 08,15:40:59.302,-0.322931,-0.645938,0.244103,-0.64722,-1.04188,-0.113076,0.044099,-0.461843,-0.609728,0.252708,0,0
5989,2024 8 08,15:40:59.311,-0.322924,-0.645942,0.243983,-0.647264,-1.045723,-0.102338,0.033042,-0.48423,-0.713621,0.297136,0,0
5990,2024 8 08,15:40:59.319,-0.322912,-0.645977,0.24427,-0.647127,-1.04508,-0.114028,0.043882,-0.385609,-0.780335,0.303854,0,0
5991,2024 8 08,15:40:59.327,-0.322899,-0.645998,0.244336,-0.647088,-1.041351,-0.111804,0.046755,-0.570978,-0.8415,0.304944,0,0
5992,2024 8 08,15:40:59.336,-0.322885,-0.646029,0.24441,-0.647037,-1.042297,-0.112612,0.046059,-0.55334,-1.150265,0.35483,0,0
5993,2024 8 08,15:40:59.344,-0.322882,-0.646034,0.244424,-0.647027,-1.04247,-0.11276,0.045931,-0.550105,-1.206894,0.36398,0,0
5994,2024 8 08,15:40:59.352,-0.322877,-0.646062,0.244499,-0.646974,-1.042116,-0.291256,-0.044494,-0.743307,-1.217857,0.317294,0,0
5995,2024 8 08,15:40:59.361,-0.322869,-0.646092,0.244591,-0.646912,-1.040895,-0.112376,0.041689,-0.782631,-1.220089,0.403511,0,0
5996,2024 8 08,15:40:59.369,-0.322855,-0.646123,0.244696,-0.646849,-1.044417,-0.111189,0.045329,-0.838294,-1.220565,0.611004,0,0
5997,2024 8 08,15:40:59.377,-0.322847,-0.646137,0.244801,-0.646798,-1.045202,-0.109056,0.039413,-0.944106,-0.940421,0.563796,0,0
5998,2024 8 08,15:40:59.386,-0.322844,-0.646142,0.244912,-0.646754,-1.046491,-0.110038,0.045057,-0.922496,-0.875444,0.645153,0,0
5999,2024 8 08,15:40:59.394,-0.322843,-0.646143,0.244939,-0.646743,-1.046802,-0.110275,0.046417,-0.917288,-0.859787,0.664757,0,0
6000,2024 8 08,15:40:59.402,-0.322841,-0.646144,0.245011,-0.646716,-1.044716,-0.108891,0.046035,-0.780744,-0.720633,0.53441,0,0
6001,2024 8 08,15:40:59.411,-0.322824,-0.646141,0.245083,-0.6467,-1.041324,-0.10889,0.043441,-0.522644,-0.550985,0.634421,0,0
6002,2024 8 08,15:40:59.419,-0.322808,-0.646143,0.245148,-0.646681,-1.042534,-0.111005,0.044863,-0.453781,-0.549781,0.528931,0,0
6003,2024 8 08,15:40:59.427,-0.322785,-0.646146,0.245208,-0.646666,-1.04217,-0.113329,0.042466,-0.391278,-0.549449,0.543481,0,0
6004,2024 8 08,15:40:59.435,-0.322764,-0.646758,0.24297,-0.64691,-1.043446,-0.129583,0.022864,-0.459746,-0.463195,0.63376,0,0
6005,2024 8 08,15:40:59.444,-0.322758,-0.646144,0.245292,-0.646651,-1.043817,-0.111954,0.041591,-0.479666,-0.4381,0.660027,0,0
6006,2024 8 08,15:40:59.452,-0.322742,-0.646141,0.245349,-0.64664,-1.044265,-0.110175,0.041532,-0.52776,-0.430605,0.710016,0,0
6007,2024 8 08,15:40:59.460,-0.322722,-0.646139,0.245416,-0.646627,-1.047404,-0.110298,0.040513,-0.500792,-0.470003,0.600244,0,0
6008,2024 8 08,15:40:59.469,-0.322712,-0.646132,0.245473,-0.646616,-1.044428,-0.110666,0.040523,-0.533586,-0.358608,0.442077,0,0
6009,2024 8 08,15:40:59.477,-0.322705,-0.646116,0.245528,-0.646615,-1.043473,-0.108172,0.045751,-0.421658,-0.241245,0.432159,0,0
6010,2024 8 08,15:40:59.485,-0.322699,-0.646108,0.245562,-0.646614,-1.043199,-0.107402,0.047609,-0.358164,-0.191519,0.427262,0,0
6011,2024 8 08,15:40:59.494,-0.322683,-0.646865,0.243078,-0.646803,-1.044442,-0.11142,0.048294,-0.314261,-0.251261,0.427246,0,0
6012,2024 8 08,15:40:59.502,-0.32267,-0.646094,0.245639,-0.646612,-1.044465,-0.110353,0.042025,-0.36447,-0.303369,0.427246,0,0
6013,2024 8 08,15:40:59.510,-0.322669,-0.646094,0.245646,-0.646611,-1.044465,-0.110353,0.042025,-0.350414,-0.320803,0.419389,0,0
6014,2024 8 08,15:40:59.519,-0.322659,-0.646093,0.245684,-0.646602,-1.044589,-0.112388,0.04267,-0.250732,-0.389681,0.361768,0,0
6015,2024 8 08,15:40:59.527,-0.322643,-0.646089,0.24572,-0.646601,-1.045256,-0.11318,0.041508,-0.252268,-0.21399,0.332342,0,0
6016,2024 8 08,15:40:59.535,-0.32263,-0.646084,0.245761,-0.646596,-1.044716,-0.108891,0.046035,-0.315511,-0.319628,0.459381,0,0
6017,2024 8 08,15:40:59.544,-0.322619,-0.646085,0.245812,-0.646581,-1.04551,-0.089362,-0.063931,-0.423289,-0.463707,0.360866,0,0
6018,2024 8 08,15:40:59.552,-0.322613,-0.646084,0.24586,-0.646567,-1.04372,-0.10908,0.038144,-0.480855,-0.431412,0.257478,0,0
6019,2024 8 08,15:40:59.560,-0.322613,-0.646084,0.24586,-0.646567,-1.04346,-0.109145,0.038325,-0.480133,-0.413354,0.245827,0,0
6020,2024 8 08,15:40:59.569,-0.322614,-0.646082,0.24591,-0.64655,-1.043235,-0.110551,0.040088,-0.434558,-0.327244,0.237262,0,0
6021,2024 8 08,15:40:59.577,-0.322615,-0.64608,0.245953,-0.646535,-1.044337,-0.110328,0.042348,-0.428341,-0.388441,0.20525,0,0
6022,2024 8 08,15:40:59.585,-0.322608,-0.646088,0.246004,-0.646511,-1.044799,-0.109775,0.043877,-0.441271,-0.574625,0.282164,0,0
6023,2024 8 08,15:40:59.594,-0.322603,-0.6461,0.246056,-0.646481,-1.044523,-0.108638,0.042886,-0.523908,-0.60421,0.264345,0,0
6024,2024 8 08,15:40:59.602,-0.322602,-0.646109,0.246104,-0.646454,-1.044476,-0.108445,0.043753,-0.494785,-0.60923,0.347615,0,0
6025,2024 8 08,15:40:59.610,-0.322601,-0.646113,0.24612,-0.646446,-1.044361,-0.079368,0.001524,-0.496197,-0.616796,0.355963,0,0
6026,2024 8 08,15:40:59.619,-0.322597,-0.646123,0.246169,-0.646419,-1.043508,-0.109046,0.042308,-0.525377,-0.660303,0.328642,0,0
6027,2024 8 08,15:40:59.627,-0.322585,-0.646133,0.246226,-0.646393,-1.042496,-0.108518,0.044055,-0.467625,-0.662531,0.393262,0,0
6028,2024 8 08,15:40:59.635,-0.322576,-0.646141,0.246285,-0.646367,-1.043063,-0.110654,0.043017,-0.585008,-0.621963,0.344026,0,0
6029,2024 8 08,15:40:59.644,-0.322567,-0.646143,0.246356,-0.646343,-1.042143,-0.111154,0.045444,-0.632338,-0.625722,0.454827,0,0
6030,2024 8 08,15:40:59.652,-0.322553,-0.646149,0.246416,-0.646321,-1.043535,-0.113512,0.040231,-0.52301,-0.706699,0.480216,0,0
6031,2024 8 08,15:40:59.660,-0.322548,-0.64615,0.246438,-0.646313,-1.043768,-0.113381,0.039336,-0.509343,-0.707423,0.486265,0,0
6032,2024 8 08,15:40:59.669,-0.322539,-0.646151,0.246498,-0.646294,-1.043591,-0.134733,0.020889,-0.590332,-0.584111,0.487759,0,0
6033,2024 8 08,15:40:59.677,-0.322531,-0.646149,0.246569,-0.646274,-1.045779,-0.125137,0.010179,-0.63158,-0.50785,0.506282,0,0
6034,2024 8 08,15:40:59.685,-0.322516,-0.646145,0.246636,-0.646259,-1.044923,-0.10983,0.0433,-0.527781,-0.473376,0.613921,0,0
6035,2024 8 08,15:40:59.694,-0.322499,-0.646145,0.246703,-0.646242,-1.045058,-0.109875,0.040852,-0.493581,-0.59746,0.56174,0,0
6036,2024 8 08,15:40:59.702,-0.322484,-0.646145,0.246762,-0.646227,-1.043601,-0.107794,0.04166,-0.446601,-0.520137,0.509715,0,0
6037,2024 8 08,15:40:59.710,-0.322479,-0.646143,0.246786,-0.646223,-1.043504,-0.131247,0.008537,-0.456166,-0.468922,0.512043,0,0
6038,2024 8 08,15:40:59.719,-0.322473,-0.64613,0.24684,-0.646218,-1.045066,-0.108119,0.041029,-0.588118,-0.293778,0.605284,0,0
6039,2024 8 08,15:40:59.727,-0.322464,-0.646122,0.2469,-0.646207,-1.042963,-0.135894,0.012697,-0.531008,-0.379593,0.542066,0,0
6040,2024 8 08,15:40:59.735,-0.322452,-0.64611,0.246968,-0.646199,-1.044179,-0.111264,0.040597,-0.573614,-0.376115,0.635345,0,0
6041,2024 8 08,15:40:59.744,-0.322437,-0.646099,0.247041,-0.64619,-1.043849,-0.125919,0.011264,-0.532976,-0.421491,0.694935,0,0
6042,2024 8 08,15:40:59.752,-0.322424,-0.646092,0.247113,-0.646176,-1.044582,-0.106535,0.040388,-0.624864,-0.506352,0.679302,0,0
6043,2024 8 08,15:40:59.760,-0.322418,-0.646088,0.247149,-0.646169,-1.044949,-0.105005,0.040045,-0.670737,-0.548716,0.671497,0,0
6044,2024 8 08,15:40:59.769,-0.322403,-0.646081,0.247223,-0.646155,-1.044954,-0.099167,0.019205,-0.671368,-0.371506,0.552861,0,0
6045,2024 8 08,15:40:59.777,-0.322393,-0.646066,0.247296,-0.646148,-1.043086,-0.107401,0.038007,-0.613013,-0.366442,0.666217,0,0
6046,2024 8 08,15:40:59.785,-0.322378,-0.646063,0.247367,-0.64613,-1.046686,-0.106504,0.031181,-0.495488,-0.481241,0.498562,0,0
6047,2024 8 08,15:40:59.794,-0.322374,-0.646049,0.247422,-0.646126,-1.047345,-0.105092,0.042127,-0.545466,-0.091093,0.375678,0,0
6048,2024 8 08,15:40:59.802,-0.322375,-0.646028,0.247482,-0.646123,-1.047391,-0.105887,0.041558,-0.54899,-0.231149,0.422869,0,0
6049,2024 8 08,15:40:59.810,-0.322375,-0.646028,0.247482,-0.646123,-1.047395,-0.106448,0.032716,-0.549284,-0.242869,0.426818,0,0
6050,2024 8 08,15:40:59.819,-0.322368,-0.646022,0.247536,-0.646112,-1.045658,-0.098364,0.012491,-0.440729,-0.406876,0.372907,0,0
6051,2024 8 08,15:40:59.827,-0.322365,-0.646008,0.247582,-0.64611,-1.042898,-0.126405,0.007543,-0.482444,-0.103487,0.367033,0,0
6052,2024 8 08,15:40:59.835,-0.322361,-0.646715,0.243164,-0.647081,-1.04679,-0.108412,0.044105,-0.381866,-0.330826,0.366322,0,0
6053,2024 8 08,15:40:59.844,-0.322352,-0.64599,0.247676,-0.646097,-1.044805,-0.104235,0.041052,-0.316395,-0.204717,0.366227,0,0
6054,2024 8 08,15:40:59.852,-0.322348,-0.646763,0.243157,-0.647042,-1.044108,-0.105277,0.042256,-0.35836,-0.237927,0.314798,0,0
6055,2024 8 08,15:40:59.860,-0.322347,-0.645985,0.247718,-0.646089,-1.043999,-0.105439,0.042444,-0.364887,-0.243093,0.306798,0,0
6056,2024 8 08,15:40:59.869,-0.322352,-0.64599,0.247676,-0.646097,-1.045183,-0.103863,0.03967,-0.466152,-0.193864,0.205288,0,0
6057,2024 8 08,15:40:59.877,-0.322346,-0.645977,0.247784,-0.646072,-1.04658,-0.107936,0.041157,-0.236825,-0.333501,0.187316,0,0
6058,2024 8 08,15:40:59.885,-0.322347,-0.645985,0.247718,-0.646089,-1.04567,-0.105965,0.041436,-0.193848,-0.31084,0.135118,0,0
6059,2024 8 08,15:40:59.894,-0.322347,-0.645985,0.247718,-0.646089,-1.044718,-0.07712,-0.061442,-0.281806,-0.306365,0.076586,0,0
6060,2024 8 08,15:40:59.902,-0.322354,-0.645988,0.247853,-0.646031,-1.046045,-0.106554,0.040189,-0.347675,-0.257806,0.06445,0,0
6061,2024 8 08,15:40:59.910,-0.322355,-0.645988,0.247858,-0.646029,-1.046333,-0.060695,0.069892,-0.361965,-0.247271,0.061817,0,0
6062,2024 8 08,15:40:59.919,-0.322356,-0.645986,0.247872,-0.646025,-1.047142,-0.106365,0.038933,-0.225728,-0.198396,0.014731,0,0
6063,2024 8 08,15:40:59.927,-0.322359,-0.645984,0.247882,-0.646021,-1.045495,-0.10753,0.041604,-0.239587,-0.095006,0.003643,0,0
6064,2024 8 08,15:40:59.935,-0.322376,-0.645976,0.247885,-0.64602,-1.045456,-0.108905,0.045526,-0.197571,0.066474,-0.135276,0,0
6065,2024 8 08,15:40:59.944,-0.32239,-0.645971,0.247885,-0.646018,-1.047959,-0.108176,0.039338,-0.231813,-0.027282,-0.125566,0,0
6066,2024 8 08,15:40:59.952,-0.322402,-0.645966,0.24789,-0.646015,-1.046129,-0.10834,0.043043,-0.196408,-0.051817,-0.034294,0,0
6067,2024 8 08,15:40:59.960,-0.322412,-0.646654,0.243273,-0.647076,-1.046337,-0.108384,0.043692,-0.099119,0.029287,-0.009648,0,0
6068,2024 8 08,15:40:59.969,-0.322415,-0.645958,0.247888,-0.646018,-1.046395,-0.119399,0.02178,-0.072055,0.051849,-0.002792,0,0
6069,2024 8 08,15:40:59.977,-0.322413,-0.645954,0.247887,-0.646022,-1.044353,-0.1084,0.041523,-0.021415,0.01541,0.042065,0,0
6070,2024 8 08,15:40:59.985,-0.322417,-0.645948,0.247872,-0.646033,-1.04477,-0.083517,0.005903,0.035897,0.21683,-0.114454,0,0
6071,2024 8 08,15:40:59.994,-0.322425,-0.645938,0.247859,-0.646043,-1.045232,-0.079577,-0.042996,0.011214,0.193641,-0.119691,0,0
6072,2024 8 08,15:41:00.002,-0.322436,-0.645929,0.247845,-0.646052,-1.04305,-0.108606,0.041205,0.003586,0.186474,-0.162828,0,0
6073,2024 8 08,15:41:00.010,-0.322444,-0.645923,0.247833,-0.646059,-1.043674,-0.110769,0.041407,0.001172,0.102048,-0.135396,0,0
6074,2024 8 08,15:41:00.019,-0.322446,-0.645921,0.247829,-0.646061,-1.043876,-0.111469,0.041472,0.000392,0.074733,-0.126521,0,0
6075,2024 8 08,15:41:00.027,-0.322449,-0.64592,0.247825,-0.646063,-1.044107,-0.130976,0.017656,4e-06,0.061162,-0.122112,0,0
6076,2024 8 08,15:41:00.035,-0.322456,-0.645915,0.247815,-0.646068,-1.04474,-0.107711,0.040071,-0.016102,0.061038,-0.10597,0,0
6077,2024 8 08,15:41:00.044,-0.322465,-0.645906,0.247814,-0.646072,-1.043474,-0.10878,0.040549,-0.117916,0.045177,-0.004154,0,0
6078,2024 8 08,15:41:00.052,-0.322469,-0.645903,0.247815,-0.646073,-1.043026,-0.108422,0.04264,-0.106226,-0.047542,-0.000222,0,0
6079,2024 8 08,15:41:00.060,-0.32247,-0.6459,0.247815,-0.646075,-1.042756,-0.108526,0.036831,-0.02255,-0.0109,-0.015408,0,0
6080,2024 8 08,15:41:00.069,-0.322477,-0.645899,0.247816,-0.646072,-1.041185,-0.109309,0.04382,-0.114024,-0.056982,-0.113447,0,0
6081,2024 8 08,15:41:00.077,-0.322478,-0.645899,0.247817,-0.646072,-1.041539,-0.132598,0.00696,-0.128792,-0.060654,-0.106305,0,0
6082,2024 8 08,15:41:00.085,-0.322482,-0.645895,0.247823,-0.646071,-1.044354,-0.109437,0.042836,-0.162567,-0.068367,0.003405,0,0
6083,2024 8 08,15:41:00.094,-0.322477,-0.645899,0.247816,-0.646072,-1.043103,-0.109757,0.038571,-0.065851,-0.093867,0.100674,0,0
6084,2024 8 08,15:41:00.102,-0.322474,-0.645889,0.247829,-0.646079,-1.042877,-0.109543,0.040329,-0.008631,0.033561,0.05906,0,0
6085,2024 8 08,15:41:00.110,-0.322476,-0.645884,0.247833,-0.646083,-1.044544,-0.110126,0.041089,-0.015381,-0.023506,0.03673,0,0
6086,2024 8 08,15:41:00.119,-0.322467,-0.645882,0.247848,-0.646083,-1.044065,-0.131349,0.003996,-0.105621,-0.210123,0.212162,0,0
6087,2024 8 08,15:41:00.127,-0.322465,-0.645906,0.247814,-0.646072,-1.044267,-0.109453,0.042777,-0.133129,-0.217852,0.238855,0,0
6088,2024 8 08,15:41:00.135,-0.322461,-0.645876,0.24787,-0.646084,-1.045768,-0.127221,0.013792,-0.231392,-0.088649,0.24321,0,0
6089,2024 8 08,15:41:00.144,-0.322461,-0.645876,0.24787,-0.646084,-1.044472,-0.126777,0.009286,-0.271268,-0.066189,0.230542,0,0
6090,2024 8 08,15:41:00.152,-0.322455,-0.645862,0.247914,-0.646084,-1.045251,-0.107411,0.037071,-0.151447,-0.06205,0.1368,0,0
6091,2024 8 08,15:41:00.160,-0.322451,-0.645856,0.24793,-0.646086,-1.045455,-0.104973,0.040745,-0.128149,-0.061245,0.083257,0,0
6092,2024 8 08,15:41:00.169,-0.322447,-0.645851,0.247939,-0.646089,-1.045827,-0.106129,0.042488,-0.123387,-0.061081,0.11366,0,0
6093,2024 8 08,15:41:00.177,-0.322446,-0.645921,0.247829,-0.646061,-1.045856,-0.106683,0.041992,-0.10321,-0.041888,0.120168,0,0
6094,2024 8 08,15:41:00.185,-0.322443,-0.645841,0.247943,-0.646099,-1.04554,-0.111757,0.045096,0.003427,0.06453,0.121622,0,0
6095,2024 8 08,15:41:00.194,-0.322437,-0.646099,0.247041,-0.64619,-1.045416,-0.109323,0.040923,-0.078907,-0.017856,0.128195,0,0
6096,2024 8 08,15:41:00.202,-0.322431,-0.645832,0.247954,-0.64611,-1.04517,-0.110291,0.037712,-0.032321,0.034879,0.163027,0,0
6097,2024 8 08,15:41:00.210,-0.322428,-0.646668,0.243313,-0.647039,-1.045195,-0.129308,-0.020283,-0.092457,0.009142,0.138895,0,0
6098,2024 8 08,15:41:00.219,-0.322425,-0.645938,0.247859,-0.646043,-1.041813,-0.110688,0.042609,-0.069537,0.002474,0.171143,0,0
6099,2024 8 08,15:41:00.227,-0.322424,-0.646092,0.247113,-0.646176,-1.041385,-0.110257,0.042974,-0.08126,-0.017165,0.185722,0,0
6100,2024 8 08,15:41:00.235,-0.322423,-0.645803,0.247995,-0.646127,-1.044513,-0.109075,0.037428,-0.203291,-0.111954,0.215609,0,0
6101,2024 8 08,15:41:00.244,-0.322427,-0.645791,0.248013,-0.646131,-1.046564,-0.105373,0.024312,-0.263498,0.015852,0.155468,0,0
6102,2024 8 08,15:41:00.252,-0.322436,-0.645929,0.247845,-0.646052,-1.045192,-0.108069,0.04154,-0.201673,0.095689,0.168988,0,0
6103,2024 8 08,15:41:00.260,-0.322444,-0.645923,0.247833,-0.646059,-1.045228,-0.107825,0.042963,-0.152451,0.155995,0.125234,0,0
6104,2024 8 08,15:41:00.269,-0.322455,-0.645862,0.247914,-0.646084,-1.044374,-0.106886,0.037636,-0.173372,0.174497,0.039765,0,0
6105,2024 8 08,15:41:00.277,-0.322459,-0.645724,0.248044,-0.646169,-1.04424,-0.106992,0.036007,-0.168799,0.174737,0.012915,0,0
6106,2024 8 08,15:41:00.285,-0.322466,-0.64571,0.248047,-0.646179,-1.045043,-0.109389,0.036427,-0.102312,0.139549,0.0098,0,0
6107,2024 8 08,15:41:00.294,-0.322476,-0.645884,0.247833,-0.646083,-1.04544,-0.106743,0.023377,-0.121981,0.12215,0.060803,0,0
6108,2024 8 08,15:41:00.302,-0.322492,-0.645668,0.248046,-0.646208,-1.044963,-0.107454,0.040098,-0.241712,0.181894,0.001209,0,0
6109,2024 8 08,15:41:00.310,-0.322504,-0.645649,0.248046,-0.646221,-1.044954,-0.099167,0.019205,-0.067314,0.183063,4.2e-05,0,0
6110,2024 8 08,15:41:00.319,-0.322515,-0.645635,0.24806,-0.646224,-1.047275,-0.106682,0.035583,-0.293478,-0.049031,0.058036,0,0
6111,2024 8 08,15:41:00.327,-0.322516,-0.646145,0.246636,-0.646259,-1.047388,-0.10987,0.044926,-0.304437,-0.060277,0.060846,0,0
6112,2024 8 08,15:41:00.335,-0.322526,-0.64563,0.248079,-0.646217,-1.045591,-0.091817,0.010334,-0.305119,-0.173675,0.004672,0,0
6113,2024 8 08,15:41:00.344,-0.322541,-0.645622,0.2481,-0.646209,-1.045456,-0.108905,0.045526,-0.416256,-0.071171,0.00042,0,0
6114,2024 8 08,15:41:00.352,-0.322556,-0.645627,0.248118,-0.64619,-1.044567,-0.107917,0.04061,-0.316597,-0.335875,-0.109476,0,0
6115,2024 8 08,15:41:00.360,-0.322565,-0.645638,0.248135,-0.646168,-1.047069,-0.10705,0.044426,-0.306493,-0.362713,-0.120618,0,0
6116,2024 8 08,15:41:00.369,-0.322579,-0.645644,0.248152,-0.646148,-1.045223,-0.105673,0.039747,-0.305344,-0.312508,-0.175142,0,0
6117,2024 8 08,15:41:00.377,-0.32258,-0.645645,0.248154,-0.646146,-1.044991,-0.1055,0.039159,-0.305199,-0.306197,-0.181997,0,0
6118,2024 8 08,15:41:00.385,-0.322597,-0.646123,0.246169,-0.646419,-1.042471,-0.109623,0.039493,-0.460685,-0.357165,-0.131103,0,0
6119,2024 8 08,15:41:00.394,-0.322615,-0.64608,0.245953,-0.646535,-1.045779,-0.125137,0.010179,-0.228052,-0.364746,-0.174685,0,0
6120,2024 8 08,15:41:00.402,-0.322637,-0.645679,0.248194,-0.646067,-1.044289,-0.112521,0.048655,-0.342334,-0.315471,-0.232137,0,0
6121,2024 8 08,15:41:00.410,-0.322649,-0.645691,0.248197,-0.646049,-1.044034,-0.106852,0.038613,-0.212314,-0.307064,-0.1921,0,0
6122,2024 8 08,15:41:00.419,-0.322654,-0.646971,0.243435,-0.646578,-1.044382,-0.107314,0.038189,-0.090351,-0.256335,-0.037227,0,0
6123,2024 8 08,15:41:00.427,-0.322665,-0.645701,0.248208,-0.646026,-1.044448,-0.099198,0.048081,-0.115603,-0.052261,-0.00759,0,0
6124,2024 8 08,15:41:00.435,-0.322668,-0.645701,0.248209,-0.646025,-1.044462,-0.111156,0.040894,-0.120688,-0.011169,-0.001622,0,0
6125,2024 8 08,15:41:00.444,-0.322669,-0.646094,0.245646,-0.646611,-1.044085,-0.109017,0.039093,-0.074357,-0.097304,-0.000362,0,0
6126,2024 8 08,15:41:00.452,-0.322672,-0.646971,0.243485,-0.64655,-1.045876,-0.10892,0.038321,-0.017302,0.16469,0.046749,0,0
6127,2024 8 08,15:41:00.460,-0.322679,-0.645676,0.248198,-0.646048,-1.046287,-0.110008,0.040735,-0.004184,0.224927,-0.081244,0,0
6128,2024 8 08,15:41:00.469,-0.322684,-0.64566,0.248177,-0.64607,-1.042727,-0.129457,0.006473,0.13614,0.376512,-0.020373,0,0
6129,2024 8 08,15:41:00.477,-0.322687,-0.646962,0.243533,-0.646533,-1.042207,-0.106319,0.041152,0.125721,0.368884,-0.005287,0,0
6130,2024 8 08,15:41:00.485,-0.322687,-0.646962,0.243533,-0.646533,-1.042073,-0.106056,0.041768,0.123049,0.366927,-0.001417,0,0
6131,2024 8 08,15:41:00.494,-0.322689,-0.646881,0.243639,-0.646573,-1.044158,-0.107754,0.038398,0.078172,0.410578,-0.000392,0,0
6132,2024 8 08,15:41:00.502,-0.322692,-0.645611,0.248109,-0.646141,-1.047522,-0.107868,0.039922,0.022238,0.291488,-0.087456,0,0
6133,2024 8 08,15:41:00.510,-0.322697,-0.646944,0.243597,-0.646522,-1.045359,-0.105795,0.023682,0.04969,0.387546,-0.111948,0,0
6134,2024 8 08,15:41:00.519,-0.322704,-0.646935,0.243633,-0.646514,-1.044392,-0.109587,0.039121,0.10034,0.415327,-0.161743,0,0
6135,2024 8 08,15:41:00.527,-0.322706,-0.645565,0.248019,-0.646215,-1.046133,-0.110119,0.039757,0.284367,0.423577,-0.134283,0,0
6136,2024 8 08,15:41:00.535,-0.322706,-0.645565,0.248019,-0.646215,-1.046663,-0.11028,0.039951,0.340407,0.426089,-0.125921,0,0
6137,2024 8 08,15:41:00.544,-0.32271,-0.645552,0.24798,-0.64624,-1.046497,-0.11,0.041665,0.275194,0.34418,-0.123312,0,0
6138,2024 8 08,15:41:00.552,-0.322702,-0.646923,0.243646,-0.646522,-1.044481,-0.108601,0.040249,0.172557,0.318036,-0.040658,0,0
6139,2024 8 08,15:41:00.560,-0.322706,-0.645565,0.248019,-0.646215,-1.043499,-0.110088,0.036872,0.058101,0.228537,-0.01369,0,0
6140,2024 8 08,15:41:00.569,-0.322709,-0.646835,0.242983,-0.646856,-1.042878,-0.110832,0.036029,-0.015368,0.15129,-0.000209,0,0
6141,2024 8 08,15:41:00.577,-0.322716,-0.645532,0.247928,-0.646277,-1.041922,-0.110779,0.040699,-0.110839,-0.046608,-6e-06,0,0
6142,2024 8 08,15:41:00.585,-0.322723,-0.645528,0.247929,-0.646278,-1.041087,-0.110374,0.036805,-0.063267,-0.002089,-0.0,0,0
6143,2024 8 08,15:41:00.594,-0.322725,-0.645526,0.247931,-0.646278,-1.041422,-0.110605,0.037068,-0.092232,-0.007889,0.007766,0,0
6144,2024 8 08,15:41:00.602,-0.322736,-0.645515,0.247947,-0.646277,-1.043853,-0.111695,0.039579,-0.282048,-0.080132,0.049511,0,0
6145,2024 8 08,15:41:00.610,-0.32274,-0.645514,0.247964,-0.64627,-1.044413,-0.108625,0.038457,-0.239857,-0.199865,0.011801,0,0
6146,2024 8 08,15:41:00.619,-0.322746,-0.645505,0.24798,-0.64627,-1.04452,-0.112893,0.047606,-0.181284,-0.019775,0.0636,0,0
6147,2024 8 08,15:41:00.627,-0.322752,-0.645494,0.247994,-0.646273,-1.044847,-0.128732,0.01789,-0.143339,0.005127,0.100885,0,0
6148,2024 8 08,15:41:00.635,-0.322763,-0.645485,0.248002,-0.646272,-1.044513,-0.109075,0.037428,-0.231665,0.054116,0.012486,0,0
6149,2024 8 08,15:41:00.644,-0.322766,-0.645483,0.248005,-0.646272,-1.044586,-0.143089,-0.021705,-0.256714,0.052963,0.01596,0,0
6150,2024 8 08,15:41:00.652,-0.322777,-0.645472,0.248022,-0.646271,-1.045091,-0.110034,0.038141,-0.357124,0.000762,0.099407,0,0
6151,2024 8 08,15:41:00.660,-0.322792,-0.645458,0.248044,-0.646269,-1.043798,-0.110848,0.039739,-0.423073,-0.044294,0.067119,0,0
6152,2024 8 08,15:41:00.669,-0.322813,-0.64544,0.24807,-0.646267,-1.044002,-0.109277,0.039825,-0.484081,-0.02807,0.075774,0,0
6153,2024 8 08,15:41:00.677,-0.322831,-0.645424,0.248105,-0.64626,-1.044598,-0.10936,0.039017,-0.544325,-0.134868,0.156996,0,0
6154,2024 8 08,15:41:00.685,-0.322851,-0.678503,0.256467,-0.607946,-1.046072,-0.109375,0.04024,-0.597763,-0.025713,0.128729,0,0
6155,2024 8 08,15:41:00.694,-0.322858,-0.645401,0.248144,-0.646255,-1.046243,-0.109589,0.040101,-0.601228,0.001431,0.110217,0,0
6156,2024 8 08,15:41:00.702,-0.322883,-0.64538,0.24817,-0.646253,-1.045403,-0.110704,0.03821,-0.553743,0.061501,0.023227,0,0
6157,2024 8 08,15:41:00.710,-0.322915,-0.645349,0.248195,-0.646258,-1.044116,-0.109341,0.04047,-0.50271,0.143435,0.011553,0,0
6158,2024 8 08,15:41:00.719,-0.322947,-0.64532,0.248221,-0.646261,-1.044832,-0.109116,0.039214,-0.466174,0.099042,0.017883,0,0
6159,2024 8 08,15:41:00.727,-0.322976,-0.645296,0.248231,-0.646267,-1.043117,-0.107759,0.040265,-0.284662,0.196893,-0.17522,0,0
6160,2024 8 08,15:41:00.735,-0.322997,-0.645279,0.248228,-0.646274,-1.04303,-0.109344,0.04083,-0.162403,0.140631,-0.181149,0,0
6161,2024 8 08,15:41:00.744,-0.323004,-0.645275,0.248227,-0.646276,-1.043155,-0.109585,0.041411,-0.132429,0.108438,-0.17647,0,0
6162,2024 8 08,15:41:00.752,-0.323017,-0.645269,0.248224,-0.646276,-1.043875,-0.132315,-0.048732,-0.12482,-0.016052,-0.142572,0,0
6163,2024 8 08,15:41:00.760,-0.323029,-0.645268,0.248218,-0.646273,-1.042675,-0.110231,0.041714,-0.110837,-0.042725,-0.172007,0,0
6164,2024 8 08,15:41:00.769,-0.323035,-0.645271,0.248212,-0.64627,-1.043164,-0.110064,0.040417,-0.043108,-0.017974,-0.162199,0,0
6165,2024 8 08,15:41:00.777,-0.32304,-0.645273,0.248211,-0.646266,-1.042795,-0.11043,0.039738,-0.09331,-0.054406,-0.041182,0,0
6166,2024 8 08,15:41:00.785,-0.323043,-0.645276,0.248209,-0.646261,-1.043282,-0.109349,0.041322,-0.070649,-0.101916,0.030589,0,0
6167,2024 8 08,15:41:00.794,-0.323044,-0.645277,0.248211,-0.64626,-1.043472,-0.109168,0.041696,-0.09836,-0.110181,0.063196,0,0
6168,2024 8 08,15:41:00.802,-0.323047,-0.645271,0.248226,-0.646258,-1.044136,-0.104789,0.024122,-0.324296,-0.087758,0.145571,0,0
6169,2024 8 08,15:41:00.810,-0.323054,-0.645262,0.24825,-0.646254,-1.045992,-0.120561,0.102809,-0.377438,-0.141342,0.159863,0,0
6170,2024 8 08,15:41:00.819,-0.323062,-0.645256,0.248273,-0.646248,-1.044309,-0.10378,0.000424,-0.271154,-0.08179,0.087857,0,0
6171,2024 8 08,15:41:00.827,-0.32307,-0.645249,0.248283,-0.646247,-1.043939,-0.10852,0.042585,-0.136829,-0.049332,0.018412,0,0
6172,2024 8 08,15:41:00.835,-0.323077,-0.64525,0.248291,-0.646239,-1.045426,-0.126251,0.013545,-0.122226,-0.242082,-0.120586,0,0
6173,2024 8 08,15:41:00.844,-0.323077,-0.64525,0.248291,-0.646239,-1.045442,-0.109866,0.04297,-0.122074,-0.244088,-0.122032,0,0
6174,2024 8 08,15:41:00.852,-0.323081,-0.645248,0.248293,-0.646239,-1.046379,-0.111741,0.042033,-0.180639,-0.068434,-0.004932,0,0
6175,2024 8 08,15:41:00.860,-0.323091,-0.646322,0.243286,-0.647064,-1.042262,-0.109969,0.044765,-0.240668,-0.349929,-0.00027,0,0
6176,2024 8 08,15:41:00.869,-0.323097,-0.645253,0.248321,-0.646215,-1.044315,-0.050777,0.098653,-0.243903,-0.308242,-1.8e-05,0,0
6177,2024 8 08,15:41:00.877,-0.32311,-0.645253,0.248341,-0.646201,-1.045798,-0.109681,0.040441,-0.300153,-0.193362,-2e-06,0,0
6178,2024 8 08,15:41:00.885,-0.323128,-0.646283,0.243288,-0.647084,-1.04415,-0.1125,0.04052,-0.470404,-0.07361,-0.0,0,0
6179,2024 8 08,15:41:00.894,-0.323164,-0.645231,0.248379,-0.646181,-1.04356,-0.130854,0.009422,-0.540816,-0.007929,-0.163381,0,0
6180,2024 8 08,15:41:00.902,-0.323168,-0.645229,0.248381,-0.64618,-1.043497,-0.107009,0.035709,-0.548296,-0.000952,-0.180737,0,0
6181,2024 8 08,15:41:00.910,-0.32319,-0.645219,0.248412,-0.646167,-1.045609,-0.110761,0.041163,-0.602156,-0.0531,0.029104,0,0
6182,2024 8 08,15:41:00.919,-0.323223,-0.645201,0.248441,-0.646157,-1.043376,-0.114554,0.044161,-0.609173,-0.007633,0.004184,0,0
6183,2024 8 08,15:41:00.927,-0.323259,-0.645182,0.248472,-0.646147,-1.041409,-0.12874,0.017778,-0.610169,-0.001184,0.000649,0,0
6184,2024 8 08,15:41:00.935,-0.323292,-0.645163,0.2485,-0.646138,-1.0464,-0.108796,0.043177,-0.508539,0.050694,0.000108,0,0
6185,2024 8 08,15:41:00.944,-0.32331,-0.64515,0.248516,-0.646136,-1.044406,-0.108472,0.03939,-0.290936,-0.04126,0.050252,0,0
6186,2024 8 08,15:41:00.952,-0.323313,-0.645148,0.248519,-0.646136,-1.044057,-0.096744,0.020528,-0.252915,-0.057327,0.059013,0,0
6187,2024 8 08,15:41:00.960,-0.323327,-0.645141,0.24852,-0.646135,-1.045952,-0.108404,0.038214,-0.098979,-0.011336,0.01167,0,0
6188,2024 8 08,15:41:00.969,-0.323341,-0.645146,0.248521,-0.646123,-1.049803,-0.110337,0.03734,-0.165629,-0.050711,-0.142643,0,0
6189,2024 8 08,15:41:00.977,-0.323364,-0.645136,0.248522,-0.64612,-1.042187,-0.106148,0.047477,-0.274826,0.132254,-0.126545,0,0
6190,2024 8 08,15:41:00.985,-0.323386,-0.645129,0.248518,-0.646118,-1.045458,-0.108645,0.039086,-0.298287,-0.01716,-0.170266,0,0
6191,2024 8 08,15:41:00.994,-0.323406,-0.64512,0.248514,-0.646119,-1.043208,-0.12867,0.011237,-0.21032,0.135788,-0.133458,0,0
6192,2024 8 08,15:41:01.002,-0.32341,-0.645118,0.248513,-0.646119,-1.042683,-0.111636,0.043205,-0.189782,0.171497,-0.124864,0,0
6193,2024 8 08,15:41:01.010,-0.323433,-0.645101,0.248507,-0.646127,-1.044741,-0.095153,0.000443,-0.230324,0.180155,-0.12278,0,0
6194,2024 8 08,15:41:01.019,-0.323452,-0.645089,0.248506,-0.64613,-1.044178,-0.1108,0.038548,-0.195516,0.137336,-0.03227,0,0
6195,2024 8 08,15:41:01.027,-0.323473,-0.645074,0.248501,-0.646136,-1.046167,-0.130828,0.014407,-0.23095,0.126212,-0.142188,0,0
6196,2024 8 08,15:41:01.035,-0.32349,-0.645064,0.248502,-0.646137,-1.044237,-0.109341,0.041228,-0.196479,0.035279,-0.127694,0,0
6197,2024 8 08,15:41:01.044,-0.323504,-0.645052,0.248502,-0.646142,-1.043704,-0.111107,0.042121,-0.14347,0.010146,-0.036724,0,0
6198,2024 8 08,15:41:01.052,-0.323507,-0.645049,0.248503,-0.646144,-1.043553,-0.111609,0.042375,-0.128394,0.002998,-0.010851,0,0
6199,2024 8 08,15:41:01.060,-0.32351,-0.645049,0.248508,-0.64614,-1.04589,-0.110395,0.041769,-0.123988,-0.169208,-0.00329,0,0
6200,2024 8 08,15:41:01.069,-0.323513,-0.645049,0.248517,-0.646135,-1.046254,-0.110367,0.040577,-0.248871,-0.178787,-0.001022,0,0
6201,2024 8 08,15:41:01.077,-0.323525,-0.645049,0.248527,-0.646125,-1.044369,-0.109027,0.036882,-0.245646,-0.098497,-0.000325,0,0
6202,2024 8 08,15:41:01.085,-0.323536,-0.645046,0.248537,-0.646118,-1.044763,-0.111899,0.04066,-0.285806,-0.073224,-0.000106,0,0
6203,2024 8 08,15:41:01.094,-0.32354,-0.645043,0.248549,-0.646116,-1.045542,0.31635,0.070713,-0.176505,-0.065087,0.040709,0,0
6204,2024 8 08,15:41:01.102,-0.323542,-0.645041,0.248554,-0.646114,-1.045928,-0.124231,0.018577,-0.122389,-0.061059,0.060916,0,0
6205,2024 8 08,15:41:01.110,-0.323543,-0.64504,0.248556,-0.646114,-1.045478,-0.109278,0.03701,-0.146312,-0.061036,0.052954,0,0
6206,2024 8 08,15:41:01.119,-0.323553,-0.645034,0.248567,-0.646111,-1.042746,-0.111283,0.039524,-0.275593,-0.045124,0.001905,0,0
6207,2024 8 08,15:41:01.127,-0.323559,-0.645024,0.248571,-0.646117,-1.043451,-0.108484,0.039952,-0.121966,0.055688,9.6e-05,0,0
6208,2024 8 08,15:41:01.135,-0.323571,-0.64501,0.248574,-0.646123,-1.04361,-0.108074,0.039578,-0.088121,0.045248,6e-06,0,0
6209,2024 8 08,15:41:01.144,-0.323578,-0.645005,0.248586,-0.64612,-1.04446,-0.126305,0.00835,-0.231986,-0.052756,0.0,0,0
6210,2024 8 08,15:41:01.152,-0.323585,-0.645002,0.248591,-0.646118,-1.044909,-0.110682,0.040451,-0.243034,-0.060281,0.0,0,0
6211,2024 8 08,15:41:01.160,-0.323587,-0.645001,0.248593,-0.646117,-1.044653,-0.10557,0.020771,-0.244026,-0.060957,0.0,0,0
6212,2024 8 08,15:41:01.169,-0.323596,-0.644998,0.248605,-0.646111,-1.043228,-0.109584,0.040879,-0.236835,-0.053733,0.007293,0,0
6213,2024 8 08,15:41:01.177,-0.323607,-0.662803,-0.303631,-0.602953,-1.045606,-0.109888,0.037767,-0.211585,-0.035672,0.04694,0,0
6214,2024 8 08,15:41:01.185,-0.323619,-0.644987,0.24864,-0.646097,-1.043536,-0.095068,0.002562,-0.323243,-0.186527,0.006582,0,0
6215,2024 8 08,15:41:01.194,-0.323626,-0.644979,0.248653,-0.646096,-1.044325,-0.12262,0.022923,-0.218364,-0.056297,0.015,0,0
6216,2024 8 08,15:41:01.202,-0.323631,-0.644973,0.248672,-0.646092,-1.044443,-0.095213,-0.001127,-0.291039,-0.21355,0.104634,0,0
6217,2024 8 08,15:41:01.210,-0.323634,-0.644972,0.248678,-0.64609,-1.044243,-0.1103,0.036696,-0.316358,-0.218369,0.112222,0,0
6218,2024 8 08,15:41:01.219,-0.323644,-0.644964,0.248702,-0.646082,-1.042885,-0.12608,0.010762,-0.400076,-0.090035,0.077201,0,0
6219,2024 8 08,15:41:01.227,-0.323655,-0.644953,0.248723,-0.646081,-1.043138,-0.079572,0.022925,-0.366156,-0.06668,0.100044,0,0
6220,2024 8 08,15:41:01.235,-0.323668,-0.644944,0.248737,-0.646077,-1.043826,-0.112474,0.042831,-0.311096,-0.062191,0.033607,0,0
6221,2024 8 08,15:41:01.244,-0.323674,-0.644934,0.248753,-0.646079,-1.041695,-0.106679,0.030158,-0.258505,-0.061283,0.09661,0,0
6222,2024 8 08,15:41:01.252,-0.323679,-0.644924,0.248768,-0.646081,-1.041571,-0.10936,0.042573,-0.24736,-0.061091,0.069008,0,0
6223,2024 8 08,15:41:01.260,-0.32368,-0.644921,0.248773,-0.646081,-1.041898,-0.109101,0.041693,-0.238566,-0.061048,0.069223,0,0
6224,2024 8 08,15:41:01.269,-0.323682,-0.644916,0.248786,-0.64608,-1.044263,-0.109681,0.036823,-0.190309,-0.054788,0.10925,0,0
6225,2024 8 08,15:41:01.277,-0.323679,-0.644924,0.248768,-0.646081,-1.045393,-0.109919,0.038698,-0.14541,-0.038488,0.125023,0,0
6226,2024 8 08,15:41:01.285,-0.323676,-0.644914,0.248818,-0.646072,-1.046942,-0.076318,0.014709,-0.179402,-0.196733,0.149676,0,0
6227,2024 8 08,15:41:01.294,-0.323677,-0.644915,0.248834,-0.646065,-1.045633,-0.110312,0.039132,-0.226744,-0.270001,0.058325,0,0
6228,2024 8 08,15:41:01.302,-0.323676,-0.644914,0.248818,-0.646072,-1.046201,-0.109637,0.037318,-0.239321,-0.251305,0.148538,0,0
6229,2024 8 08,15:41:01.310,-0.323676,-0.644914,0.248818,-0.646072,-1.046357,-0.109452,0.037198,-0.254565,-0.228485,0.15555,0,0
6230,2024 8 08,15:41:01.319,-0.323686,-0.644913,0.248875,-0.646046,-1.045934,-0.10968,0.039646,-0.333488,-0.110114,0.045591,0,0
6231,2024 8 08,15:41:01.327,-0.323704,-0.644907,0.24889,-0.646038,-1.042997,-0.111287,0.041269,-0.362136,-0.09311,0.002177,0,0
6232,2024 8 08,15:41:01.335,-0.323721,-0.644905,0.248905,-0.646025,-1.042908,-0.110305,0.043522,-0.407162,-0.197553,-0.07233,0,0
6233,2024 8 08,15:41:01.344,-0.323733,-0.644907,0.24892,-0.646011,-1.042529,-0.109915,0.042341,-0.40961,-0.235069,-0.022849,0,0
6234,2024 8 08,15:41:01.352,-0.323743,-0.64491,0.248934,-0.645998,-1.04384,-0.125973,0.015839,-0.327756,-0.282519,-0.007384,0,0
6235,2024 8 08,15:41:01.360,-0.32375,-0.644916,0.248945,-0.645984,-1.044259,-0.099626,0.020439,-0.230884,-0.297692,-0.002439,0,0
6236,2024 8 08,15:41:01.369,-0.323754,-0.644919,0.248951,-0.645977,-1.044465,-0.110353,0.042025,-0.183157,-0.305168,-3e-06,0,0
6237,2024 8 08,15:41:01.377,-0.323753,-0.644926,0.248969,-0.645963,-1.041584,-0.126472,0.01513,-0.243133,-0.305176,0.060027,0,0
6238,2024 8 08,15:41:01.385,-0.323754,-0.644919,0.248951,-0.645977,-1.043902,-0.110386,0.03914,-0.184996,-0.305176,0.001891,0,0
6239,2024 8 08,15:41:01.394,-0.323747,-0.644945,0.248994,-0.645938,-1.043974,-0.112317,0.044939,-0.06674,-0.24695,0.116539,0,0
6240,2024 8 08,15:41:01.402,-0.323751,-0.644948,0.249007,-0.645929,-1.044436,-0.109174,0.039176,-0.17611,-0.072212,-0.107726,0,0
6241,2024 8 08,15:41:01.410,-0.32375,-0.644916,0.248945,-0.645984,-1.043559,-0.109363,0.040429,-0.012997,0.051201,-0.00795,0,0
6242,2024 8 08,15:41:01.419,-0.32375,-0.644916,0.248945,-0.645984,-1.043495,-0.109377,0.04052,-0.001132,0.060179,-0.000692,0,0
6243,2024 8 08,15:41:01.427,-0.323755,-0.644937,0.24901,-0.645936,-1.041292,-0.108939,0.035254,-0.109975,0.11588,0.054862,0,0
6244,2024 8 08,15:41:01.435,-0.323762,-0.644925,0.249006,-0.645946,-1.046708,-0.110629,0.046868,-0.066544,0.121374,0.06034,0,0
6245,2024 8 08,15:41:01.444,-0.323759,-0.644913,0.248998,-0.645962,-1.0456,-0.096584,0.001872,-0.008303,0.121983,0.114368,0,0
6246,2024 8 08,15:41:01.452,-0.323757,-0.644906,0.248988,-0.645974,-1.045885,-0.113427,0.040766,0.05156,0.174753,0.068323,0,0
6247,2024 8 08,15:41:01.460,-0.323754,-0.644919,0.248951,-0.645977,-1.04634,-0.112474,0.041812,0.007642,0.233856,0.062115,0,0
6248,2024 8 08,15:41:01.469,-0.323754,-0.644919,0.248951,-0.645977,-1.046406,-0.098647,0.046945,0.001219,0.242501,0.061207,0,0
6249,2024 8 08,15:41:01.477,-0.323753,-0.644926,0.248969,-0.645963,-1.046011,-0.108262,0.037128,0.000208,0.091963,0.010432,0,0
6250,2024 8 08,15:41:01.485,-0.323759,-0.644913,0.248998,-0.645962,-1.043146,-0.127587,0.01672,-0.099924,0.016656,0.001889,0,0
6251,2024 8 08,15:41:01.494,-0.32376,-0.644873,0.24897,-0.646012,-1.044213,-0.108703,0.040817,-0.019138,0.052536,0.000362,0,0
6252,2024 8 08,15:41:01.502,-0.323763,-0.644866,0.248969,-0.646019,-1.043635,-0.110412,0.039028,-0.003859,0.059321,7.3e-05,0,0
6253,2024 8 08,15:41:01.510,-0.323772,-0.64486,0.248959,-0.646024,-1.04506,-0.111137,0.040211,-0.000817,0.108795,-0.144352,0,0
6254,2024 8 08,15:41:01.519,-0.323774,-0.644859,0.248957,-0.646025,-1.045358,-0.111288,0.040458,-0.000181,0.119134,-0.174533,0,0
6255,2024 8 08,15:41:01.527,-0.323776,-0.644857,0.248951,-0.646028,-1.045047,-0.109819,0.042015,-0.047,0.027476,-0.040253,0,0
6256,2024 8 08,15:41:01.535,-0.323786,-0.644848,0.248947,-0.646033,-1.043863,-0.110226,0.037173,-0.057669,0.145781,-0.009654,0,0
6257,2024 8 08,15:41:01.544,-0.323798,-0.644847,0.248945,-0.646029,-1.042848,-0.125444,0.015333,-0.151896,-0.009578,-0.13995,0,0
6258,2024 8 08,15:41:01.552,-0.323812,-0.644842,0.248952,-0.646025,-1.042599,-0.112333,0.039509,-0.220381,-0.047781,-0.036047,0,0
6259,2024 8 08,15:41:01.560,-0.323823,-0.644834,0.24896,-0.646023,-1.043252,-0.111956,0.042049,-0.237817,-0.057508,0.035198,0,0
6260,2024 8 08,15:41:01.569,-0.323826,-0.644832,0.248962,-0.646023,-1.043424,-0.111857,0.042717,-0.242405,-0.060067,0.053943,0,0
6261,2024 8 08,15:41:01.577,-0.323829,-0.644833,0.248973,-0.646017,-1.04312,-0.114282,0.039746,-0.24365,-0.192105,0.05903,0,0
6262,2024 8 08,15:41:01.585,-0.32383,-0.644834,0.248991,-0.646008,-1.040957,-0.112189,0.041687,-0.200705,-0.272307,0.060452,0,0
6263,2024 8 08,15:41:01.594,-0.323826,-0.644832,0.248962,-0.646023,-1.045131,-0.113985,0.039847,-0.145544,-0.209733,0.103677,0,0
6264,2024 8 08,15:41:01.602,-0.323831,-0.644835,0.249023,-0.645994,-1.042975,-0.077781,0.00644,-0.256303,-0.106561,0.031742,0,0
6265,2024 8 08,15:41:01.610,-0.323835,-0.644834,0.249035,-0.645989,-1.043328,-0.109028,0.040128,-0.206064,-0.075314,0.009956,0,0
6266,2024 8 08,15:41:01.619,-0.323836,-0.644834,0.249038,-0.645987,-1.043437,-0.099221,-0.029762,-0.190474,-0.065618,0.003196,0,0
6267,2024 8 08,15:41:01.627,-0.323841,-0.644826,0.249048,-0.645988,-1.042488,-0.110327,0.041034,-0.185524,0.019474,0.083062,0,0
6268,2024 8 08,15:41:01.635,-0.323839,-0.644822,0.249056,-0.645991,-1.043803,-0.098787,0.040482,-0.10276,-0.074629,0.068418,0,0
6269,2024 8 08,15:41:01.644,-0.323838,-0.644818,0.249061,-0.645993,-1.044719,-0.108961,0.039979,-0.06153,-0.097043,0.061123,0,0
6270,2024 8 08,15:41:01.652,-0.323838,-0.644818,0.249061,-0.645993,-1.046052,-0.109817,0.039885,-0.053018,0.064801,0.069068,0,0
6271,2024 8 08,15:41:01.660,-0.323834,-0.6448,0.249065,-0.646012,-1.044253,-0.093162,0.008666,-0.010116,0.111777,0.127773,0,0
6272,2024 8 08,15:41:01.669,-0.323831,-0.644835,0.249023,-0.645994,-1.045376,-0.110931,0.041989,-0.058191,0.063869,0.180015,0,0
6273,2024 8 08,15:41:01.677,-0.32383,-0.644834,0.248991,-0.646008,-1.045315,-0.110481,0.041317,-0.053159,0.061233,0.175212,0,0
6274,2024 8 08,15:41:01.685,-0.323823,-0.644834,0.24896,-0.646023,-1.044415,-0.108793,0.037194,-0.004416,0.061052,0.134052,0,0
6275,2024 8 08,15:41:01.694,-0.323819,-0.644771,0.249077,-0.646043,-1.043876,-0.111469,0.041472,-0.000424,0.053577,0.170932,0,0
6276,2024 8 08,15:41:01.702,-0.323812,-0.644842,0.248952,-0.646025,-1.045472,-0.111619,0.036753,-0.007401,0.005828,0.127385,0,0
6277,2024 8 08,15:41:01.710,-0.32381,-0.644759,0.249087,-0.646056,-1.044042,-0.109998,0.036174,-0.061794,0.000706,0.122714,0,0
6278,2024 8 08,15:41:01.719,-0.32381,-0.644759,0.249087,-0.646056,-1.043139,-0.112001,0.033176,-0.11405,9.4e-05,0.122156,0,0
6279,2024 8 08,15:41:01.727,-0.323811,-0.644747,0.249102,-0.646062,-1.043472,-0.109168,0.041696,-0.127968,1.4e-05,0.115024,0,0
6280,2024 8 08,15:41:01.735,-0.323815,-0.644737,0.249113,-0.646066,-1.046259,-0.09651,0.001259,-0.195395,2e-06,0.083391,0,0
6281,2024 8 08,15:41:01.744,-0.323824,-0.644721,0.249131,-0.64607,-1.045765,-0.111794,0.036272,-0.323918,0.013747,0.159568,0,0
6282,2024 8 08,15:41:01.752,-0.323835,-0.644834,0.249035,-0.645989,-1.044024,-0.110188,0.038633,-0.292255,0.082448,0.14231,0,0
6283,2024 8 08,15:41:01.760,-0.323849,-0.644682,0.249175,-0.646079,-1.042219,-0.126671,0.022127,-0.474101,-0.027309,0.204864,0,0
6284,2024 8 08,15:41:01.769,-0.323861,-0.644666,0.249196,-0.646081,-1.043237,-0.096656,0.002555,-0.338724,-0.005423,0.089599,0,0
6285,2024 8 08,15:41:01.777,-0.323864,-0.644661,0.249202,-0.646082,-1.04375,-0.110425,0.039207,-0.305641,-0.001131,0.080056,0,0
6286,2024 8 08,15:41:01.785,-0.32387,-0.644649,0.249218,-0.646085,-1.045578,-0.11037,0.039178,-0.257566,0.006204,0.147708,0,0
6287,2024 8 08,15:41:01.794,-0.323878,-0.644638,0.249231,-0.646087,-1.044393,-0.11046,0.04129,-0.259944,0.0358,0.074405,0,0
6288,2024 8 08,15:41:01.802,-0.323887,-0.644628,0.249246,-0.646087,-1.0447,-0.110974,0.037115,-0.322132,-0.031784,0.017637,0,0
6289,2024 8 08,15:41:01.810,-0.323899,-0.64462,0.249257,-0.646085,-1.046364,-0.110239,0.039271,-0.217318,-0.014044,-0.008103,0,0
6290,2024 8 08,15:41:01.819,-0.323912,-0.644612,0.249261,-0.646084,-1.046522,-0.110492,0.039283,-0.191827,-0.049056,-0.08072,0,0
6291,2024 8 08,15:41:01.827,-0.323921,-0.644605,0.249267,-0.646084,-1.045008,-0.044444,0.086071,-0.185404,-0.057878,-0.021273,0,0
6292,2024 8 08,15:41:01.835,-0.323924,-0.644603,0.249268,-0.646084,-1.044613,-0.109197,0.038008,-0.177722,-0.060177,-0.005786,0,0
6293,2024 8 08,15:41:01.844,-0.323929,-0.644601,0.249271,-0.646083,-1.044507,-0.110477,0.039395,-0.149545,-0.060795,-0.001621,0,0
6294,2024 8 08,15:41:01.852,-0.323935,-0.644599,0.24928,-0.646078,-1.044148,-0.111433,0.037826,-0.234493,-0.084461,0.01128,0,0
6295,2024 8 08,15:41:01.860,-0.323945,-0.644596,0.249302,-0.646069,-1.042245,-0.111845,0.04218,-0.375973,-0.239813,0.09507,0,0
6296,2024 8 08,15:41:01.869,-0.323955,-0.644592,0.249334,-0.646055,-1.043726,-0.112663,0.043382,-0.454157,-0.285316,0.150611,0,0
6297,2024 8 08,15:41:01.877,-0.323966,-0.64459,0.249364,-0.64604,-1.045917,-0.111746,0.041417,-0.477656,-0.298992,0.130957,0,0
6298,2024 8 08,15:41:01.885,-0.32397,-0.644589,0.249376,-0.646034,-1.046276,-0.111464,0.040947,-0.479272,-0.29196,0.119281,0,0
6299,2024 8 08,15:41:01.894,-0.323978,-0.644587,0.249403,-0.646022,-1.044353,-0.1084,0.041523,-0.438643,-0.207464,0.096709,0,0
6300,2024 8 08,15:41:01.902,-0.323986,-0.64458,0.249429,-0.646014,-1.043539,-0.110873,0.039937,-0.384829,-0.12081,0.178527,0,0
6301,2024 8 08,15:41:01.910,-0.324,-0.644573,0.249464,-0.646001,-1.043974,-0.112317,0.044939,-0.305745,-0.18266,0.061875,0,0
6302,2024 8 08,15:41:01.919,-0.323997,-0.644567,0.249474,-0.646005,-1.0435,-0.128376,0.007834,-0.006851,0.055575,0.120722,0,0
6303,2024 8 08,15:41:01.927,-0.324,-0.644573,0.249464,-0.646001,-1.039728,-0.112705,0.04093,-0.176548,0.060832,0.180785,0,0
6304,2024 8 08,15:41:01.935,-0.324,-0.644573,0.249464,-0.646001,-1.03959,-0.112792,0.041012,-0.182767,0.061025,0.182986,0,0
6305,2024 8 08,15:41:01.944,-0.324001,-0.644534,0.249496,-0.646027,-1.041408,-0.110971,0.038735,-0.183083,0.118072,0.183098,0,0
6306,2024 8 08,15:41:01.952,-0.324001,-0.644534,0.249496,-0.646027,-1.044224,-0.111753,0.046233,-0.014468,0.121754,0.183105,0,0
6307,2024 8 08,15:41:01.960,-0.323996,-0.644508,0.249512,-0.646049,-1.040454,-0.109597,0.038395,-0.001333,0.011222,0.183105,0,0
6308,2024 8 08,15:41:01.969,-0.323985,-0.644505,0.249526,-0.646053,-1.04623,-0.11115,0.039868,-0.00014,0.001178,0.183105,0,0
6309,2024 8 08,15:41:01.977,-0.323968,-0.6445,0.249537,-0.646062,-1.046396,-0.112172,0.040882,-1.6e-05,0.000138,0.236978,0,0
6310,2024 8 08,15:41:01.985,-0.323966,-0.64459,0.249364,-0.64604,-1.046416,-0.112291,0.040999,-2e-06,0.191195,0.03003,0,0
6311,2024 8 08,15:41:01.994,-0.323951,-0.644491,0.249548,-0.646074,-1.04516,-0.112725,0.039337,-0.0,0.440084,0.225725,0,0
6312,2024 8 08,15:41:02.002,-0.32394,-0.644479,0.24957,-0.646084,-1.042089,-0.113199,0.039519,-0.051719,0.0,0.407279,0,0
6313,2024 8 08,15:41:02.010,-0.323928,-0.644461,0.249593,-0.646099,-1.039585,-0.111229,0.040772,-0.161588,0.102079,0.423976,0,0
6314,2024 8 08,15:41:02.019,-0.323908,-0.644444,0.249622,-0.646114,-1.045628,-0.127089,0.013514,-0.229725,-0.032552,0.477052,0,0
6315,2024 8 08,15:41:02.027,-0.32389,-0.644424,0.249652,-0.646133,-1.043885,-0.127138,0.015209,-0.191739,0.093435,0.486202,0,0
6316,2024 8 08,15:41:02.035,-0.323886,-0.64442,0.249658,-0.646136,-1.043566,0.289747,0.049232,-0.184793,0.116472,0.487875,0,0
6317,2024 8 08,15:41:02.044,-0.323877,-0.644401,0.249693,-0.646146,-1.040401,-0.111794,0.039833,-0.280431,-0.024549,0.488198,0,0
6318,2024 8 08,15:41:02.052,-0.323862,-0.644384,0.249746,-0.64615,-1.044357,-0.102032,0.045578,-0.39563,-0.196852,0.631937,0,0
6319,2024 8 08,15:41:02.060,-0.323839,-0.644822,0.249056,-0.645991,-1.042927,-0.126527,0.017857,-0.372828,-0.091582,0.75713,0,0
6320,2024 8 08,15:41:02.069,-0.323815,-0.644737,0.249113,-0.646066,-1.042983,-0.130706,0.00694,-0.554714,-0.06819,0.878424,0,0
6321,2024 8 08,15:41:02.077,-0.323786,-0.644848,0.248947,-0.646033,-1.042996,-0.112905,0.038827,-0.412083,-0.016594,0.952681,0,0
6322,2024 8 08,15:41:02.085,-0.32378,-0.644295,0.24997,-0.646193,-1.043,-0.133787,0.009271,-0.377782,-0.004186,0.970538,0,0
6323,2024 8 08,15:41:02.094,-0.323759,-0.644913,0.248998,-0.645962,-1.046609,-0.109746,0.033179,-0.549667,0.179345,1.065209,0,0
6324,2024 8 08,15:41:02.102,-0.323755,-0.644937,0.24901,-0.645936,-1.04754,-0.105553,0.032841,-0.549411,0.49423,0.822081,0,0
6325,2024 8 08,15:41:02.110,-0.323753,-0.644926,0.248969,-0.645963,-1.048141,-0.110554,-0.008512,-0.196665,0.710357,0.536898,0,0
6326,2024 8 08,15:41:02.119,-0.323756,-0.644081,0.250136,-0.646354,-1.045167,-0.111456,0.045152,-0.099801,0.726115,0.371408,0,0
6327,2024 8 08,15:41:02.127,-0.323751,-0.644948,0.249007,-0.645929,-1.043982,-0.09883,-0.072142,-0.029317,0.428828,0.281526,0,0
6328,2024 8 08,15:41:02.135,-0.323749,-0.644032,0.250139,-0.646405,-1.043638,-0.109721,0.044428,-0.008839,0.342458,0.255413,0,0
6329,2024 8 08,15:41:02.144,-0.32374,-0.644007,0.250134,-0.646437,-1.043197,-0.110159,0.041734,0.039437,0.401039,0.247625,0,0
6330,2024 8 08,15:41:02.152,-0.323729,-0.64398,0.250138,-0.646468,-1.041728,-0.109959,0.039575,0.012483,0.335518,0.28696,0,0
6331,2024 8 08,15:41:02.160,-0.323718,-0.643948,0.250152,-0.646499,-1.043249,-0.109236,0.04088,-0.078504,0.356273,0.423096,0,0
6332,2024 8 08,15:41:02.169,-0.323697,-0.643922,0.25018,-0.646526,-1.042756,-0.108526,0.036831,-0.066816,0.199567,0.589228,0,0
6333,2024 8 08,15:41:02.177,-0.323684,-0.643904,0.250199,-0.646542,-1.042645,-0.10889,0.03189,-0.110447,0.122256,0.67119,0,0
6334,2024 8 08,15:41:02.185,-0.323671,-0.643876,0.25024,-0.64656,-1.043474,-0.10878,0.040549,-0.421608,0.122074,0.671383,0,0
6335,2024 8 08,15:41:02.194,-0.32367,-0.643871,0.250248,-0.646563,-1.043744,-0.108954,0.039123,-0.443027,0.114088,0.671387,0,0
6336,2024 8 08,15:41:02.202,-0.323662,-0.643838,0.250308,-0.646578,-1.045865,-0.108603,0.038462,-0.560023,0.047814,0.671387,0,0
6337,2024 8 08,15:41:02.210,-0.323649,-0.64381,0.250369,-0.646587,-1.048887,-0.104636,0.032932,-0.587092,-0.007883,0.632652,0,0
6338,2024 8 08,15:41:02.219,-0.32364,-0.643786,0.2504,-0.646604,-1.046835,-0.097484,-0.002067,-0.108089,0.266449,0.363273,0,0
6339,2024 8 08,15:41:02.227,-0.323638,-0.643767,0.250409,-0.646621,-1.044014,-0.107938,0.041113,-0.075688,0.152831,0.153846,0,0
6340,2024 8 08,15:41:02.235,-0.323633,-0.643772,0.250409,-0.646618,-1.053638,-0.104404,0.039271,0.211813,-0.094284,-0.149047,0,0
6341,2024 8 08,15:41:02.244,-0.323635,-0.643773,0.250405,-0.646618,-1.054129,-0.104755,0.03897,0.196577,-0.082338,-0.223127,0,0
6342,2024 8 08,15:41:02.252,-0.323656,-0.643773,0.250375,-0.646619,-1.049903,-0.109224,0.03814,-0.074774,0.164145,-0.486642,0,0
6343,2024 8 08,15:41:02.260,-0.323687,-0.64376,0.250343,-0.646628,-1.040547,-0.132291,0.020033,-0.055809,0.264414,-0.389904,0,0
6344,2024 8 08,15:41:02.269,-0.323718,-0.643948,0.250152,-0.646499,-1.038369,-0.111611,0.041002,-0.036412,0.108196,-0.400611,0,0
6345,2024 8 08,15:41:02.277,-0.323747,-0.644945,0.248994,-0.645938,-1.056056,-0.104538,0.036047,-0.106886,-0.115593,-0.359315,0,0
6346,2024 8 08,15:41:02.285,-0.323777,-0.643779,0.250249,-0.646601,-1.089766,-0.090692,0.007503,0.497005,0.376839,-1.092348,0,0
6347,2024 8 08,15:41:02.294,-0.323861,-0.644666,0.249196,-0.646081,-1.067489,-0.100785,0.041708,0.340088,2.964347,-2.295736,0,0
6348,2024 8 08,15:41:02.302,-0.323894,-0.64372,0.249997,-0.646698,-1.059487,-0.103292,0.048334,0.498514,3.422621,-2.551958,0,0
6349,2024 8 08,15:41:02.310,-0.324028,-0.643632,0.249708,-0.64683,-1.033868,-0.107935,0.052939,1.687486,3.197745,-2.83345,0,0
6350,2024 8 08,15:41:02.319,-0.324119,-0.643647,0.249407,-0.646885,-1.036061,-0.108261,0.054036,1.878563,1.422301,-2.745531,0,0
6351,2024 8 08,15:41:02.327,-0.324158,-0.643712,0.249102,-0.64692,-1.03647,-0.112672,0.043127,2.366472,0.834221,-2.584634,0,0
6352,2024 8 08,15:41:02.335,-0.324179,-0.643797,0.248822,-0.646932,-1.035626,-0.112474,0.043362,2.195855,0.399723,-2.370554,0,0
6353,2024 8 08,15:41:02.344,-0.324179,-0.643797,0.248822,-0.646932,-1.031585,-0.115315,0.04566,2.196926,0.420624,-1.960853,0,0
6354,2024 8 08,15:41:02.352,-0.324176,-0.6439,0.248517,-0.646948,-1.031368,-0.116535,0.045463,2.190988,0.369854,-1.820093,0,0
6355,2024 8 08,15:41:02.360,-0.324151,-0.643975,0.248343,-0.646952,-1.036257,-0.1194,0.040472,2.06468,-0.001127,-1.48073,0,0
6356,2024 8 08,15:41:02.369,-0.324127,-0.644055,0.248189,-0.646944,-1.039005,-0.109324,-0.056011,1.448312,-0.146646,-1.194544,0,0
6357,2024 8 08,15:41:02.377,-0.32411,-0.644129,0.248064,-0.646927,-1.039328,-0.115884,0.041088,0.993986,-0.285474,-1.0449,0,0
6358,2024 8 08,15:41:02.385,-0.324102,-0.644191,0.247981,-0.646902,-1.038905,-0.115988,-0.000969,0.719061,-0.480466,-0.7654,0,0
6359,2024 8 08,15:41:02.394,-0.324086,-0.644251,0.247922,-0.646873,-1.039385,-0.11206,0.041464,0.642024,-0.572509,-0.612273,0,0
6360,2024 8 08,15:41:02.402,-0.324081,-0.644273,0.247902,-0.646861,-1.039755,-0.111549,0.041336,0.585124,-0.593247,-0.556583,0,0
6361,2024 8 08,15:41:02.410,-0.324073,-0.644318,0.247868,-0.646833,-1.041053,-0.111948,0.042011,0.354474,-0.545632,-0.461205,0,0
6362,2024 8 08,15:41:02.419,-0.324067,-0.644359,0.247835,-0.646807,-1.040163,-0.114411,0.039909,0.264077,-0.456552,-0.407383,0,0
6363,2024 8 08,15:41:02.427,-0.324076,-0.6444,0.247819,-0.646768,-1.042482,-0.124082,0.007415,-0.105318,-0.626911,-0.473463,0,0
6364,2024 8 08,15:41:02.435,-0.324093,-0.644444,0.247802,-0.646722,-1.041785,-0.114918,0.043372,-0.111023,-0.630222,-0.57089,0,0
6365,2024 8 08,15:41:02.444,-0.324113,-0.644498,0.247793,-0.646662,-1.043241,-0.114806,0.046349,-0.077819,-0.981906,-0.637645,0,0
6366,2024 8 08,15:41:02.452,-0.324123,-0.644524,0.247789,-0.646633,-1.043967,-0.111815,0.042063,-0.061256,-1.157331,-0.670943,0,0
6367,2024 8 08,15:41:02.460,-0.32412,-0.644593,0.247774,-0.646572,-1.045401,-0.117122,0.042158,0.116897,-0.981664,-0.434124,0,0
6368,2024 8 08,15:41:02.469,-0.324119,-0.643647,0.249407,-0.646885,-1.044973,-0.117188,0.03499,-0.053412,-0.976781,-0.369121,0,0
6369,2024 8 08,15:41:02.477,-0.324124,-0.644694,0.247794,-0.646461,-1.036206,-0.119033,0.039292,-0.348371,-0.688804,-0.021052,0,0
6370,2024 8 08,15:41:02.485,-0.324127,-0.644055,0.248189,-0.646944,-1.041158,-0.117321,0.036358,-0.421661,-0.389053,0.33879,0,0
6371,2024 8 08,15:41:02.494,-0.324125,-0.644692,0.247891,-0.646425,-1.040609,-0.113625,0.042413,-0.53857,-0.25634,0.475696,0,0
6372,2024 8 08,15:41:02.502,-0.324125,-0.644692,0.247891,-0.646425,-1.040564,-0.113318,0.042916,-0.548272,-0.245326,0.487058,0,0
6373,2024 8 08,15:41:02.510,-0.324106,-0.644677,0.247958,-0.646424,-1.043602,-0.111984,0.039921,-0.440537,-0.298603,0.705477,0,0
6374,2024 8 08,15:41:02.519,-0.324072,-0.644661,0.247996,-0.646442,-1.04436,-0.113555,0.040454,-0.000208,0.070705,0.675549,0,0
6375,2024 8 08,15:41:02.527,-0.324037,-0.644647,0.248028,-0.646462,-1.042337,0.582435,0.386138,-2.8e-05,0.009478,0.671945,0,0
6376,2024 8 08,15:41:02.535,-0.323979,-0.644648,0.248057,-0.646479,-1.041235,-0.110417,0.045575,0.156426,-0.363622,0.775755,0,0
6377,2024 8 08,15:41:02.544,-0.323886,-0.64442,0.249658,-0.646136,-1.039842,-0.114069,0.045849,0.539083,-0.674518,0.893582,0,0
6378,2024 8 08,15:41:02.552,-0.323871,-0.644682,0.248093,-0.646484,-1.039626,-0.114635,0.045891,0.598376,-0.722692,0.91184,0,0
6379,2024 8 08,15:41:02.560,-0.323777,-0.643779,0.250249,-0.646601,-1.042397,-0.11513,0.037878,0.608211,-0.780806,0.964992,0,0
6380,2024 8 08,15:41:02.569,-0.323671,-0.643876,0.25024,-0.64656,-1.050408,-0.111654,0.032109,0.609946,-0.444669,0.974373,0,0
6381,2024 8 08,15:41:02.577,-0.323575,-0.644757,0.248168,-0.646529,-1.05386,-0.105141,0.032595,0.561409,-0.088686,0.878402,0,0
6382,2024 8 08,15:41:02.585,-0.323495,-0.644741,0.248156,-0.64659,-1.054154,-0.109649,0.026128,0.889632,0.512233,0.714734,0,0
6383,2024 8 08,15:41:02.594,-0.323431,-0.644738,0.24812,-0.646639,-1.046588,-0.109056,0.047669,0.766866,0.398204,0.251922,0,0
6384,2024 8 08,15:41:02.602,-0.323417,-0.644737,0.248112,-0.64665,-1.044951,-0.108928,0.052331,0.740295,0.373524,0.15175,0,0
6385,2024 8 08,15:41:02.610,-0.323376,-0.644735,0.24805,-0.646696,-1.035277,-0.105922,0.048174,0.873855,0.32143,-0.056952,0,0
6386,2024 8 08,15:41:02.619,-0.323293,-0.644798,0.247975,-0.646703,-1.047714,-0.109261,0.034325,1.410905,-0.472293,-0.151966,0,0
6387,2024 8 08,15:41:02.627,-0.32324,-0.646143,0.243015,-0.64727,-1.054019,-0.104987,0.042941,0.951308,-1.120235,-0.584028,0,0
6388,2024 8 08,15:41:02.635,-0.32318,-0.645003,0.247796,-0.646624,-1.044475,-0.109655,0.047992,1.86801,-0.834905,-1.052456,0,0
6389,2024 8 08,15:41:02.644,-0.323111,-0.645158,0.247636,-0.646566,-1.046954,-0.110164,0.037236,1.974309,-1.381863,-1.441182,0,0
6390,2024 8 08,15:41:02.652,-0.323093,-0.645199,0.247593,-0.64655,-1.047622,-0.120015,-0.034326,2.002966,-1.529316,-1.545979,0,0
6391,2024 8 08,15:41:02.660,-0.323059,-0.64532,0.247461,-0.646497,-1.041558,-0.11902,0.024851,1.620325,-1.049471,-1.575087,0,0
6392,2024 8 08,15:41:02.669,-0.323077,-0.64525,0.248291,-0.646239,-1.041542,-0.1143,0.034845,0.523822,-1.084042,-1.540483,0,0
6393,2024 8 08,15:41:02.677,-0.323097,-0.645253,0.248321,-0.646215,-1.03916,-0.119707,0.033025,0.414201,-1.051739,-1.402973,0,0
6394,2024 8 08,15:41:02.685,-0.323131,-0.645644,0.24724,-0.646222,-1.039451,-0.158882,-0.133485,0.003257,-1.209978,-1.151596,0,0
6395,2024 8 08,15:41:02.694,-0.323176,-0.645719,0.247228,-0.646129,-1.037214,-0.118096,0.034495,-0.372843,-1.134193,-0.866292,0,0
6396,2024 8 08,15:41:02.702,-0.32319,-0.645219,0.248412,-0.646167,-1.036507,-0.117815,0.034283,-0.491685,-1.110246,-0.77614,0,0
6397,2024 8 08,15:41:02.710,-0.323209,-0.645794,0.247235,-0.646034,-1.037906,-0.11805,0.039421,-0.326728,-1.143179,-0.502974,0,0
6398,2024 8 08,15:41:02.719,-0.323218,-0.645827,0.247246,-0.645993,-1.038011,-0.118101,0.041186,-0.244838,-1.175895,-0.293719,0,0
6399,2024 8 08,15:41:02.727,-0.323204,-0.646079,0.242733,-0.647458,-1.034752,-0.117432,0.036834,-0.244157,-1.311463,0.20405,0,0
6400,2024 8 08,15:41:02.735,-0.323164,-0.645231,0.248379,-0.646181,-1.037836,-0.115601,0.040006,-0.164785,-1.509704,0.466283,0,0
6401,2024 8 08,15:41:02.744,-0.323073,-0.646018,0.247417,-0.645809,-1.040203,-0.07678,0.027359,0.432013,-1.342131,0.830922,0,0
6402,2024 8 08,15:41:02.752,-0.322926,-0.646069,0.247438,-0.645824,-1.041779,-0.10823,0.031116,1.269883,-0.537483,1.217835,0,0
6403,2024 8 08,15:41:02.760,-0.322745,-0.646111,0.247409,-0.645883,-1.041106,-0.102919,0.017381,2.684381,-0.436081,1.388904,0,0
6404,2024 8 08,15:41:02.769,-0.322693,-0.646122,0.247392,-0.645905,-1.041232,-0.112355,0.041564,2.97572,-0.323306,1.462284,0,0
6405,2024 8 08,15:41:02.777,-0.322391,-0.646174,0.247258,-0.646055,-1.042259,-0.106356,0.033807,4.526042,0.576406,1.949823,0,0
6406,2024 8 08,15:41:02.785,-0.321916,-0.646209,0.246984,-0.646361,-1.039584,-0.121539,0.037884,6.92883,2.076616,2.64498,0,0
6407,2024 8 08,15:41:02.794,-0.321484,-0.646191,0.246737,-0.646689,-1.02797,-0.113352,0.044785,5.693288,1.907487,2.744842,0,0
6408,2024 8 08,15:41:02.802,-0.321034,-0.646207,0.246577,-0.646956,-1.035746,-0.117098,0.039481,4.853643,1.125869,3.186437,0,0
6409,2024 8 08,15:41:02.810,-0.320678,-0.646205,0.246492,-0.647168,-1.03362,-0.120483,0.036235,4.155074,0.792848,3.38241,0,0
6410,2024 8 08,15:41:02.819,-0.32058,-0.646206,0.246483,-0.647219,-1.032857,-0.1205,0.037177,3.925112,0.638971,3.467261,0,0
6411,2024 8 08,15:41:02.827,-0.32024,-0.646211,0.246517,-0.647369,-1.028805,-0.117805,0.045728,3.043169,-0.120463,3.938065,0,0
6412,2024 8 08,15:41:02.835,-0.319841,-0.646223,0.246632,-0.64751,-1.021744,-0.119281,0.043677,2.308902,-0.868345,4.767476,0,0
6413,2024 8 08,15:41:02.844,-0.319455,-0.646232,0.246888,-0.647594,-1.025612,-0.113879,0.046131,0.831121,-1.642022,5.381208,0,0
6414,2024 8 08,15:41:02.852,-0.319082,-0.646215,0.247252,-0.647657,-1.025944,-0.109564,0.041905,-0.160994,-1.95578,6.06183,0,0
6415,2024 8 08,15:41:02.860,-0.318717,-0.646229,0.247641,-0.647674,-1.033955,-0.111332,0.047333,-0.321851,-3.05406,6.572923,0,0
6416,2024 8 08,15:41:02.869,-0.318595,-0.646234,0.247778,-0.647676,-1.035717,-0.11079,0.048696,-0.413709,-3.333305,6.694836,0,0
6417,2024 8 08,15:41:02.877,-0.318243,-0.646256,0.248203,-0.647665,-1.038453,-0.107026,0.048222,-0.639763,-3.671905,6.846969,0,0
6418,2024 8 08,15:41:02.885,-0.31779,-0.646307,0.248669,-0.647657,-1.04996,-0.115934,0.035773,0.261526,-3.704399,7.117917,0,0
6419,2024 8 08,15:41:02.894,-0.31734,-0.646364,0.249127,-0.647645,-1.04139,-0.094446,0.036565,0.264594,-3.672808,6.870283,0,0
6420,2024 8 08,15:41:02.902,-0.316837,-0.646456,0.249564,-0.647631,-1.045201,-0.09908,0.030156,0.661173,-3.646629,6.574533,0,0
6421,2024 8 08,15:41:02.910,-0.316395,-0.646534,0.249935,-0.647627,-1.058207,-0.112299,0.024184,0.802272,-3.524283,6.498037,0,0
6422,2024 8 08,15:41:02.919,-0.316237,-0.646557,0.250075,-0.647627,-1.060442,-0.114972,0.02397,0.786358,-3.426103,6.424012,0,0
6423,2024 8 08,15:41:02.927,-0.315903,-0.646583,0.250401,-0.647638,-1.054024,-0.10986,0.031189,0.448921,-2.867045,6.064691,0,0
6424,2024 8 08,15:41:02.935,-0.315528,-0.646581,0.250736,-0.647693,-1.056852,-0.10396,0.023811,0.413854,-1.952153,5.933773,0,0
6425,2024 8 08,15:41:02.944,-0.31517,-0.646555,0.251042,-0.647774,-1.053779,-0.091321,0.020668,0.694958,-1.485384,5.636612,0,0
6426,2024 8 08,15:41:02.952,-0.314771,-0.646538,0.251267,-0.647898,-1.045492,-0.089429,0.022855,1.735405,-0.658256,5.068456,0,0
6427,2024 8 08,15:41:02.960,-0.314386,-0.646553,0.251423,-0.64801,-1.046125,-0.097742,0.011972,2.342545,-1.125689,4.858329,0,0
6428,2024 8 08,15:41:02.969,-0.314225,-0.646564,0.251479,-0.648055,-1.047706,-0.088555,0.037928,2.627831,-1.266778,4.703188,0,0
6429,2024 8 08,15:41:02.977,-0.313871,-0.646623,0.251537,-0.648145,-1.056788,-0.081867,0.024862,3.424082,-1.276779,3.989513,0,0
6430,2024 8 08,15:41:02.985,-0.313274,-0.646794,0.251496,-0.64828,-1.059592,-0.093709,0.0142,4.816597,-1.28172,2.69038,0,0
6431,2024 8 08,15:41:02.994,-0.312857,-0.646987,0.251409,-0.648322,-1.061518,-0.092315,0.034758,4.522323,-2.000193,2.027056,0,0
6432,2024 8 08,15:41:03.002,-0.3125,-0.647162,0.251315,-0.648356,-1.058253,-0.104553,0.003067,3.573404,-1.954724,1.48394,0,0
6433,2024 8 08,15:41:03.010,-0.312244,-0.647329,0.251276,-0.648328,-1.056749,-0.105892,0.022917,2.728536,-1.895123,1.001129,0,0
6434,2024 8 08,15:41:03.019,-0.312232,-0.647337,0.251274,-0.648326,-1.056678,-0.105956,0.023863,2.688231,-1.892279,0.978097,0,0
6435,2024 8 08,15:41:03.027,-0.312059,-0.647452,0.251275,-0.648294,-1.039981,-0.087463,0.03114,1.557897,-1.892104,1.089465,0,0
6436,2024 8 08,15:41:03.035,-0.311916,-0.647542,0.251343,-0.648248,-1.04451,-0.084742,0.019234,-0.083237,-1.502994,1.042229,0,0
6437,2024 8 08,15:41:03.044,-0.311759,-0.647658,0.251397,-0.648186,-1.0528,-0.099847,0.019063,0.813509,-1.852346,1.092871,0,0
6438,2024 8 08,15:41:03.052,-0.311635,-0.647748,0.251475,-0.648125,-1.053203,-0.095316,0.026827,0.525566,-1.941572,1.15201,0,0
6439,2024 8 08,15:41:03.060,-0.311478,-0.647829,0.251509,-0.648107,-1.054527,-0.077585,0.03718,1.399045,-1.258809,1.211993,0,0
6440,2024 8 08,15:41:03.069,-0.311459,-0.647839,0.251513,-0.648104,-1.054693,-0.100976,0.031653,1.508297,-1.173411,1.219496,0,0
6441,2024 8 08,15:41:03.077,-0.311375,-0.647856,0.251545,-0.648115,-1.046001,-0.088612,0.029651,0.122693,-0.539266,0.961161,0,0
6442,2024 8 08,15:41:03.085,-0.311263,-0.647869,0.251557,-0.648151,-1.044304,-0.094152,0.012155,0.736429,0.16894,0.92289,0,0
6443,2024 8 08,15:41:03.094,-0.311204,-0.647843,0.251569,-0.648201,-1.06303,-0.10231,0.017453,0.328935,0.584842,0.714707,0,0
6444,2024 8 08,15:41:03.102,-0.311214,-0.647779,0.251559,-0.648264,-1.050255,-0.095717,0.016359,-0.089464,1.004671,0.38007,0,0
6445,2024 8 08,15:41:03.110,-0.311282,-0.647682,0.251579,-0.64832,-1.046766,-0.089799,0.027191,-1.0021,1.277438,0.073446,0,0
6446,2024 8 08,15:41:03.119,-0.311295,-0.647664,0.251582,-0.648331,-1.0461,-0.08867,0.029258,-1.176251,1.329488,0.014935,0,0
6447,2024 8 08,15:41:03.127,-0.311387,-0.647559,0.251589,-0.648389,-1.039435,-0.098816,0.021606,-1.403316,1.820166,-0.332973,0,0
6448,2024 8 08,15:41:03.135,-0.311519,-0.647451,0.251614,-0.648424,-1.03955,-0.092984,0.028722,-1.49857,1.401707,-0.358805,0,0
6449,2024 8 08,15:41:03.144,-0.311651,-0.64735,0.251637,-0.648453,-1.042949,-0.089075,0.038912,-1.285222,1.075278,-0.551944,0,0
6450,2024 8 08,15:41:03.152,-0.311787,-0.64726,0.251654,-0.64847,-1.049656,-0.085956,0.031989,-1.5141,0.954083,-0.596255,0,0
6451,2024 8 08,15:41:03.160,-0.311907,-0.647177,0.251671,-0.648489,-1.062604,-0.089239,0.02265,-1.294138,0.970936,-0.469548,0,0
6452,2024 8 08,15:41:03.169,-0.311937,-0.647156,0.251676,-0.648493,-1.065807,-0.090051,0.020339,-1.239725,0.975105,-0.438203,0,0
6453,2024 8 08,15:41:03.177,-0.312079,-0.647068,0.251644,-0.648525,-1.059475,-0.099558,0.022609,-1.449316,1.780858,-1.056044,0,0
6454,2024 8 08,15:41:03.185,-0.312288,-0.646926,0.25158,-0.648591,-1.056032,-0.097122,0.021088,-1.593147,2.612731,-1.396254,0,0
6455,2024 8 08,15:41:03.194,-0.312537,-0.646749,0.251516,-0.648673,-1.059987,-0.09471,0.029763,-1.850875,3.014451,-1.620155,0,0
6456,2024 8 08,15:41:03.202,-0.312817,-0.646534,0.25142,-0.64879,-1.052455,-0.098527,0.030125,-1.750418,3.689045,-1.812681,0,0
6457,2024 8 08,15:41:03.210,-0.313104,-0.6463,0.251305,-0.648929,-1.051647,-0.091423,0.026469,-1.635934,4.054812,-1.953755,0,0
6458,2024 8 08,15:41:03.219,-0.313405,-0.646042,0.251131,-0.649108,-1.049379,-0.091008,0.034515,-1.179273,4.966429,-2.291488,0,0
6459,2024 8 08,15:41:03.227,-0.313496,-0.645963,0.251078,-0.649162,-1.048689,-0.090881,0.036962,-1.040394,5.243669,-2.394198,0,0
6460,2024 8 08,15:41:03.235,-0.313714,-0.645764,0.250883,-0.649331,-1.047812,-0.101764,0.031767,-0.624796,5.205928,-2.508937,0,0
6461,2024 8 08,15:41:03.244,-0.313979,-0.645527,0.250635,-0.649534,-1.04393,-0.098692,0.000618,-0.32857,5.275764,-2.50458,0,0
6462,2024 8 08,15:41:03.252,-0.314266,-0.645284,0.250403,-0.649726,-1.05498,-0.097239,0.039215,-0.758621,4.974468,-2.38164,0,0
6463,2024 8 08,15:41:03.260,-0.314452,-0.645126,0.250249,-0.649852,-1.058872,-0.097172,0.03926,-0.924616,4.945985,-2.401571,0,0
6464,2024 8 08,15:41:03.269,-0.314771,-0.646538,0.251267,-0.647898,-1.050732,-0.096979,0.025967,-0.667669,5.697968,-2.938154,0,0
6465,2024 8 08,15:41:03.277,-0.315063,-0.644618,0.249739,-0.650256,-1.063413,-0.095762,0.029618,-0.962955,5.618879,-3.1051,0,0
6466,2024 8 08,15:41:03.285,-0.315126,-0.644568,0.249691,-0.650294,-1.063093,-0.095771,0.029217,-1.014632,5.700943,-3.174524,0,0
6467,2024 8 08,15:41:03.294,-0.315507,-0.644271,0.249407,-0.650513,-1.056669,-0.096041,0.026279,-1.377406,6.374687,-3.669953,0,0
6468,2024 8 08,15:41:03.302,-0.315992,-0.643922,0.249097,-0.650741,-1.050782,-0.094443,0.03241,-2.11979,7.160195,-4.415769,0,0
6469,2024 8 08,15:41:03.310,-0.316528,-0.643582,0.248759,-0.650946,-1.054119,-0.090882,0.046811,-1.956011,6.769661,-5.039245,0,0
6470,2024 8 08,15:41:03.319,-0.317035,-0.643266,0.248332,-0.651175,-1.063383,-0.102259,0.035733,-0.7551,7.168878,-5.429696,0,0
6471,2024 8 08,15:41:03.327,-0.317494,-0.643,0.2479,-0.651379,-1.059212,-0.101651,0.024524,-0.253529,7.305093,-6.074076,0,0
6472,2024 8 08,15:41:03.335,-0.317615,-0.642928,0.24778,-0.651437,-1.058134,-0.100778,0.026075,-0.199754,7.478678,-6.202301,0,0
6473,2024 8 08,15:41:03.344,-0.318105,-0.642628,0.247263,-0.65169,-1.054218,-0.096236,0.043814,-0.124952,8.513858,-6.555806,0,0
6474,2024 8 08,15:41:03.352,-0.318628,-0.642296,0.246624,-0.652003,-1.053085,-0.099935,0.042493,0.645651,8.845635,-6.768095,0,0
6475,2024 8 08,15:41:03.360,-0.319152,-0.649715,0.233245,-0.649314,-1.056725,-0.103648,0.051137,1.182564,9.176975,-7.004081,0,0
6476,2024 8 08,15:41:03.369,-0.319647,-0.645886,0.244791,-0.64864,-1.05851,-0.106238,0.05128,1.951353,9.221515,-7.264023,0,0
6477,2024 8 08,15:41:03.377,-0.320107,-0.641314,0.244469,-0.653056,-1.040017,-0.106013,0.054041,2.00222,10.255371,-7.609367,0,0
6478,2024 8 08,15:41:03.385,-0.320247,-0.641221,0.244247,-0.653162,-1.038077,-0.10634,0.055985,2.038168,10.317446,-7.641195,0,0
6479,2024 8 08,15:41:03.394,-0.320663,-0.640951,0.243562,-0.653478,-1.047469,-0.074324,0.01625,2.225061,9.482955,-7.445575,0,0
6480,2024 8 08,15:41:03.402,-0.321119,-0.640659,0.242769,-0.653836,-1.050232,-0.101802,0.049539,2.449225,9.26596,-7.504073,0,0
6481,2024 8 08,15:41:03.410,-0.321569,-0.640396,0.24191,-0.654191,-1.051962,-0.101853,0.057547,3.263226,9.322961,-7.921031,0,0
6482,2024 8 08,15:41:03.419,-0.321976,-0.640188,0.240979,-0.654537,-1.055027,-0.094983,0.068001,4.516709,8.508258,-8.300641,0,0
6483,2024 8 08,15:41:03.427,-0.322243,-0.640074,0.240022,-0.654869,-1.066553,-0.100671,0.053943,6.996513,8.673615,-8.668137,0,0
6484,2024 8 08,15:41:03.435,-0.322329,-0.640049,0.239664,-0.654982,-1.067998,-0.102161,0.050504,7.726034,8.523833,-8.850113,0,0
6485,2024 8 08,15:41:03.444,-0.3225,-0.640075,0.238666,-0.655237,-1.060547,-0.104469,0.051913,8.735367,7.246789,-9.611628,0,0
6486,2024 8 08,15:41:03.452,-0.322692,-0.645611,0.248109,-0.646141,-1.065942,-0.111823,0.065456,9.438511,6.514245,-10.750824,0,0
6487,2024 8 08,15:41:03.460,-0.322911,-0.640389,0.23611,-0.655653,-1.074896,-0.105242,0.061561,10.267146,5.082547,-11.878893,0,0
6488,2024 8 08,15:41:03.469,-0.323198,-0.640714,0.234745,-0.655685,-1.059067,-0.109905,0.060794,9.108043,3.309239,-13.630804,0,0
6489,2024 8 08,15:41:03.477,-0.323524,-0.641089,0.23355,-0.655584,-1.099924,-0.106791,0.049301,7.811929,0.984318,-14.688791,0,0
6490,2024 8 08,15:41:03.485,-0.323686,-0.644913,0.248875,-0.646046,-1.105658,-0.108811,0.044864,7.241373,0.489579,-15.20076,0,0
6491,2024 8 08,15:41:03.494,-0.324229,-0.641591,0.232069,-0.655271,-1.068532,-0.125546,0.043203,5.633636,1.401388,-16.766939,0,0
6492,2024 8 08,15:41:03.502,-0.324976,-0.641987,0.230884,-0.65493,-1.062837,-0.117057,0.076111,3.752333,0.838796,-18.238462,0,0
6493,2024 8 08,15:41:03.510,-0.325831,-0.64244,0.229608,-0.654509,-1.06345,-0.125129,0.052202,3.765893,0.361879,-19.47245,0,0
6494,2024 8 08,15:41:03.519,-0.326784,-0.643037,0.228336,-0.653893,-1.076045,-0.12357,0.091205,2.702862,-2.247989,-21.301893,0,0
6495,2024 8 08,15:41:03.527,-0.328219,-0.643899,0.226485,-0.65297,-1.071851,-0.136595,0.039088,2.383514,-2.499962,-23.779331,0,0
6496,2024 8 08,15:41:03.535,-0.328233,-0.643908,0.226467,-0.652962,-1.071811,-0.13672,0.038588,2.38045,-2.50238,-23.803102,0,0
6497,2024 8 08,15:41:03.544,-0.329431,-0.644651,0.225176,-0.652071,-1.087285,-0.13813,0.08078,1.208066,-4.671209,-25.327688,0,0
6498,2024 8 08,15:41:03.552,-0.330857,-0.645367,0.223792,-0.651116,-1.076802,-0.139571,0.077347,-0.339057,-3.254579,-27.177284,0,0
6499,2024 8 08,15:41:03.560,-0.33241,-0.646063,0.222329,-0.650135,-1.09855,-0.14602,0.032555,-0.990242,-3.293097,-28.868694,0,0
6500,2024 8 08,15:41:03.569,-0.334158,-0.646839,0.220897,-0.648954,-1.114807,-0.159012,0.012515,-2.996397,-4.809713,-31.168653,0,0
6501,2024 8 08,15:41:03.577,-0.336171,-0.647521,0.219465,-0.647718,-1.104169,-0.168455,0.048942,-5.147071,-2.885936,-33.011196,0,0
6502,2024 8 08,15:41:03.585,-0.336359,-0.647585,0.219332,-0.647603,-1.10318,-0.169333,0.05233,-5.347112,-2.706999,-33.182579,0,0
6503,2024 8 08,15:41:03.594,-0.338487,-0.647954,0.217954,-0.646589,-1.106085,-0.167706,0.029468,-7.948076,0.644193,-35.135555,0,0
6504,2024 8 08,15:41:03.602,-0.340995,-0.648378,0.216409,-0.645363,-1.12212,-0.16709,0.04883,-9.367695,-0.339433,-37.592125,0,0
6505,2024 8 08,15:41:03.610,-0.343686,-0.648902,0.214782,-0.643951,-1.13173,-0.169939,0.050503,-8.401196,-1.774446,-40.107208,0,0
6506,2024 8 08,15:41:03.619,-0.346486,-0.64958,0.213002,-0.642355,-1.178913,-0.171993,0.054868,-10.070824,-2.802777,-43.507038,0,0
6507,2024 8 08,15:41:03.627,-0.349605,-0.650006,0.210933,-0.640915,-1.153921,-0.164973,0.031495,-9.154122,3.559034,-46.52092,0,0
6508,2024 8 08,15:41:03.635,-0.350115,-0.650076,0.210595,-0.640679,-1.149836,-0.163825,0.027675,-9.004268,4.599007,-47.013603,0,0
6509,2024 8 08,15:41:03.644,-0.352995,-0.650502,0.208603,-0.639315,-1.240834,-0.148936,0.048845,-11.657915,1.356011,-51.962654,0,0
6510,2024 8 08,15:41:03.652,-0.356665,-0.650811,0.205932,-0.637825,-1.235287,-0.180291,-0.017024,-9.942801,9.381163,-57.335056,0,0
6511,2024 8 08,15:41:03.660,-0.360991,-0.650871,0.202857,-0.636312,-1.276402,-0.163171,0.039442,-15.173403,11.815031,-64.623367,0,0
6512,2024 8 08,15:41:03.669,-0.365855,-0.650812,0.199323,-0.634706,-1.271435,-0.178785,0.044116,-14.332209,15.993157,-71.754494,0,0
6513,2024 8 08,15:41:03.677,-0.37124,-0.650497,0.195238,-0.633166,-1.27528,-0.162868,0.052672,-15.473826,22.270737,-79.089897,0,0
6514,2024 8 08,15:41:03.685,-0.377029,-0.650057,0.190531,-0.631625,-1.285097,-0.177965,0.044511,-15.122915,26.100965,-86.795067,0,0
6515,2024 8 08,15:41:03.694,-0.378378,-0.649955,0.189434,-0.631266,-1.287384,-0.181482,0.04261,-15.041159,26.993355,-88.590263,0,0
6516,2024 8 08,15:41:03.702,-0.383492,-0.649644,0.185083,-0.62978,-1.307251,-0.203105,0.04543,-14.064835,26.571606,-95.264961,0,0
6517,2024 8 08,15:41:03.710,-0.389959,-0.649142,0.179497,-0.62793,-1.325559,-0.184755,0.043255,-14.810467,31.643295,-104.097198,0,0
6518,2024 8 08,15:41:03.719,-0.397164,-0.648559,0.173092,-0.6258,-1.35452,-0.19495,0.05088,-15.582424,33.359249,-114.398895,0,0
6519,2024 8 08,15:41:03.727,-0.40512,-0.647881,0.165977,-0.623314,-1.413669,-0.2012,0.043066,-16.27313,36.062752,-126.133423,0,0
6520,2024 8 08,15:41:03.735,-0.413801,-0.647066,0.158059,-0.620496,-1.466191,-0.170206,0.036036,-16.724787,40.637505,-139.247971,0,0
6521,2024 8 08,15:41:03.744,-0.416267,-0.646835,0.15581,-0.619695,-1.481107,-0.161404,0.03404,-16.85305,41.936668,-142.972321,0,0
6522,2024 8 08,15:41:03.752,-0.423724,-0.646037,0.148515,-0.617235,-1.549463,-0.175517,0.055586,-16.081955,47.507401,-153.804092,0,0
6523,2024 8 08,15:41:03.760,-0.432973,-0.644828,0.138767,-0.614306,-1.598223,-0.209041,0.033752,-10.547324,55.658176,-166.266632,0,0
6524,2024 8 08,15:41:03.769,-0.443051,-0.643511,0.127453,-0.610908,-1.640512,-0.262642,-0.013928,-6.932559,60.450935,-180.711456,0,0
6525,2024 8 08,15:41:03.777,-0.453735,-0.641829,0.114763,-0.607307,-1.685778,-0.3408,-0.075721,-4.065783,70.485939,-193.533661,0,0
6526,2024 8 08,15:41:03.785,-0.465001,-0.639611,0.100881,-0.603543,-1.712402,-0.416486,-0.08222,-2.695458,80.031815,-205.443436,0,0
6527,2024 8 08,15:41:03.794,-0.470574,-0.638515,0.094013,-0.60168,-1.725572,-0.453927,-0.085436,-2.017577,84.754028,-211.335052,0,0
6528,2024 8 08,15:41:03.802,-0.472199,-0.638088,0.091912,-0.601147,-1.718134,-0.463167,-0.070187,-2.103163,86.095184,-212.455597,0,0
6529,2024 8 08,15:41:03.810,-0.483893,-0.634923,0.076715,-0.597301,-1.654036,-0.526313,0.011807,-2.696898,95.011971,-220.077423,0,0
6530,2024 8 08,15:41:03.819,-0.495926,-0.631174,0.060707,-0.593225,-1.558966,-0.559739,-0.06183,-3.18481,98.146957,-224.835999,0,0
6531,2024 8 08,15:41:03.827,-0.507821,-0.627325,0.044921,-0.588627,-1.622299,-0.518443,0.022251,-4.935488,93.642471,-224.353317,0,0
6532,2024 8 08,15:41:03.835,-0.519459,-0.62295,0.029114,-0.584088,-1.546823,-0.486531,0.003912,-5.53548,99.441223,-222.526886,0,0
6533,2024 8 08,15:41:03.844,-0.529486,-0.618761,0.01525,-0.580092,-1.41855,-0.48103,0.030557,-6.829435,101.370773,-221.811783,0,0
6534,2024 8 08,15:41:03.852,-0.531765,-0.617751,0.012076,-0.579147,-1.396699,-0.481132,0.018069,-7.240778,101.342888,-221.622253,0,0
6535,2024 8 08,15:41:03.860,-0.542112,-0.613012,-0.002269,-0.574656,-1.317834,-0.476411,-0.080318,-10.025486,98.401215,-220.605103,0,0
6536,2024 8 08,15:41:03.869,-0.553312,-0.607928,-0.016877,-0.569099,-1.223897,-0.413081,-0.112789,-16.738571,86.433411,-219.027267,0,0
6537,2024 8 08,15:41:03.877,-0.564711,-0.602699,-0.030677,-0.562847,-1.081942,-0.33565,-0.133994,-24.237419,77.295769,-217.525391,0,0
6538,2024 8 08,15:41:03.885,-0.576261,-0.597212,-0.04363,-0.55609,-0.854715,-0.244597,-0.233222,-33.288586,69.205208,-215.140594,0,0
6539,2024 8 08,15:41:03.894,-0.586475,-0.592125,-0.054366,-0.549913,-0.654926,-0.13091,-0.145427,-39.148254,66.451355,-209.523102,0,0
6540,2024 8 08,15:41:03.902,-0.589332,-0.590522,-0.057347,-0.548301,-0.518059,-0.029232,-0.171546,-41.342262,67.627556,-205.313934,0,0
6541,2024 8 08,15:41:03.910,-0.598302,-0.584649,-0.066628,-0.54379,0.1078,0.50675,-0.396064,-46.465088,74.273773,-174.369476,0,0
6542,2024 8 08,15:41:03.919,-0.605047,-0.579572,-0.073724,-0.540862,-0.225235,0.566975,-0.167406,-24.86939,48.429008,-103.15686,0,0
6543,2024 8 08,15:41:03.927,-0.607478,-0.577895,-0.077364,-0.539449,-0.698568,0.696399,0.174931,-0.891571,26.08601,-41.039787,0,0
6544,2024 8 08,15:41:03.935,-0.60558,-0.57747,-0.080169,-0.541626,-0.600715,0.803685,-0.125257,35.07885,43.021362,15.463726,0,0
6545,2024 8 08,15:41:03.944,-0.600777,-0.578347,-0.082422,-0.545685,-0.625271,0.685063,-0.057579,64.566345,51.273262,55.725826,0,0
6546,2024 8 08,15:41:03.952,-0.59876,-0.578788,-0.083213,-0.547308,-0.611199,0.645742,-0.059391,73.251732,53.874813,66.962379,0,0
6547,2024 8 08,15:41:03.960,-0.591162,-0.580844,-0.085468,-0.552983,-0.470234,0.547646,-0.1788,90.166832,57.536449,85.845062,0,0
6548,2024 8 08,15:41:03.969,-0.581233,-0.584324,-0.087479,-0.559462,-0.348449,0.476324,-0.290954,102.209625,44.501911,101.096786,0,0
6549,2024 8 08,15:41:03.977,-0.570129,-0.589108,-0.088335,-0.565682,-0.353338,0.395501,-0.32427,107.888611,25.733023,114.419144,0,0
6550,2024 8 08,15:41:03.985,-0.558266,-0.594845,-0.087676,-0.571564,-0.441311,0.327981,-0.325446,108.145546,8.522648,128.633698,0,0
6551,2024 8 08,15:41:03.994,-0.547,-0.600439,-0.085837,-0.576878,-0.534292,0.276166,-0.322093,105.502655,-1.616579,144.240494,0,0
6552,2024 8 08,15:41:04.002,-0.542589,-0.602573,-0.08493,-0.578985,-0.56652,0.254629,-0.31905,103.982979,-4.354001,150.403442,0,0
6553,2024 8 08,15:41:04.010,-0.531574,-0.607528,-0.081586,-0.584431,-0.619492,0.192677,-0.30438,97.376686,-4.737284,165.640686,0,0
6554,2024 8 08,15:41:04.019,-0.518442,-0.612818,-0.076571,-0.591293,-0.638359,0.107831,-0.299987,86.826797,-4.391678,180.76561,0,0
6555,2024 8 08,15:41:04.027,-0.504729,-0.617833,-0.06994,-0.598679,-0.631869,0.025938,-0.310924,72.884415,-9.380194,193.085892,0,0
6556,2024 8 08,15:41:04.035,-0.491131,-0.622628,-0.061437,-0.605884,-0.640561,-0.031942,-0.300997,56.006058,-21.69965,202.578766,0,0
6557,2024 8 08,15:41:04.044,-0.479096,-0.626886,-0.0521,-0.612003,-0.668725,-0.048008,-0.285315,39.406479,-36.268509,210.760666,0,0
6558,2024 8 08,15:41:04.052,-0.474068,-0.628677,-0.047872,-0.614494,-0.689842,-0.049423,-0.274423,32.572868,-42.475639,214.457794,0,0
6559,2024 8 08,15:41:04.060,-0.460297,-0.633674,-0.033897,-0.620834,-0.815913,-0.014657,-0.212912,14.591719,-60.359474,226.620621,0,0
6560,2024 8 08,15:41:04.069,-0.447349,-0.638115,-0.018608,-0.626366,-0.99858,0.012266,-0.154742,3.353202,-67.33255,237.136841,0,0
6561,2024 8 08,15:41:04.077,-0.434247,-0.64199,-0.002421,-0.631868,-1.13961,0.010316,-0.079533,-3.446681,-66.612175,242.978973,0,0
6562,2024 8 08,15:41:04.085,-0.420981,-0.645198,0.013913,-0.637398,-1.195624,-0.01585,-0.053949,-5.633638,-62.278194,244.204605,0,0
6563,2024 8 08,15:41:04.094,-0.407524,-0.648034,0.030106,-0.64268,-1.242214,-0.056058,-0.006418,-3.549523,-61.855309,243.512894,0,0
6564,2024 8 08,15:41:04.102,-0.406736,-0.6482,0.031054,-0.642989,-1.24494,-0.05841,-0.003637,-3.427583,-61.830563,243.472427,0,0
6565,2024 8 08,15:41:04.110,-0.393841,-0.650634,0.045845,-0.647629,-1.303131,-0.075532,0.013961,1.265216,-61.549973,242.800369,0,0
6566,2024 8 08,15:41:04.119,-0.379487,-0.653318,0.061244,-0.652195,-1.385051,-0.101179,0.041408,8.92128,-63.724976,242.908051,0,0
6567,2024 8 08,15:41:04.127,-0.364349,-0.656133,0.076123,-0.656413,-1.461158,-0.174376,0.029786,19.861687,-65.455742,241.888702,0,0
6568,2024 8 08,15:41:04.135,-0.348661,-0.659057,0.090195,-0.660204,-1.486665,-0.264997,0.002414,30.584759,-66.715927,237.713333,0,0
6569,2024 8 08,15:41:04.144,-0.332613,-0.662278,0.103351,-0.66332,-1.502866,-0.367218,-0.019078,40.282249,-71.827103,230.55777,0,0
6570,2024 8 08,15:41:04.152,-0.316385,-0.665937,0.115616,-0.665564,-1.545414,-0.48416,-0.041108,48.555191,-78.808197,221.689499,0,0
6571,2024 8 08,15:41:04.160,-0.314022,-0.66647,0.117403,-0.66589,-1.551611,-0.501193,-0.044317,49.760185,-79.825027,220.397797,0,0
6572,2024 8 08,15:41:04.169,-0.30006,-0.670014,0.127227,-0.666929,-1.568392,-0.609256,-0.035902,53.69857,-85.60862,211.227005,0,0
6573,2024 8 08,15:41:04.177,-0.284672,-0.67424,0.137652,-0.667325,-1.563603,-0.710203,-0.02969,55.45924,-91.579872,199.386215,0,0
6574,2024 8 08,15:41:04.185,-0.269688,-0.678829,0.147619,-0.66676,-1.518504,-0.809971,-0.017126,53.699158,-98.767281,185.078888,0,0
6575,2024 8 08,15:41:04.194,-0.255643,-0.683872,0.157036,-0.664986,-1.493616,-0.904851,0.004747,49.027695,-109.191818,168.289551,0,0
6576,2024 8 08,15:41:04.202,-0.242836,-0.689458,0.165929,-0.661853,-1.489443,-1.009993,0.022576,41.598938,-120.604454,149.978577,0,0
6577,2024 8 08,15:41:04.210,-0.240166,-0.690622,0.167783,-0.6612,-1.488573,-1.03191,0.026292,40.050385,-122.983467,146.161575,0,0
6578,2024 8 08,15:41:04.219,-0.230946,-0.695765,0.174704,-0.657264,-1.53199,-1.126158,0.050409,32.241539,-131.960144,131.279724,0,0
6579,2024 8 08,15:41:04.227,-0.221494,-0.701732,0.182423,-0.652038,-1.536291,-1.221131,0.096007,22.062672,-133.119186,116.474808,0,0
6580,2024 8 08,15:41:04.235,-0.213072,-0.707478,0.190238,-0.646374,-1.459864,-1.312964,0.144597,9.974916,-129.126648,106.825554,0,0
6581,2024 8 08,15:41:04.244,-0.205398,-0.712713,0.198496,-0.640596,-1.377988,-1.370689,0.202591,-0.745348,-125.063469,108.130058,0,0
6582,2024 8 08,15:41:04.252,-0.197952,-0.717096,0.207626,-0.635129,-1.325626,-1.378905,0.297648,-9.385922,-116.904625,118.142494,0,0
6583,2024 8 08,15:41:04.260,-0.195997,-0.718247,0.210024,-0.633693,-1.311873,-1.381063,0.322615,-11.655399,-114.761673,120.772293,0,0
6584,2024 8 08,15:41:04.269,-0.190024,-0.720681,0.218101,-0.629989,-1.338287,-1.396718,0.418401,-15.555936,-104.280479,128.93219,0,0
6585,2024 8 08,15:41:04.277,-0.183178,-0.72263,0.227493,-0.626435,-1.367839,-1.452032,0.489148,-15.908185,-88.056229,129.390289,0,0
6586,2024 8 08,15:41:04.285,-0.176928,-0.723722,0.23622,-0.623737,-1.324569,-1.562163,0.512199,-14.509874,-66.262543,116.32682,0,0
6587,2024 8 08,15:41:04.294,-0.172054,-0.724241,0.243307,-0.621785,-1.208417,-1.698707,0.521368,-13.2925,-49.074028,93.11058,0,0
6588,2024 8 08,15:41:04.302,-0.168874,-0.724523,0.248508,-0.620287,-1.048541,-1.826857,0.488261,-13.385372,-35.36636,66.639778,0,0
6589,2024 8 08,15:41:04.310,-0.167889,-0.72461,0.25012,-0.619822,-0.998995,-1.866572,0.478,-13.414154,-31.118269,58.43631,0,0
6590,2024 8 08,15:41:04.319,-0.167071,-0.724927,0.252569,-0.618683,-0.867407,-1.917246,0.446188,-15.761984,-28.047525,39.094002,0,0
6591,2024 8 08,15:41:04.327,-0.167277,-0.725827,0.254569,-0.61675,-0.825052,-1.910295,0.43587,-20.78656,-32.695068,17.676437,0,0
6592,2024 8 08,15:41:04.335,-0.167833,-0.726693,0.25573,-0.615098,-1.325221,-1.98989,0.316338,-28.445671,-41.154076,0.764135,0,0
6593,2024 8 08,15:41:04.344,-0.172259,-0.729589,0.256379,-0.610143,-4.151836,-2.272846,-0.19742,-60.154243,-59.408981,-46.644478,0,0
6594,2024 8 08,15:41:04.352,-0.184233,-0.73015,0.253315,-0.607224,-1.26738,-0.645931,0.849555,-64.277718,78.345413,-97.011475,0,0
6595,2024 8 08,15:41:04.360,-0.197019,-0.723027,0.250064,-0.613079,-0.838052,0.151727,-0.683558,-119.40451,139.499741,-97.043999,1,0
6596,2024 8 08,15:41:04.369,-0.199105,-0.72232,0.249866,-0.613321,-0.890043,0.236719,-0.74265,-117.803078,129.074219,-93.841629,0,0
6597,2024 8 08,15:41:04.377,-0.209027,-0.719957,0.249475,-0.612954,-1.363888,0.437841,-0.551184,-84.459145,45.616158,-72.699753,0,0
6598,2024 8 08,15:41:04.385,-0.217133,-0.717312,0.247319,-0.614106,-1.340998,0.053061,-0.205652,-50.49308,69.744286,-66.87722,0,0
6599,2024 8 08,15:41:04.394,-0.224471,-0.712832,0.242441,-0.618606,-1.101214,0.11595,0.139655,-12.389645,111.09761,-67.840767,0,0
6600,2024 8 08,15:41:04.402,-0.22814,-0.708614,0.235055,-0.624931,-0.939421,-0.203792,-0.119431,39.100208,106.033646,-55.62722,0,0
6601,2024 8 08,15:41:04.410,-0.229389,-0.70622,0.229267,-0.629331,-1.019116,-0.30955,-0.001837,41.873962,75.254898,-36.225723,0,0
6602,2024 8 08,15:41:04.419,-0.229604,-0.705578,0.227926,-0.630463,-1.030772,-0.290818,0.036074,41.812542,71.819946,-32.186417,0,0
6603,2024 8 08,15:41:04.427,-0.229963,-0.703068,0.22345,-0.634718,-1.036706,-0.088092,0.151919,39.693768,74.627129,-22.361214,0,0
6604,2024 8 08,15:41:04.435,-0.230067,-0.700263,0.218458,-0.639499,-1.019329,-0.088904,-0.024337,42.340523,71.330078,-22.255892,0,0
6605,2024 8 08,15:41:04.444,-0.230013,-0.69792,0.213652,-0.64369,-1.042951,-0.081952,-0.019423,39.767647,63.050392,-21.064587,0,0
6606,2024 8 08,15:41:04.452,-0.229679,-0.695762,0.208963,-0.647674,-1.042261,-0.110144,-0.072939,43.381443,59.045933,-18.752674,0,0
6607,2024 8 08,15:41:04.460,-0.229262,-0.693986,0.204973,-0.650998,-1.022491,-0.112663,-0.032067,40.749989,54.620724,-17.223391,0,0
6608,2024 8 08,15:41:04.469,-0.229149,-0.693431,0.203767,-0.652009,-1.017108,-0.112319,-0.019158,39.333359,53.376122,-16.819704,0,0
6609,2024 8 08,15:41:04.477,-0.228903,-0.691825,0.200449,-0.654823,-1.014532,-0.110527,0.009792,33.38332,50.196354,-15.940589,0,0
6610,2024 8 08,15:41:04.485,-0.228669,-0.690129,0.196946,-0.657749,-1.060921,-0.131227,-0.010173,31.761295,45.797962,-14.710022,0,0
6611,2024 8 08,15:41:04.494,-0.228534,-0.688431,0.193713,-0.66053,-1.045618,-0.097201,0.011885,27.305458,42.460487,-13.126486,0,0
6612,2024 8 08,15:41:04.502,-0.228467,-0.686765,0.190771,-0.663139,-1.051688,-0.111662,-0.025393,23.57349,41.140011,-11.799391,0,0
6613,2024 8 08,15:41:04.510,-0.228495,-0.685323,0.188368,-0.665307,-1.059773,-0.124886,-0.007918,21.014849,37.907452,-10.96569,0,0
6614,2024 8 08,15:41:04.519,-0.22851,-0.684802,0.187542,-0.666074,-1.058157,-0.132639,-0.005274,20.091593,36.826862,-10.439771,0,0
6615,2024 8 08,15:41:04.527,-0.228598,-0.683525,0.185757,-0.667851,-1.033223,-0.155578,-0.012149,17.40942,34.330971,-8.285527,0,0
6616,2024 8 08,15:41:04.535,-0.22886,-0.682149,0.184128,-0.669618,-1.019974,-0.115792,0.009253,11.777859,29.91972,-7.474293,0,0
6617,2024 8 08,15:41:04.544,-0.229189,-0.680902,0.182796,-0.671138,-1.033253,-0.099365,0.017557,6.008665,25.632088,-6.38641,0,0
6618,2024 8 08,15:41:04.552,-0.229584,-0.679788,0.181721,-0.672424,-1.041494,-0.108973,-0.005356,3.726269,22.029957,-5.45763,0,0
6619,2024 8 08,15:41:04.560,-0.230044,-0.678875,0.180965,-0.673393,-1.043904,-0.130458,0.005525,2.066011,18.843939,-5.737471,0,0
6620,2024 8 08,15:41:04.569,-0.23024,-0.678528,0.180682,-0.673752,-1.047402,-0.119888,0.020259,1.368666,17.586287,-5.827151,0,0
6621,2024 8 08,15:41:04.577,-0.230731,-0.677894,0.180178,-0.674357,-1.064191,-0.092226,0.001467,-0.189495,15.213762,-6.042604,0,0
6622,2024 8 08,15:41:04.585,-0.231354,-0.677224,0.179593,-0.674972,-1.058249,-0.098132,0.004857,-1.30887,13.823378,-6.999233,0,0
6623,2024 8 08,15:41:04.594,-0.232078,-0.676562,0.179079,-0.675525,-1.059328,-0.092445,0.009065,-2.372943,12.49817,-6.954169,0,0
6624,2024 8 08,15:41:04.602,-0.233153,-0.675654,0.178388,-0.676246,-1.061542,-0.100538,-0.004795,-3.896559,12.208871,-7.928374,0,0
6625,2024 8 08,15:41:04.610,-0.234101,-0.675006,0.177936,-0.676685,-1.052478,-0.09581,0.015662,-4.562923,11.789055,-8.651035,0,0
6626,2024 8 08,15:41:04.619,-0.235051,-0.674392,0.17756,-0.677067,-1.06593,-0.091946,0.024567,-5.75334,10.603884,-8.019479,0,0
6627,2024 8 08,15:41:04.627,-0.235085,-0.674369,0.177546,-0.677081,-1.066413,-0.091807,0.024886,-5.796054,10.561358,-7.996819,0,0
6628,2024 8 08,15:41:04.635,-0.23607,-0.67377,0.177129,-0.677444,-1.05228,-0.095454,-0.005695,-5.912357,11.586716,-9.536914,0,0
6629,2024 8 08,15:41:04.644,-0.237109,-0.673221,0.176725,-0.677732,-1.050478,-0.106938,0.026557,-5.807269,9.514446,-9.241415,0,0
6630,2024 8 08,15:41:04.652,-0.23819,-0.672676,0.176353,-0.677992,-1.038805,-0.099395,0.021949,-6.242773,9.243581,-9.551317,0,0
6631,2024 8 08,15:41:04.660,-0.239193,-0.672194,0.175984,-0.678212,-1.051311,-0.113149,0.003163,-5.516653,8.727112,-9.087226,0,0
6632,2024 8 08,15:41:04.669,-0.240255,-0.671709,0.175666,-0.6784,-1.037069,-0.104643,0.012015,-7.328914,8.188801,-9.255156,0,0
6633,2024 8 08,15:41:04.677,-0.240377,-0.671653,0.175629,-0.678422,-1.03543,-0.103664,0.013033,-7.537518,8.126837,-9.274486,0,0
6634,2024 8 08,15:41:04.685,-0.241373,-0.671233,0.17542,-0.678537,-1.02599,-0.116968,0.031628,-7.8263,7.332135,-9.172031,0,0
6635,2024 8 08,15:41:04.694,-0.242486,-0.670816,0.175236,-0.6786,-1.034203,-0.106806,0.028824,-8.332158,6.342059,-9.313089,0,0
6636,2024 8 08,15:41:04.702,-0.243622,-0.670439,0.175091,-0.678603,-1.037887,-0.106098,0.0235,-9.225253,5.529541,-9.334252,0,0
6637,2024 8 08,15:41:04.710,-0.244745,-0.670084,0.17496,-0.678584,-1.040094,-0.111227,0.041598,-8.512098,5.247436,-9.287249,0,0
6638,2024 8 08,15:41:04.719,-0.245839,-0.66973,0.174792,-0.678581,-1.044455,-0.102951,0.020819,-8.140736,5.348262,-9.229406,0,0
6639,2024 8 08,15:41:04.727,-0.246039,-0.669666,0.174761,-0.67858,-1.04525,-0.101443,0.017031,-8.073035,5.366642,-9.218863,0,0
6640,2024 8 08,15:41:04.735,-0.246891,-0.669384,0.174576,-0.678596,-1.050837,-0.11241,0.005044,-7.089565,5.758356,-8.974223,0,0
6641,2024 8 08,15:41:04.744,-0.247868,-0.669032,0.174329,-0.678651,-1.049285,-0.101595,0.035973,-6.602887,6.364825,-9.164301,0,0
6642,2024 8 08,15:41:04.752,-0.248818,-0.668635,0.173969,-0.678786,-1.067134,-0.11407,-0.006319,-5.363482,7.629651,-9.204638,0,0
6643,2024 8 08,15:41:04.760,-0.249764,-0.668268,0.173584,-0.678899,-1.060989,-0.119081,0.042674,-4.433947,7.021466,-9.307117,0,0
6644,2024 8 08,15:41:04.769,-0.25066,-0.667859,0.173083,-0.679099,-1.031472,-0.122456,0.035874,-3.526082,8.0825,-9.515634,0,0
6645,2024 8 08,15:41:04.777,-0.250875,-0.667761,0.172963,-0.679147,-1.024388,-0.121721,0.081412,-3.308184,8.33716,-9.56568,0,0
6646,2024 8 08,15:41:04.785,-0.251542,-0.667491,0.172537,-0.679274,-1.029486,-0.112635,0.05803,-2.847727,7.091553,-9.532996,0,0
6647,2024 8 08,15:41:04.794,-0.252258,-0.667175,0.171988,-0.679457,-1.037581,-0.125246,0.030601,-1.836799,7.261638,-9.25687,0,0
6648,2024 8 08,15:41:04.802,-0.253027,-0.666899,0.171475,-0.679573,-1.053849,-0.118366,0.074831,-2.979547,6.159967,-9.536336,0,0
6649,2024 8 08,15:41:04.810,-0.253773,-0.666534,0.170831,-0.679815,-1.059356,-0.135671,0.00356,-0.893966,7.864266,-9.612955,0,0
6650,2024 8 08,15:41:04.819,-0.254526,-0.66625,0.170184,-0.679974,-1.066087,-0.126753,0.067986,-0.477888,7.008187,-9.936499,0,0
6651,2024 8 08,15:41:04.827,-0.254745,-0.666168,0.169996,-0.68002,-1.068039,-0.124165,0.086677,-0.357179,6.759829,-10.030362,0,0
6652,2024 8 08,15:41:04.835,-0.255324,-0.665883,0.16933,-0.680247,-1.062544,-0.123057,0.005828,0.227292,8.331426,-10.817809,0,0
6653,2024 8 08,15:41:04.844,-0.25601,-0.665697,0.168535,-0.680369,-1.082238,-0.116374,0.085993,1.157102,6.432154,-11.893083,0,0
6654,2024 8 08,15:41:04.852,-0.256733,-0.665493,0.167522,-0.680545,-1.088728,-0.116927,0.040034,1.736987,6.787946,-13.179206,0,0
6655,2024 8 08,15:41:04.860,-0.257545,-0.66546,0.166444,-0.680535,-1.092113,-0.133776,0.034808,1.96341,4.776989,-15.347816,0,0
6656,2024 8 08,15:41:04.869,-0.258103,-0.665441,0.165754,-0.680512,-1.09477,-0.142015,0.033748,1.737187,3.884604,-16.787582,0,0
6657,2024 8 08,15:41:04.877,-0.259104,-0.665421,0.164756,-0.680393,-1.101,-0.141613,0.043293,-0.390479,4.505866,-19.124653,0,0
6658,2024 8 08,15:41:04.885,-0.259313,-0.665426,0.164586,-0.68035,-1.103086,-0.140456,0.039746,-0.625798,4.452346,-19.467335,0,0
6659,2024 8 08,15:41:04.894,-0.260758,-0.66546,0.163462,-0.680035,-1.110471,-0.130905,0.021506,-2.465919,3.961457,-21.902172,0,0
6660,2024 8 08,15:41:04.902,-0.262533,-0.665499,0.162315,-0.679589,-1.088886,-0.116807,0.051179,-6.239769,2.83531,-25.593412,0,0
6661,2024 8 08,15:41:04.910,-0.26453,-0.665713,0.161122,-0.678887,-1.153042,-0.120669,0.039108,-6.973467,-0.734893,-28.603891,0,0
6662,2024 8 08,15:41:04.919,-0.26683,-0.666058,0.159819,-0.677956,-1.149475,-0.127347,0.042087,-7.611228,-1.080459,-32.816101,0,0
6663,2024 8 08,15:41:04.927,-0.269047,-0.666421,0.158522,-0.677028,-1.152966,-0.13666,0.010815,-8.615901,-2.249861,-36.788147,0,0
6664,2024 8 08,15:41:04.935,-0.269627,-0.666531,0.158199,-0.676764,-1.152902,-0.140452,0.012053,-9.169242,-2.797547,-37.832912,0,0
6665,2024 8 08,15:41:04.944,-0.272384,-0.667071,0.156729,-0.675467,-1.157875,-0.155973,0.0382,-12.469291,-5.315861,-42.701618,0,0
6666,2024 8 08,15:41:04.952,-0.27582,-0.667585,0.15502,-0.673956,-1.197795,-0.141275,0.032818,-15.266665,-3.670732,-48.040356,0,0
6667,2024 8 08,15:41:04.960,-0.279716,-0.668063,0.153018,-0.672331,-1.153971,-0.152399,0.031833,-15.786661,-2.323806,-53.708759,0,0
6668,2024 8 08,15:41:04.969,-0.283843,-0.668703,0.150718,-0.670481,-1.176453,-0.145683,0.045185,-15.629887,-5.890371,-59.092655,0,0
6669,2024 8 08,15:41:04.977,-0.287645,-0.669476,0.148472,-0.66859,-1.20346,-0.156879,0.085459,-13.854394,-6.978145,-63.487141,0,0
6670,2024 8 08,15:41:04.985,-0.288791,-0.669682,0.147739,-0.668052,-1.205905,-0.157956,0.087708,-13.271379,-6.411657,-64.721046,0,0
6671,2024 8 08,15:41:04.994,-0.292698,-0.670262,0.144949,-0.666375,-1.201997,-0.152069,0.061686,-10.95517,-1.301807,-68.636284,0,0
6672,2024 8 08,15:41:05.002,-0.297211,-0.670848,0.141322,-0.66456,-1.259662,-0.145415,0.068697,-8.014217,1.175798,-74.260925,0,0
6673,2024 8 08,15:41:05.010,-0.302271,-0.671559,0.13713,-0.66243,-1.281387,-0.150538,0.053412,-8.195758,0.628929,-83.924423,0,0
6674,2024 8 08,15:41:05.019,-0.307808,-0.672271,0.132314,-0.660129,-1.287819,-0.168302,0.039286,-7.02284,3.046997,-92.258614,0,0
6675,2024 8 08,15:41:05.027,-0.313124,-0.672827,0.127525,-0.658006,-1.344761,-0.153028,0.075167,-6.644392,6.33653,-100.212059,0,0
6676,2024 8 08,15:41:05.035,-0.315037,-0.672988,0.125769,-0.65727,-1.363372,-0.149643,0.08225,-6.526689,7.726731,-103.255867,0,0
6677,2024 8 08,15:41:05.044,-0.320688,-0.673246,0.120402,-0.65526,-1.409549,-0.147938,0.069815,-6.337767,12.824484,-113.233971,0,0
6678,2024 8 08,15:41:05.052,-0.327827,-0.673288,0.113425,-0.652908,-1.472263,-0.137901,0.022262,-6.379302,18.975023,-126.751671,0,0
6679,2024 8 08,15:41:05.060,-0.335994,-0.673217,0.105294,-0.650166,-1.579536,-0.136882,0.006032,-5.569551,22.020918,-142.906189,0,0
6680,2024 8 08,15:41:05.069,-0.345254,-0.67318,0.095998,-0.64676,-1.719899,-0.13774,-0.047824,-6.643853,20.863216,-163.70282,0,0
6681,2024 8 08,15:41:05.077,-0.356032,-0.672784,0.08543,-0.642764,-1.819842,-0.101387,-0.055238,-11.543104,29.791996,-188.208786,0,0
6682,2024 8 08,15:41:05.085,-0.36715,-0.671671,0.074603,-0.639016,-1.882538,-0.047501,-0.086356,-18.116108,43.592907,-213.067261,0,0
6683,2024 8 08,15:41:05.094,-0.371735,-0.671145,0.070086,-0.637467,-1.911596,-0.033432,-0.090078,-19.561687,48.044075,-222.922241,0,0
6684,2024 8 08,15:41:05.102,-0.383348,-0.669441,0.058276,-0.633474,-2.002713,-0.032584,-0.054921,-16.820675,53.308136,-245.959351,0,0
6685,2024 8 08,15:41:05.110,-0.397851,-0.667023,0.042732,-0.62819,-2.111862,-0.009547,-0.023549,-13.022005,62.700325,-274.443787,0,0
6686,2024 8 08,15:41:05.119,-0.41378,-0.663592,0.024296,-0.622384,-2.142912,-0.094399,-0.00828,-6.750044,80.078201,-300.144409,0,0
6687,2024 8 08,15:41:05.127,-0.430463,-0.659049,0.003426,-0.616225,-2.103918,-0.184357,0.009934,-1.721644,96.539291,-322.301575,0,0
6688,2024 8 08,15:41:05.135,-0.445748,-0.654123,-0.017195,-0.610385,-1.999194,-0.405833,0.062721,7.454495,108.518196,-337.043396,0,0
6689,2024 8 08,15:41:05.144,-0.453366,-0.651668,-0.027473,-0.607474,-1.947,-0.516216,0.08903,12.027883,114.48848,-344.390717,0,0
6690,2024 8 08,15:41:05.152,-0.469723,-0.645422,-0.051531,-0.60009,-2.0271,-0.548425,-0.008481,16.535479,110.108864,-344.65799,0,1
6691,2024 8 08,15:41:05.160,-0.485517,-0.638305,-0.07532,-0.592558,-1.871631,-0.468842,0.074483,11.804474,121.099312,-339.461639,0,0
6692,2024 8 08,15:41:05.169,-0.500415,-0.629975,-0.099309,-0.585488,-1.632477,-0.487662,-0.143728,13.854767,126.969238,-331.643066,0,0
6693,2024 8 08,15:41:05.177,-0.514782,-0.621531,-0.122244,-0.577655,-1.397624,-0.361111,-0.055934,9.484621,118.667625,-324.795807,0,0
6694,2024 8 08,15:41:05.185,-0.528384,-0.613025,-0.14449,-0.569256,-1.172852,-0.240934,-0.272294,11.028786,107.353752,-318.225403,0,0
6695,2024 8 08,15:41:05.194,-0.529503,-0.612325,-0.146321,-0.568565,-1.154355,-0.231044,-0.290099,11.155861,106.422684,-317.684692,0,0
6696,2024 8 08,15:41:05.202,-0.541888,-0.605359,-0.164791,-0.559164,-1.03732,-0.071328,-0.322243,4.697554,76.428894,-314.479614,0,0
6697,2024 8 08,15:41:05.210,-0.555723,-0.597992,-0.182926,-0.54773,-0.834679,0.082283,-0.335999,-8.223489,52.126755,-311.667999,0,0
6698,2024 8 08,15:41:05.219,-0.570405,-0.591334,-0.199361,-0.533941,-0.812519,-0.034298,-0.341456,-11.411076,14.571327,-319.106232,0,0
6699,2024 8 08,15:41:05.227,-0.585869,-0.584051,-0.213581,-0.519508,0.384331,0.007548,-0.895724,-49.035549,7.436305,-298.586853,0,0
6700,2024 8 08,15:41:05.235,-0.599166,-0.574517,-0.222827,-0.511056,1.343663,0.798663,-0.861787,-79.805313,36.175453,-189.582733,0,0
6701,2024 8 08,15:41:05.244,-0.601219,-0.573045,-0.224254,-0.509751,1.491747,0.92078,-0.856548,-84.554962,40.61166,-172.756744,0,0
6702,2024 8 08,15:41:05.252,-0.606755,-0.571716,-0.222171,-0.505583,-0.072441,0.250363,-0.191565,-82.230194,-73.417465,-42.071777,0,0
6703,2024 8 08,15:41:05.260,-0.60958,-0.571704,-0.211612,-0.50671,-0.659412,0.721903,-0.228284,-74.096283,-59.063412,81.888428,0,0
6704,2024 8 08,15:41:05.269,-0.606613,-0.571861,-0.19943,-0.514938,-0.791067,0.838311,-0.171364,-66.126709,-16.099609,170.991776,0,0
6705,2024 8 08,15:41:05.277,-0.598951,-0.572015,-0.187425,-0.528032,-0.835084,0.645618,-0.09876,-47.22625,32.90078,221.667465,0,0
6706,2024 8 08,15:41:05.285,-0.588767,-0.571751,-0.176621,-0.543239,-0.634688,0.478423,-0.220381,-30.020504,52.214531,236.652847,0,0
6707,2024 8 08,15:41:05.294,-0.586568,-0.571694,-0.174288,-0.546522,-0.591416,0.44232,-0.246643,-26.30521,56.38501,239.888687,0,0
6708,2024 8 08,15:41:05.302,-0.577572,-0.572054,-0.165665,-0.558229,-0.410728,0.396944,-0.303209,-19.509621,42.568394,232.937073,0,0
6709,2024 8 08,15:41:05.310,-0.56731,-0.573422,-0.155293,-0.570166,-0.289235,0.350239,-0.323098,-13.592109,17.616915,224.545044,0,0
6710,2024 8 08,15:41:05.319,-0.55675,-0.576181,-0.14371,-0.580716,-0.314571,0.336321,-0.265022,-7.423506,-9.960707,222.365417,0,0
6711,2024 8 08,15:41:05.327,-0.54564,-0.580223,-0.131079,-0.590131,-0.406519,0.332092,-0.212628,0.243405,-30.306913,227.47731,0,0
6712,2024 8 08,15:41:05.335,-0.533552,-0.58529,-0.117513,-0.598947,-0.527158,0.309312,-0.172312,8.728109,-44.630127,238.804871,0,0
6713,2024 8 08,15:41:05.344,-0.530299,-0.586653,-0.113862,-0.60132,-0.559627,0.30318,-0.161461,11.011749,-48.485184,241.853653,0,0
6714,2024 8 08,15:41:05.352,-0.519386,-0.591381,-0.102268,-0.608191,-0.650275,0.236513,-0.152893,16.63905,-53.115215,253.599091,0,0
6715,2024 8 08,15:41:05.360,-0.505521,-0.597149,-0.088047,-0.616325,-0.711871,0.143966,-0.156976,21.121971,-56.71236,265.625275,0,0
6716,2024 8 08,15:41:05.369,-0.490245,-0.603294,-0.072546,-0.624582,-0.754053,0.046835,-0.186038,22.223694,-63.458576,275.352051,0,0
6717,2024 8 08,15:41:05.377,-0.474334,-0.609689,-0.055961,-0.632272,-0.819179,-0.033474,-0.195788,19.571926,-75.193474,280.798706,0,0
6718,2024 8 08,15:41:05.385,-0.458372,-0.616224,-0.038401,-0.638952,-0.905431,-0.098801,-0.181502,12.97674,-88.620659,280.607239,0,0
6719,2024 8 08,15:41:05.394,-0.453335,-0.618287,-0.032859,-0.64106,-0.932652,-0.119418,-0.176993,10.895313,-92.858253,280.546814,0,0
6720,2024 8 08,15:41:05.402,-0.441233,-0.623477,-0.018423,-0.644977,-1.043342,-0.096575,0.002785,5.624954,-103.952133,275.643921,0,0
6721,2024 8 08,15:41:05.410,-0.433206,-0.626933,-0.008677,-0.647405,-1.119866,-0.185391,-0.124177,2.060781,-110.363876,272.008118,0,0
6722,2024 8 08,15:41:05.419,-0.418468,-0.633295,0.010202,-0.650869,-1.274926,-0.21419,-0.054789,-4.682552,-115.765938,263.383179,0,0
6723,2024 8 08,15:41:05.427,-0.404122,-0.639013,0.028959,-0.653771,-1.400437,-0.222142,0.027383,-9.599735,-112.208809,256.367798,0,0
6724,2024 8 08,15:41:05.435,-0.389901,-0.64378,0.047271,-0.656652,-1.442844,-0.230355,0.102552,-10.518494,-102.047867,253.533859,0,0
6725,2024 8 08,15:41:05.444,-0.377403,-0.647126,0.062871,-0.659398,-1.420561,-0.232748,0.119419,-9.530187,-91.617355,253.881699,0,0
6726,2024 8 08,15:41:05.452,-0.374729,-0.647743,0.06611,-0.659978,-1.420694,-0.234545,0.12094,-9.154503,-90.544754,254.11702,0,0
6727,2024 8 08,15:41:05.460,-0.360903,-0.650681,0.082551,-0.662898,-1.434382,-0.247488,0.119368,-6.816834,-88.247231,255.289337,0,0
6728,2024 8 08,15:41:05.469,-0.345937,-0.653659,0.099761,-0.665562,-1.463957,-0.274496,0.086034,-4.150661,-90.523155,253.632446,0,0
6729,2024 8 08,15:41:05.477,-0.330787,-0.656719,0.116785,-0.667472,-1.50698,-0.352401,0.043625,-2.053184,-96.464836,248.95871,0,0
6730,2024 8 08,15:41:05.485,-0.315754,-0.659968,0.133551,-0.668399,-1.581917,-0.435522,0.017032,-1.524007,-104.74556,242.213181,0,0
6731,2024 8 08,15:41:05.494,-0.302642,-0.663043,0.148084,-0.668406,-1.673437,-0.519391,0.01834,-1.682801,-111.968254,234.96051,0,0
6732,2024 8 08,15:41:05.502,-0.29913,-0.6639,0.151965,-0.66828,-1.693098,-0.542848,0.016341,-1.711969,-113.641068,232.81517,0,0
6733,2024 8 08,15:41:05.510,-0.286382,-0.667159,0.165999,-0.667232,-1.742849,-0.631938,0.001998,-1.77429,-118.643814,224.088287,0,0
6734,2024 8 08,15:41:05.519,-0.272669,-0.670897,0.181021,-0.6653,-1.775428,-0.73047,-0.003865,-1.796583,-123.567123,213.271408,0,0
6735,2024 8 08,15:41:05.527,-0.259274,-0.674913,0.195541,-0.662474,-1.803304,-0.836598,-0.015798,-1.10572,-128.934662,200.111542,0,0
6736,2024 8 08,15:41:05.535,-0.246523,-0.679345,0.209092,-0.658665,-1.817217,-0.957181,-0.012028,0.706956,-135.852951,182.97702,0,0
6737,2024 8 08,15:41:05.544,-0.234575,-0.684359,0.221357,-0.653819,-1.799234,-1.102723,0.012513,3.49563,-142.657425,162.335876,0,0
6738,2024 8 08,15:41:05.552,-0.224598,-0.689318,0.23108,-0.648767,-1.720061,-1.256187,0.0387,8.078426,-148.387894,141.620575,0,0
6739,2024 8 08,15:41:05.560,-0.221401,-0.691073,0.234085,-0.646954,-1.687082,-1.303969,0.055328,9.623727,-150.427048,134.726898,0,0
6740,2024 8 08,15:41:05.569,-0.21292,-0.696636,0.24143,-0.641077,-1.558668,-1.420821,0.141634,14.09413,-156.873672,115.779198,0,0
6741,2024 8 08,15:41:05.577,-0.203671,-0.703522,0.248707,-0.633716,-1.383849,-1.520965,0.255575,18.939312,-164.188065,99.785248,0,0
6742,2024 8 08,15:41:05.585,-0.194252,-0.711039,0.255448,-0.625533,-1.183279,-1.573247,0.384776,23.411648,-171.309601,91.748528,0,0
6743,2024 8 08,15:41:05.594,-0.184521,-0.719092,0.261829,-0.616555,-1.070478,-0.055265,0.05088,27.72464,-182.825714,87.380478,0,0
6744,2024 8 08,15:41:05.602,-0.17553,-0.72679,0.267161,-0.607829,-1.074661,-1.682659,0.711323,32.037739,-192.390869,80.933006,0,0
6745,2024 8 08,15:41:05.610,-0.172189,-0.729708,0.269023,-0.604506,-1.086502,-1.733414,0.75723,33.604786,-194.166443,77.706451,0,0
6746,2024 8 08,15:41:05.619,-0.164526,-0.73675,0.272617,-0.596402,-1.166638,-1.958857,0.790024,36.319782,-187.07486,65.618446,0,0
6747,2024 8 08,15:41:05.627,-0.156937,-0.744142,0.275672,-0.587794,-1.261558,-2.215743,0.768088,33.657524,-164.081299,50.068092,0,0
6748,2024 8 08,15:41:05.635,-0.151209,-0.750283,0.277735,-0.580499,-1.379905,-2.354149,0.725972,23.651115,-125.477722,33.562569,0,0
6749,2024 8 08,15:41:05.644,-0.14851,-0.75406,0.278605,-0.575907,-1.36119,-2.34471,0.654492,8.488489,-68.649872,14.029755,0,0
6750,2024 8 08,15:41:05.652,-0.148737,-0.755563,0.278386,-0.574008,-1.181485,-2.244014,0.580973,-6.068892,-21.327354,-5.94014,0,0
6751,2024 8 08,15:41:05.660,-0.149753,-0.756367,0.278496,-0.572625,-1.374751,-2.227677,0.875579,-28.789856,-19.719328,-20.376778,0,0
6752,2024 8 08,15:41:05.669,-0.157538,-0.757921,0.279099,-0.568114,-2.788043,-2.194659,2.293517,-135.371552,-60.096741,-72.843689,0,0
6753,2024 8 08,15:41:05.677,-0.175439,-0.750924,0.274036,-0.574663,-1.310448,-0.995184,-3.554068,-39.03479,327.862122,-61.373367,0,0
6754,2024 8 08,15:41:05.685,-0.196052,-0.734732,0.269198,-0.590971,-0.58816,1.391202,0.318602,-108.390114,308.58609,-81.594093,0,0
6755,2024 8 08,15:41:05.694,-0.20349,-0.728211,0.263499,-0.59905,-0.957566,-0.038092,0.372537,-26.728516,102.590088,-66.969231,0,0
6756,2024 8 08,15:41:05.702,-0.209778,-0.724586,0.25576,-0.604605,-1.234705,0.100723,0.631155,29.76569,126.373314,-94.101242,0,0
6757,2024 8 08,15:41:05.710,-0.210073,-0.724416,0.255397,-0.604866,-1.247717,0.080896,0.673505,32.418327,127.490036,-95.375206,1,0
6758,2024 8 08,15:41:05.719,-0.213707,-0.720547,0.244335,-0.612719,-0.979863,-0.170895,0.046681,73.608986,125.582664,-91.050621,0,0
6759,2024 8 08,15:41:05.727,-0.215837,-0.718802,0.23439,-0.617887,-1.167803,-0.388526,0.281394,52.024822,78.769196,-75.153648,0,0
6760,2024 8 08,15:41:05.735,-0.219006,-0.715412,0.226817,-0.623508,-0.953435,-0.146039,0.07857,34.619316,102.046692,-57.970657,0,0
6761,2024 8 08,15:41:05.744,-0.220548,-0.712165,0.219358,-0.629322,-1.053991,-0.052122,0.07039,54.833611,91.342819,-47.112217,0,0
6762,2024 8 08,15:41:05.752,-0.2199,-0.709348,0.211278,-0.635462,-1.040974,-0.253206,-0.007761,75.98674,88.166122,-36.397861,0,0
6763,2024 8 08,15:41:05.760,-0.219819,-0.708998,0.210272,-0.636227,-1.039353,-0.112579,0.04432,78.619118,87.770805,-35.064522,0,0
6764,2024 8 08,15:41:05.769,-0.219668,-0.706563,0.204328,-0.6409,-1.010478,-0.192765,0.088748,52.607666,79.10006,-33.06617,0,0
6765,2024 8 08,15:41:05.777,-0.220446,-0.703523,0.198936,-0.645654,-1.0431,-0.101062,-0.109496,37.449169,78.691528,-30.056429,0,0
6766,2024 8 08,15:41:05.785,-0.220673,-0.700646,0.193654,-0.650294,-1.09479,-0.12777,-0.121937,43.184021,72.86319,-25.483803,0,0
6767,2024 8 08,15:41:05.794,-0.220778,-0.697729,0.188697,-0.654836,-1.042461,-0.132296,-0.049781,37.218742,72.125038,-22.363264,0,0
6768,2024 8 08,15:41:05.802,-0.221187,-0.694643,0.184276,-0.659224,-1.053146,-0.066096,-0.013535,30.379915,71.400879,-20.323336,0,0
6769,2024 8 08,15:41:05.810,-0.221265,-0.694055,0.183434,-0.660059,-1.055179,-0.053499,-0.006638,29.078621,71.263084,-19.935177,0,0
6770,2024 8 08,15:41:05.819,-0.221334,-0.691619,0.179864,-0.663562,-1.005608,-0.112872,-0.02025,31.55706,65.901466,-18.175529,0,0
6771,2024 8 08,15:41:05.827,-0.221369,-0.689079,0.176542,-0.667075,-1.003169,-0.208889,-0.009438,25.100121,57.038025,-10.685856,0,0
6772,2024 8 08,15:41:05.835,-0.221982,-0.686844,0.174189,-0.669791,-1.021392,-0.138437,0.079223,12.427628,43.461868,-10.119521,0,0
6773,2024 8 08,15:41:05.844,-0.222596,-0.685147,0.17228,-0.671817,-1.049657,-0.137136,-0.016874,9.711807,32.152752,-10.267871,0,0
6774,2024 8 08,15:41:05.852,-0.223339,-0.683968,0.170795,-0.673152,-1.042466,-0.114527,0.080748,4.166122,23.6001,-11.173142,0,0
6775,2024 8 08,15:41:05.860,-0.223522,-0.683676,0.170429,-0.673482,-1.04069,-0.101579,0.026315,2.796848,21.48838,-11.396661,0,0
6776,2024 8 08,15:41:05.869,-0.224163,-0.683022,0.169438,-0.674182,-1.032721,-0.090117,0.002377,2.044292,17.727934,-12.035309,0,0
6777,2024 8 08,15:41:05.877,-0.224917,-0.682437,0.168369,-0.67479,-1.070595,-0.111149,-0.003591,1.668678,14.435351,-12.469289,0,0
6778,2024 8 08,15:41:05.885,-0.225784,-0.681826,0.16732,-0.675379,-1.088956,-0.121424,-0.03495,1.30403,14.107031,-12.325136,0,0
6779,2024 8 08,15:41:05.894,-0.226778,-0.681145,0.166339,-0.675976,-1.065049,-0.115312,-0.02126,-1.003364,14.922945,-12.890037,0,0
