frame,date,time,quaternion_x,quaternion_y,quaternion_z,quaternion_w,accel_x,accel_y,accel_z,gyro_x,gyro_y,gyro_z,HS,TO
3246,2024 10 19,05:24:37.040,-0.337504,0.660745,0.369362,0.559535,-0.936552,0.032716,-0.087893,0.915527,-0.976563,1.89209,0,0
3247,2024 10 19,05:24:37.048,-0.337513,0.660538,0.369483,0.559693,-0.936552,0.029298,-0.085452,0.976563,-0.854492,2.197266,0,0
3248,2024 10 19,05:24:37.057,-0.337518,0.660311,0.36962,0.559868,-0.93997,0.033204,-0.089358,1.037598,-1.037598,2.441406,0,0
3249,2024 10 19,05:24:37.065,-0.337526,0.660063,0.369766,0.560058,-0.9429,0.032228,-0.086428,1.098633,-1.342773,2.624512,0,0
3250,2024 10 19,05:24:37.073,-0.33754,0.659799,0.369898,0.560275,-0.943876,0.032716,-0.08594,0.915527,-1.708984,2.624512,0,0
3251,2024 10 19,05:24:37.082,-0.337557,0.659515,0.370032,0.560511,-0.937529,0.032716,-0.08301,1.037598,-2.01416,2.746582,0,0
3252,2024 10 19,05:24:37.090,-0.337557,0.659515,0.370032,0.560511,-0.937529,0.032716,-0.08301,1.037598,-2.01416,2.746582,0,0
3253,2024 10 19,05:24:37.098,-0.337596,0.659221,0.370176,0.560737,-0.94583,0.042482,-0.087893,1.403809,-1.831055,2.624512,0,0
3254,2024 10 19,05:24:37.107,-0.337627,0.658953,0.370265,0.560975,-0.946806,0.038575,-0.094729,0.671387,-2.075195,2.075195,0,0
3255,2024 10 19,05:24:37.115,-0.337653,0.658724,0.370319,0.561192,-0.93997,0.039552,-0.0918,0.366211,-1.464844,1.647949,0,0
3256,2024 10 19,05:24:37.123,-0.337687,0.658532,0.370353,0.561375,-0.942412,0.0459,-0.0918,0.305176,-1.342773,1.159668,0,0
3257,2024 10 19,05:24:37.132,-0.337693,0.658413,0.370331,0.561525,-0.940947,0.039552,-0.100101,-0.366211,-0.610352,0.366211,0,0
3258,2024 10 19,05:24:37.140,-0.337693,0.658413,0.370331,0.561525,-0.940947,0.039552,-0.100101,-0.366211,-0.610352,0.366211,0,0
3259,2024 10 19,05:24:37.148,-0.337697,0.658342,0.370267,0.561648,-0.939482,0.041017,-0.101077,-0.854492,-0.12207,-0.061035,0,0
3260,2024 10 19,05:24:37.157,-0.337681,0.658329,0.370189,0.561725,-0.935087,0.039552,-0.093753,-0.976563,0.549316,-0.671387,0,0
3261,2024 10 19,05:24:37.165,-0.337637,0.658346,0.370102,0.561789,-0.934599,0.035157,-0.090335,-1.159668,0.854492,-0.488281,0,0
3262,2024 10 19,05:24:37.173,-0.33759,0.658364,0.370033,0.561841,-0.939482,0.034669,-0.090823,-1.098633,0.976563,-0.366211,0,0
3263,2024 10 19,05:24:37.182,-0.337538,0.658373,0.369969,0.561904,-0.938505,0.031739,-0.087405,-1.159668,0.854492,-0.183105,0,0
3264,2024 10 19,05:24:37.190,-0.337538,0.658373,0.369969,0.561904,-0.938505,0.031739,-0.087405,-1.159668,0.854492,-0.183105,0,0
3265,2024 10 19,05:24:37.198,-0.337481,0.658356,0.369933,0.561982,-0.935575,0.031251,-0.090823,-0.915527,0.671387,0.366211,0,0
3266,2024 10 19,05:24:37.207,-0.337418,0.658309,0.36992,0.562083,-0.936064,0.030274,-0.089846,-0.854492,0.305176,0.671387,0,0
3267,2024 10 19,05:24:37.215,-0.337354,0.658231,0.369935,0.562203,-0.93704,0.033204,-0.086917,-0.549316,0.183105,1.220703,0,0
3268,2024 10 19,05:24:37.223,-0.337283,0.658116,0.369966,0.56236,-0.934111,0.028809,-0.08301,-0.610352,-0.244141,1.647949,0,0
3269,2024 10 19,05:24:37.232,-0.337197,0.65797,0.370033,0.562538,-0.934111,0.028809,-0.086428,-0.244141,-0.488281,2.197266,0,0
3270,2024 10 19,05:24:37.240,-0.337197,0.65797,0.370033,0.562538,-0.934111,0.028809,-0.086428,-0.244141,-0.488281,2.197266,0,0
3271,2024 10 19,05:24:37.248,-0.337129,0.65776,0.370144,0.562751,-0.932646,0.030763,-0.095218,0.244141,-1.159668,2.929688,0,0
3272,2024 10 19,05:24:37.257,-0.337064,0.657498,0.370315,0.562984,-0.936064,0.029298,-0.091311,0.671387,-1.342773,3.723145,0,0
3273,2024 10 19,05:24:37.265,-0.33702,0.657174,0.370535,0.563244,-0.936064,0.030274,-0.081545,1.220703,-1.89209,4.272461,0,0
3274,2024 10 19,05:24:37.273,-0.33701,0.656799,0.370787,0.563522,-0.943876,0.032716,-0.077639,2.01416,-2.502441,4.455566,0,0
3275,2024 10 19,05:24:37.282,-0.337074,0.656347,0.371052,0.563835,-0.938017,0.041505,-0.090335,2.807617,-3.601074,4.394531,0,0
3276,2024 10 19,05:24:37.290,-0.337074,0.656347,0.371052,0.563835,-0.938017,0.041505,-0.090335,2.807617,-3.601074,4.394531,0,0
3277,2024 10 19,05:24:37.298,-0.337147,0.655932,0.371287,0.56412,-0.942412,0.049806,-0.095218,2.01416,-2.868652,3.723145,0,0
3278,2024 10 19,05:24:37.307,-0.337205,0.655572,0.371464,0.564387,-0.946318,0.054201,-0.086917,2.01416,-2.563477,3.051758,0,0
3279,2024 10 19,05:24:37.315,-0.337248,0.655275,0.37156,0.564643,-0.949736,0.045412,-0.095218,0.671387,-2.502441,2.13623,0,0
3280,2024 10 19,05:24:37.323,-0.337311,0.65502,0.371595,0.564878,-0.944365,0.050783,-0.101566,0.671387,-2.075195,1.342773,0,0
3281,2024 10 19,05:24:37.332,-0.337347,0.654833,0.371569,0.565091,-0.936552,0.047365,-0.092776,-0.12207,-1.586914,0.793457,0,0
3282,2024 10 19,05:24:37.340,-0.337347,0.654833,0.371569,0.565091,-0.936552,0.047365,-0.092776,-0.12207,-1.586914,0.793457,0,0
3283,2024 10 19,05:24:37.348,-0.337357,0.654713,0.371542,0.565241,-0.938505,0.047365,-0.105472,-0.305176,-0.488281,0.427246,0,0
3284,2024 10 19,05:24:37.357,-0.337355,0.654625,0.37151,0.565366,-0.937529,0.042482,-0.087405,-0.427246,-0.183105,0.305176,0,0
3285,2024 10 19,05:24:37.365,-0.337354,0.654565,0.371479,0.565455,-0.946318,0.039064,-0.092288,-0.305176,0.061035,-0.0,0,0
3286,2024 10 19,05:24:37.373,-0.337374,0.654484,0.371445,0.56556,-0.939482,0.041505,-0.094729,-0.305176,-0.244141,0.183105,0,0
3287,2024 10 19,05:24:37.382,-0.3374,0.654422,0.371418,0.565634,-0.943876,0.051271,-0.090823,0.061035,0.12207,-0.12207,0,0
3288,2024 10 19,05:24:37.390,-0.337432,0.654369,0.371351,0.56572,-0.932646,0.04004,-0.101566,0.061035,0.12207,-0.12207,0,0
3289,2024 10 19,05:24:37.398,-0.337432,0.654369,0.371351,0.56572,-0.932646,0.04004,-0.101566,-0.427246,-0.244141,-0.488281,0,0
3290,2024 10 19,05:24:37.407,-0.337478,0.654348,0.371295,0.565754,-0.936064,0.051759,-0.098636,-0.183105,0.915527,-0.976563,0,0
3291,2024 10 19,05:24:37.415,-0.337466,0.654413,0.371215,0.565738,-0.944365,0.046388,-0.101077,-1.098633,1.77002,-1.342773,0,0
3292,2024 10 19,05:24:37.423,-0.337459,0.654518,0.371107,0.565692,-0.934599,0.049318,-0.091311,-0.854492,2.075195,-1.831055,0,0
3293,2024 10 19,05:24:37.432,-0.337417,0.654681,0.370984,0.56561,-0.935087,0.041017,-0.092776,-1.220703,2.807617,-2.075195,0,0
3294,2024 10 19,05:24:37.440,-0.337389,0.65489,0.370847,0.565474,-0.943876,0.045412,-0.093265,-1.647949,3.417969,-2.685547,0,0
3295,2024 10 19,05:24:37.448,-0.337389,0.65489,0.370847,0.565474,-0.943876,0.045412,-0.093265,-1.647949,3.417969,-2.685547,0,0
3296,2024 10 19,05:24:37.457,-0.337375,0.65511,0.37067,0.565343,-0.937529,0.039552,-0.0918,-1.464844,2.929688,-3.112793,0,0
3297,2024 10 19,05:24:37.465,-0.33737,0.655333,0.370497,0.565202,-0.933134,0.039552,-0.096194,-1.403809,3.173828,-2.990723,0,0
3298,2024 10 19,05:24:37.473,-0.337357,0.655556,0.370348,0.565048,-0.934111,0.033692,-0.090823,-1.403809,3.417969,-2.746582,0,0
3299,2024 10 19,05:24:37.482,-0.33737,0.655758,0.370227,0.564885,-0.931669,0.032228,-0.088382,-0.610352,2.990723,-2.685547,0,0
3300,2024 10 19,05:24:37.490,-0.337429,0.655894,0.37016,0.564736,-0.92581,0.027345,-0.090823,0.305176,2.746582,-2.075195,0,0
3301,2024 10 19,05:24:37.498,-0.337429,0.655894,0.37016,0.564736,-0.92581,0.027345,-0.090823,0.305176,2.746582,-2.075195,0,0
3302,2024 10 19,05:24:37.507,-0.337539,0.655975,0.370178,0.564564,-0.927274,0.026856,-0.084964,1.525879,2.624512,-1.77002,0,0
3303,2024 10 19,05:24:37.515,-0.337731,0.65597,0.370253,0.564405,-0.936552,0.032716,-0.088382,2.929688,1.525879,-1.403809,0,0
3304,2024 10 19,05:24:37.523,-0.337995,0.655903,0.370388,0.564237,-0.931181,0.04004,-0.098148,3.845215,1.525879,-1.220703,0,0
3305,2024 10 19,05:24:37.532,-0.338243,0.655847,0.370519,0.564068,-0.920927,0.043947,-0.10303,3.295898,1.708984,-1.342773,0,0
3306,2024 10 19,05:24:37.540,-0.338381,0.655873,0.370654,0.563865,-0.92288,0.044923,-0.101077,2.441406,3.356934,-0.976563,0,0
3307,2024 10 19,05:24:37.548,-0.338381,0.655873,0.370654,0.563865,-0.92288,0.044923,-0.101077,2.441406,3.356934,-0.976563,0,0
3308,2024 10 19,05:24:37.557,-0.33839,0.656018,0.370784,0.563606,-0.93997,0.041993,-0.095218,1.159668,5.004883,-0.976563,0,0
3309,2024 10 19,05:24:37.565,-0.338354,0.656222,0.370894,0.563319,-0.953154,0.034181,-0.076662,0.610352,5.249023,-1.342773,0,0
3310,2024 10 19,05:24:37.573,-0.338382,0.656391,0.370993,0.563038,-0.952666,0.032716,-0.079592,1.464844,4.211426,-1.525879,0,0
3311,2024 10 19,05:24:37.582,-0.338523,0.65648,0.371111,0.562772,-0.944853,0.029786,-0.074709,2.868652,3.479004,-1.77002,0,0
3312,2024 10 19,05:24:37.590,-0.338778,0.656501,0.371275,0.562486,-0.930204,0.034181,-0.090335,4.394531,2.807617,-1.831055,0,0
3313,2024 10 19,05:24:37.598,-0.338778,0.656501,0.371275,0.562486,-0.930204,0.034181,-0.090335,4.394531,2.807617,-1.831055,0,0
3314,2024 10 19,05:24:37.607,-0.339053,0.656514,0.371477,0.562172,-0.92581,0.036622,-0.095218,4.516602,3.540039,-1.708984,0,0
3315,2024 10 19,05:24:37.615,-0.339273,0.656576,0.371727,0.561802,-0.933134,0.041505,-0.098148,4.150391,4.760742,-1.464844,0,0
3316,2024 10 19,05:24:37.623,-0.339408,0.656685,0.371966,0.561434,-0.9429,0.041017,-0.073733,3.662109,5.249023,-1.342773,0,0
3317,2024 10 19,05:24:37.632,-0.339514,0.656822,0.372189,0.561063,-0.955596,0.044435,-0.078127,2.990723,5.187988,-1.464844,0,0
3318,2024 10 19,05:24:37.640,-0.339639,0.656955,0.372333,0.560734,-0.977081,0.052736,-0.064943,2.502441,4.272461,-2.01416,0,0
3319,2024 10 19,05:24:37.648,-0.339639,0.656955,0.372333,0.560734,-0.977081,0.052736,-0.064943,2.502441,4.272461,-2.01416,0,0
3320,2024 10 19,05:24:37.657,-0.339773,0.657097,0.372348,0.560477,-0.975127,0.050783,-0.070803,1.037598,3.173828,-2.868652,0,0
3321,2024 10 19,05:24:37.665,-0.339896,0.657256,0.372202,0.560314,-0.956572,0.058596,-0.089358,-0.488281,2.197266,-3.90625,0,0
3322,2024 10 19,05:24:37.673,-0.339923,0.657523,0.371919,0.560172,-0.947295,0.057619,-0.076662,-2.685547,3.234863,-4.577637,0,0
3323,2024 10 19,05:24:37.682,-0.339809,0.657974,0.371511,0.559982,-0.976104,0.058596,-0.092288,-5.249023,4.516602,-5.67627,0,0
3324,2024 10 19,05:24:37.690,-0.339643,0.658515,0.370891,0.559858,-0.964873,0.052736,-0.063967,-7.446289,4.150391,-7.141113,0,0
3325,2024 10 19,05:24:37.698,-0.339643,0.658515,0.370891,0.559858,-0.964873,0.052736,-0.063967,-7.446289,4.150391,-7.141113,0,0
3326,2024 10 19,05:24:37.707,-0.339436,0.659277,0.37014,0.559583,-0.969268,0.057131,-0.102054,-8.666992,6.591797,-9.82666,0,0
3327,2024 10 19,05:24:37.715,-0.339264,0.660219,0.369193,0.559203,-0.98001,0.065432,-0.067385,-9.094238,8.178711,-13.061523,0,0
3328,2024 10 19,05:24:37.723,-0.339195,0.661417,0.368068,0.55857,-0.993194,0.046388,-0.06299,-9.70459,9.70459,-17.089844,0,0
3329,2024 10 19,05:24:37.732,-0.339426,0.662737,0.366809,0.557693,-1.018098,0.060549,-0.074709,-7.263184,10.803223,-21.789551,0,0
3330,2024 10 19,05:24:37.740,-0.339909,0.664209,0.365286,0.556645,-0.995148,0.038575,-0.073733,-7.568359,10.925293,-26.733398,0,0
3331,2024 10 19,05:24:37.748,-0.339909,0.664209,0.365286,0.556645,-0.995148,0.038575,-0.073733,-7.568359,10.925293,-26.733398,0,0
3332,2024 10 19,05:24:37.757,-0.340632,0.665836,0.363585,0.555372,-0.981475,0.023927,-0.054201,-6.103516,11.657715,-30.456543,0,0
3333,2024 10 19,05:24:37.765,-0.341435,0.667516,0.361735,0.554069,-0.98587,0.020997,-0.078616,-7.080078,11.779785,-32.104492,0,0
3334,2024 10 19,05:24:37.773,-0.342258,0.669307,0.35971,0.552717,-0.989288,0.006836,-0.0459,-8.483887,11.474609,-34.362793,0,0
3335,2024 10 19,05:24:37.782,-0.343096,0.671167,0.35753,0.551355,-1.032258,0.017579,-0.074221,-9.277344,11.230469,-35.827637,0,0
3336,2024 10 19,05:24:37.790,-0.344099,0.672993,0.355103,0.55007,-1.029817,0.02002,-0.043947,-9.643555,8.972168,-38.818359,0,0
3337,2024 10 19,05:24:37.798,-0.345184,0.674827,0.352457,0.548844,-1.033723,-0.003418,-0.056642,-11.169434,6.04248,-40.222168,0,0
3338,2024 10 19,05:24:37.807,-0.345184,0.674827,0.352457,0.548844,-1.033723,-0.003418,-0.056642,-11.169434,6.04248,-40.222168,0,0
3339,2024 10 19,05:24:37.815,-0.346471,0.676496,0.349563,0.547829,-1.041047,-0.014649,-0.035157,-10.986328,2.258301,-42.175293,0,0
3340,2024 10 19,05:24:37.823,-0.347946,0.677955,0.346451,0.547067,-0.983917,-0.030763,-0.036622,-11.108398,-3.845215,-42.480469,0,0
3341,2024 10 19,05:24:37.832,-0.34948,0.67924,0.343224,0.546529,-0.956084,-0.039064,-0.052248,-11.230469,-5.493164,-42.114258,0,0
3342,2024 10 19,05:24:37.840,-0.350959,0.680456,0.339989,0.546091,-0.960967,-0.06006,-0.059572,-12.573242,-6.652832,-40.771484,0,0
3343,2024 10 19,05:24:37.848,-0.352462,0.681463,0.336763,0.545865,-0.946318,-0.062014,-0.025391,-11.291504,-10.681152,-39.245605,0,0
3344,2024 10 19,05:24:37.857,-0.352462,0.681463,0.336763,0.545865,-0.946318,-0.062014,-0.025391,-11.291504,-10.681152,-39.245605,0,0
3345,2024 10 19,05:24:37.865,-0.353936,0.682336,0.333585,0.545772,-0.961943,-0.066408,-0.059084,-11.474609,-10.681152,-37.780762,0,0
3346,2024 10 19,05:24:37.873,-0.355575,0.682973,0.330388,0.545856,-0.955107,-0.095706,-0.030763,-9.887695,-16.235352,-37.414551,0,0
3347,2024 10 19,05:24:37.882,-0.357396,0.683425,0.327196,0.546023,-0.96292,-0.068361,-0.064455,-8.361816,-17.333984,-37.536621,0,0
3348,2024 10 19,05:24:37.890,-0.359393,0.68372,0.323941,0.546284,-0.947783,-0.06592,-0.030274,-6.774902,-20.874023,-38.757324,0,0
3349,2024 10 19,05:24:37.898,-0.36147,0.684119,0.320655,0.546352,-0.990753,-0.064455,-0.051271,-5.615234,-17.700195,-40.95459,0,0
3350,2024 10 19,05:24:37.907,-0.36147,0.684119,0.320655,0.546352,-0.990753,-0.064455,-0.051271,-5.615234,-17.700195,-40.95459,0,0
3351,2024 10 19,05:24:37.915,-0.363716,0.684569,0.317253,0.546285,-1.025422,-0.078127,-0.078616,-5.126953,-18.310547,-43.823242,0,0
3352,2024 10 19,05:24:37.923,-0.36628,0.684909,0.313606,0.546251,-1.006867,-0.063967,-0.102542,-3.845215,-20.935059,-47.485352,0,0
3353,2024 10 19,05:24:37.932,-0.369057,0.685269,0.309668,0.546177,-1.008332,-0.056642,-0.098148,-4.516602,-22.521973,-51.635742,0,0
3354,2024 10 19,05:24:37.940,-0.371961,0.685855,0.305438,0.545853,-1.054231,-0.063967,-0.092776,-5.126953,-19.897461,-56.884766,0,0
3355,2024 10 19,05:24:37.948,-0.375166,0.686598,0.300833,0.545282,-1.099643,-0.084475,-0.072268,-4.882813,-21.057129,-63.842773,0,0
3356,2024 10 19,05:24:37.957,-0.375166,0.686598,0.300833,0.545282,-1.099643,-0.084475,-0.072268,-4.882813,-21.057129,-63.842773,0,0
3357,2024 10 19,05:24:37.965,-0.378865,0.687386,0.295792,0.544489,-1.078646,-0.090823,-0.066897,-2.746582,-22.277832,-71.533203,0,0
3358,2024 10 19,05:24:37.973,-0.383022,0.688262,0.29038,0.543386,-1.072787,-0.122562,-0.072756,-0.793457,-22.216797,-78.491211,0,0
3359,2024 10 19,05:24:37.982,-0.387693,0.689199,0.284608,0.541938,-1.085482,-0.121097,-0.088382,0.854492,-22.583008,-86.364746,0,0
3360,2024 10 19,05:24:37.990,-0.392893,0.690223,0.278371,0.540127,-1.098178,-0.0918,-0.147954,3.051758,-22.155762,-95.825195,0,0
3361,2024 10 19,05:24:37.998,-0.398577,0.691396,0.271489,0.53796,-1.128941,-0.10596,-0.158696,2.380371,-23.681641,-106.567383,0,0
3362,2024 10 19,05:24:38.007,-0.398577,0.691396,0.271489,0.53796,-1.128941,-0.10596,-0.158696,2.380371,-23.681641,-106.567383,0,0
3363,2024 10 19,05:24:38.015,-0.404743,0.692784,0.263863,0.535359,-1.17777,-0.090823,-0.132328,1.708984,-23.254395,-118.530273,0,0
3364,2024 10 19,05:24:38.023,-0.411338,0.694295,0.255389,0.532477,-1.258339,-0.072756,-0.104984,1.831055,-26.794434,-130.432129,0,0
3365,2024 10 19,05:24:38.032,-0.418617,0.696029,0.246036,0.528933,-1.327677,-0.031739,-0.097659,3.662109,-26.306152,-146.484375,0,0
3366,2024 10 19,05:24:38.040,-0.426522,0.697583,0.235233,0.525473,-1.369671,-0.093265,-0.026368,-0.305176,-37.963867,-161.254883,0,0
3367,2024 10 19,05:24:38.048,-0.435383,0.699245,0.223276,0.521196,-1.476608,-0.057619,-0.095706,1.464844,-39.428711,-181.762695,0,0
3368,2024 10 19,05:24:38.057,-0.435383,0.699245,0.223276,0.521196,-1.476608,-0.057619,-0.095706,1.464844,-39.428711,-181.762695,0,0
3369,2024 10 19,05:24:38.065,-0.445103,0.700472,0.209266,0.517137,-1.66509,-0.045412,-0.00586,-3.112793,-56.640625,-201.843262,0,0
3370,2024 10 19,05:24:38.073,-0.455853,0.701496,0.193114,0.512649,-1.952208,-0.070803,-0.021973,-5.249023,-71.105957,-229.003906,0,0
3371,2024 10 19,05:24:38.082,-0.467978,0.701765,0.174156,0.508126,-2.12653,-0.133305,-0.008789,-5.67627,-92.224121,-260.864258,0,0
3372,2024 10 19,05:24:38.090,-0.481774,0.700842,0.152128,0.503559,-2.349193,-0.14893,0.177252,-2.197266,-120.239258,-293.029785,0,0
3373,2024 10 19,05:24:38.098,-0.496645,0.69894,0.127375,0.498601,-2.514237,-0.295907,-0.097659,-3.234863,-139.343262,-321.960449,0,0
3374,2024 10 19,05:24:38.107,-0.496645,0.69894,0.127375,0.498601,-2.514237,-0.295907,-0.097659,-3.234863,-139.343262,-321.960449,0,0
3375,2024 10 19,05:24:38.115,-0.512044,0.695779,0.099678,0.493727,-2.564043,-0.606464,0.000977,-12.145996,-162.719727,-344.543457,0,0
3376,2024 10 19,05:24:38.123,-0.527803,0.692106,0.070961,0.487215,-2.726646,-0.528825,0.044435,-4.150391,-153.808594,-362.304688,0,0
3377,2024 10 19,05:24:38.132,-0.543954,0.687312,0.041703,0.47956,-2.662191,-0.264168,0.046876,2.563477,-158.813477,-376.037598,0,0
3378,2024 10 19,05:24:38.140,-0.560146,0.681316,0.011962,0.471065,-2.516678,-0.218757,0.065432,3.356934,-159.301758,-384.94873,0,0
3379,2024 10 19,05:24:38.148,-0.576313,0.674573,-0.017815,0.460975,-2.356517,-0.031739,0.205573,15.197754,-151.000977,-395.812988,0,0
3380,2024 10 19,05:24:38.157,-0.576313,0.674573,-0.017815,0.460975,-2.356517,-0.031739,0.205573,15.197754,-151.000977,-395.812988,0,0
3381,2024 10 19,05:24:38.165,-0.592564,0.666997,-0.046775,0.449216,-1.804254,0.288095,0.427259,23.071289,-132.385254,-399.414063,0,0
3382,2024 10 19,05:24:38.173,-0.609263,0.659858,-0.073402,0.433587,-1.610889,0.602557,0.450697,37.963867,-75.98877,-413.513184,0,0
3383,2024 10 19,05:24:38.182,-0.627221,0.652989,-0.097538,0.41314,-1.473678,0.668477,0.820338,50.964355,-21.66748,-432.800293,0,0
3384,2024 10 19,05:24:38.190,-0.645762,0.646147,-0.118585,0.38913,-1.71392,1.30961,0.699728,68.664551,20.141602,-436.157227,0,0
3385,2024 10 19,05:24:38.198,-0.660816,0.639234,-0.142765,0.366498,-0.59621,0.066897,-0.144047,7.568359,-38.94043,-419.494629,0,0
3386,2024 10 19,05:24:38.207,-0.660816,0.639234,-0.142765,0.366498,-0.59621,0.066897,-0.144047,7.568359,-38.94043,-419.494629,0,0
3387,2024 10 19,05:24:38.215,-0.671922,0.633467,-0.158907,0.349268,0.285165,0.954619,0.484878,25.817871,14.648438,-262.512207,0,0
3388,2024 10 19,05:24:38.223,-0.675449,0.633553,-0.16205,0.340763,0.478042,1.388226,0.85403,-4.699707,50.90332,-45.593262,0,0
3389,2024 10 19,05:24:38.232,-0.671645,0.639435,-0.152876,0.341532,-0.478042,0.933622,0.35548,-38.757324,94.970703,137.329102,0,0
3390,2024 10 19,05:24:38.240,-0.663786,0.648373,-0.136286,0.347026,-0.858913,0.709983,0.473647,-57.189941,107.666016,221.374512,0,0
3391,2024 10 19,05:24:38.248,-0.654209,0.65862,-0.117092,0.352874,-0.686056,0.635273,0.697287,-60.180664,136.59668,236.877441,0,0
3392,2024 10 19,05:24:38.257,-0.644812,0.66935,-0.096572,0.356177,-0.482437,0.535661,0.55324,-60.974121,163.757324,223.388672,0,0
3393,2024 10 19,05:24:38.265,-0.644812,0.66935,-0.096572,0.356177,-0.482437,0.535661,0.55324,-60.974121,163.757324,223.388672,0,0
3394,2024 10 19,05:24:38.273,-0.6362,0.680153,-0.075478,0.356292,-0.449721,0.506851,0.347179,-55.664063,198.608398,200.866699,0,0
3395,2024 10 19,05:24:38.282,-0.62836,0.691077,-0.053363,0.353169,-0.691427,0.576678,0.228523,-50.720215,228.33252,183.959961,0,0
3396,2024 10 19,05:24:38.290,-0.620495,0.701494,-0.03101,0.349185,-0.948271,0.635273,0.141118,-47.851563,226.806641,182.006836,0,0
3397,2024 10 19,05:24:38.298,-0.611894,0.710696,-0.009273,0.347003,-1.025422,0.609394,0.018067,-47.851563,197.753906,194.519043,0,0
3398,2024 10 19,05:24:38.307,-0.602396,0.718498,0.01219,0.347465,-1.040071,0.548845,-0.077639,-46.569824,170.654297,216.064453,0,0
3399,2024 10 19,05:24:38.315,-0.602396,0.718498,0.01219,0.347465,-1.040071,0.548845,-0.077639,-46.569824,170.654297,216.064453,0,0
3400,2024 10 19,05:24:38.323,-0.592079,0.724938,0.034038,0.350355,-1.000519,0.476089,-0.094729,-41.931152,150.268555,239.624023,0,0
3401,2024 10 19,05:24:38.332,-0.581156,0.730191,0.057033,0.354719,-1.000519,0.393567,-0.130375,-33.752441,145.629883,262.207031,0,0
3402,2024 10 19,05:24:38.340,-0.569883,0.734319,0.081662,0.359639,-1.084018,0.356456,-0.161626,-22.460938,148.864746,280.761719,0,0
3403,2024 10 19,05:24:38.348,-0.558439,0.737177,0.10756,0.364892,-1.199255,0.32374,-0.203131,-11.169434,148.132324,294.128418,0,0
3404,2024 10 19,05:24:38.357,-0.546938,0.738577,0.13418,0.370619,-1.323283,0.308603,-0.218757,0.244141,141.357422,304.321289,0,0
3405,2024 10 19,05:24:38.365,-0.546938,0.738577,0.13418,0.370619,-1.323283,0.308603,-0.218757,0.244141,141.357422,304.321289,0,0
3406,2024 10 19,05:24:38.373,-0.535521,0.738295,0.160906,0.377157,-1.390667,0.287606,-0.246101,10.314941,126.220703,311.706543,0,0
3407,2024 10 19,05:24:38.382,-0.524335,0.736201,0.187352,0.384682,-1.353557,0.250496,-0.234382,20.324707,107.910156,317.565918,0,0
3408,2024 10 19,05:24:38.390,-0.513366,0.732501,0.213838,0.392646,-1.295938,0.226569,-0.179693,31.860352,100.463867,323.913574,0,0
3409,2024 10 19,05:24:38.398,-0.502423,0.727544,0.240908,0.400267,-1.271523,0.216315,-0.19483,42.297363,101.989746,330.13916,0,0
3410,2024 10 19,05:24:38.407,-0.491193,0.721534,0.268799,0.407265,-1.310099,0.265633,-0.132328,51.635742,111.022949,338.500977,0,0
3411,2024 10 19,05:24:38.415,-0.491193,0.721534,0.268799,0.407265,-1.310099,0.265633,-0.132328,51.635742,111.022949,338.500977,0,0
3412,2024 10 19,05:24:38.423,-0.479266,0.714733,0.297452,0.413501,-1.419965,0.291025,-0.133305,54.382324,117.30957,345.88623,0,0
3413,2024 10 19,05:24:38.432,-0.466448,0.707137,0.326348,0.419382,-1.549364,0.3296,-0.146489,52.734375,122.009277,352.722168,0,0
3414,2024 10 19,05:24:38.440,-0.452462,0.698866,0.35519,0.425093,-1.695364,0.359386,-0.123051,46.325684,122.98584,359.375,0,0
3415,2024 10 19,05:24:38.448,-0.437174,0.689943,0.383534,0.430997,-1.821345,0.349132,-0.12598,35.095215,120.788574,365.112305,0,0
3416,2024 10 19,05:24:38.457,-0.420612,0.680519,0.410994,0.437108,-1.927305,0.293466,-0.104984,21.728516,118.347168,367.248535,0,0
3417,2024 10 19,05:24:38.465,-0.420612,0.680519,0.410994,0.437108,-1.927305,0.293466,-0.104984,21.728516,118.347168,367.248535,0,0
3418,2024 10 19,05:24:38.473,-0.402677,0.67087,0.437442,0.443204,-2.056215,0.209479,-0.080569,6.835938,120.300293,367.553711,0,0
3419,2024 10 19,05:24:38.482,-0.383372,0.661094,0.462686,0.449336,-2.230048,0.110355,-0.044435,-9.765625,119.628906,366.699219,0,0
3420,2024 10 19,05:24:38.490,-0.363019,0.651055,0.486182,0.456039,-2.329661,-0.076662,-0.042482,-29.724121,109.863281,363.220215,0,0
3421,2024 10 19,05:24:38.498,-0.34181,0.640795,0.507852,0.463287,-2.308176,-0.380871,0.015625,-47.302246,104.492188,359.924316,0,0
3422,2024 10 19,05:24:38.507,-0.319523,0.630587,0.528114,0.470491,-2.29841,-0.767602,0.046876,-62.62207,107.299805,356.872559,0,0
3423,2024 10 19,05:24:38.515,-0.319523,0.630587,0.528114,0.470491,-2.29841,-0.767602,0.046876,-62.62207,107.299805,356.872559,0,0
3424,2024 10 19,05:24:38.523,-0.296344,0.620879,0.546713,0.477278,-2.334544,-1.211463,0.030274,-78.491211,112.487793,345.092773,0,0
3425,2024 10 19,05:24:38.532,-0.273012,0.612255,0.562802,0.483594,-2.322336,-1.646046,-0.044435,-95.153809,114.013672,318.908691,0,0
3426,2024 10 19,05:24:38.540,-0.250166,0.605355,0.575792,0.489312,-2.244209,-2.038148,-0.094729,-111.328125,115.05127,281.799316,0,0
3427,2024 10 19,05:24:38.548,-0.228084,0.600437,0.585555,0.49455,-2.125553,-2.434645,-0.254891,-127.380371,115.539551,242.797852,0,0
3428,2024 10 19,05:24:38.557,-0.207137,0.597417,0.592253,0.499423,-2.0318,-2.830164,-0.492203,-138.916016,112.304688,203.125,0,0
3429,2024 10 19,05:24:38.565,-0.207137,0.597417,0.592253,0.499423,-2.0318,-2.830164,-0.492203,-138.916016,112.304688,203.125,0,0
3430,2024 10 19,05:24:38.573,-0.188322,0.596075,0.595831,0.504197,-1.815973,-3.204199,-0.817408,-143.066406,99.365234,157.775879,0,0
3431,2024 10 19,05:24:38.582,-0.173197,0.596447,0.596389,0.508501,-1.551317,-3.735954,-0.98001,-133.056641,80.810547,101.989746,0,0
3432,2024 10 19,05:24:38.590,-0.162163,0.598785,0.595098,0.5109,-2.035218,-4.293588,-1.128452,-98.388672,77.636719,53.588867,0,0
3433,2024 10 19,05:24:38.598,-0.158076,0.600933,0.592809,0.512318,-2.202704,-4.07239,-0.995636,-51.330566,15.014648,8.422852,0,0
3434,2024 10 19,05:24:38.607,-0.162528,0.600679,0.589281,0.515284,-1.529832,-3.602649,-0.624531,-5.67627,-65.307617,-30.639648,0,0
3435,2024 10 19,05:24:38.615,-0.171665,0.600283,0.585892,0.516645,-1.16654,-2.812098,-0.440443,36.987305,-74.157715,-60.852051,0,0
3436,2024 10 19,05:24:38.623,-0.171665,0.600283,0.585892,0.516645,-1.16654,-2.812098,-0.440443,36.987305,-74.157715,-60.852051,0,0
3437,2024 10 19,05:24:38.632,-0.190656,0.618542,0.583745,0.490201,-2.360912,1.507858,-10.43733,247.619629,200.195313,-385.742188,0,0
3438,2024 10 19,05:24:38.640,-0.242122,0.606556,0.557725,0.512259,1.584033,1.643117,7.458235,162.475586,-638.48877,-364.929199,0,0
3439,2024 10 19,05:24:38.648,-0.254919,0.62796,0.538313,0.500901,-1.442427,-0.347667,-3.531846,-114.624023,246.398926,-382.324219,0,0
3440,2024 10 19,05:24:38.657,-0.267381,0.649252,0.514824,0.49187,-3.80285,0.573748,0.542009,-77.270508,-63.354492,-387.817383,1,0
3441,2024 10 19,05:24:38.665,-0.281937,0.655415,0.481062,0.509433,-1.671438,-1.280801,-0.125004,-172.241211,-297.302246,-292.419434,0,0
3442,2024 10 19,05:24:38.673,-0.281937,0.655415,0.481062,0.509433,-1.671438,-1.280801,-0.125004,-172.241211,-297.302246,-292.419434,0,0
3443,2024 10 19,05:24:38.682,-0.295513,0.659156,0.461629,0.514864,-2.263253,-0.835475,-0.730003,-26.733398,-126.342773,-197.998047,0,0
3444,2024 10 19,05:24:38.690,-0.310128,0.655581,0.447537,0.523206,-1.218299,0.254891,1.134312,-13.61084,-223.937988,-128.417969,0,0
3445,2024 10 19,05:24:38.698,-0.316729,0.653561,0.43539,0.531955,-1.268593,-0.090823,-0.10889,-71.105957,-137.939453,-76.416016,0,0
3446,2024 10 19,05:24:38.707,-0.320357,0.65045,0.423822,0.542826,-0.785668,-0.321299,-0.231452,-88.012695,-164.916992,-48.156738,0,0
3447,2024 10 19,05:24:38.715,-0.323975,0.64697,0.415165,0.55146,-0.686544,-0.126469,-0.248054,-43.151855,-116.699219,-34.912109,0,0
3448,2024 10 19,05:24:38.723,-0.323975,0.64697,0.415165,0.55146,-0.686544,-0.126469,-0.248054,-43.151855,-116.699219,-34.912109,0,0
3449,2024 10 19,05:24:38.732,-0.326315,0.644796,0.41001,0.55646,-0.952666,0.070803,-0.02295,-29.602051,-71.105957,-20.935059,0,0
3450,2024 10 19,05:24:38.740,-0.327611,0.643064,0.40566,0.560874,-0.82522,-0.062014,-0.263192,-31.12793,-64.39209,-15.441895,0,0
3451,2024 10 19,05:24:38.748,-0.329643,0.641443,0.402797,0.563597,-0.728538,0.083499,-0.161626,-2.685547,-38.696289,-15.869141,0,0
3452,2024 10 19,05:24:38.757,-0.330623,0.641018,0.401397,0.564505,-0.972198,0.043458,-0.123051,-6.04248,-16.052246,-10.742188,0,0
3453,2024 10 19,05:24:38.765,-0.332035,0.640402,0.400108,0.565289,-0.840846,0.090335,-0.078127,3.662109,-18.310547,-13.73291,0,0
3454,2024 10 19,05:24:38.773,-0.332035,0.640402,0.400108,0.565289,-0.840846,0.090335,-0.078127,3.662109,-18.310547,-13.73291,0,0
3455,2024 10 19,05:24:38.782,-0.333256,0.640478,0.399428,0.564965,-0.96585,0.079104,-0.109867,5.493164,-1.159668,-15.50293,0,0
3456,2024 10 19,05:24:38.790,-0.33489,0.640648,0.398814,0.564239,-0.978057,0.093753,0.01709,12.268066,-1.89209,-20.446777,0,0
3457,2024 10 19,05:24:38.798,-0.336824,0.640996,0.398302,0.563053,-0.996124,0.081545,-0.068361,15.258789,0.610352,-23.620605,0,0
3458,2024 10 19,05:24:38.807,-0.338984,0.64124,0.397725,0.561886,-0.938505,0.083987,-0.037599,16.174316,0.366211,-24.108887,0,0
3459,2024 10 19,05:24:38.815,-0.340968,0.641735,0.397296,0.560422,-0.973174,0.125004,-0.051271,16.601563,4.333496,-24.291992,0,0
3460,2024 10 19,05:24:38.823,-0.340968,0.641735,0.397296,0.560422,-0.973174,0.125004,-0.051271,16.601563,4.333496,-24.291992,0,0
3461,2024 10 19,05:24:38.832,-0.342701,0.642238,0.396636,0.559255,-0.943876,0.090335,-0.028321,11.535645,2.441406,-23.132324,0,0
3462,2024 10 19,05:24:38.840,-0.344139,0.642835,0.395941,0.558178,-0.941923,0.109378,-0.079592,6.774902,3.295898,-21.362305,0,0
3463,2024 10 19,05:24:38.848,-0.3451,0.643455,0.394976,0.557554,-0.931669,0.082034,-0.041505,-0.244141,1.342773,-18.432617,0,0
3464,2024 10 19,05:24:38.857,-0.345695,0.644133,0.393914,0.557153,-0.928251,0.076174,-0.069338,-4.150391,1.464844,-16.357422,0,0
3465,2024 10 19,05:24:38.865,-0.346086,0.644892,0.392805,0.556815,-0.932157,0.073733,-0.055177,-6.286621,3.051758,-15.686035,0,0
3466,2024 10 19,05:24:38.873,-0.346086,0.644892,0.392805,0.556815,-0.932157,0.073733,-0.055177,-6.286621,3.051758,-15.686035,0,0
3467,2024 10 19,05:24:38.882,-0.346382,0.645689,0.391706,0.556482,-0.965361,0.060549,0.005371,-6.225586,2.380371,-15.319824,0,0
3468,2024 10 19,05:24:38.890,-0.346756,0.646338,0.390576,0.55629,-0.967315,0.053224,-0.00586,-5.981445,-0.183105,-14.526367,0,0
3469,2024 10 19,05:24:38.898,-0.347186,0.646887,0.389388,0.556215,-0.971221,0.070803,-0.048341,-6.591797,-2.380371,-14.770508,0,0
3470,2024 10 19,05:24:38.907,-0.347744,0.647339,0.387999,0.556311,-0.913602,0.095218,-0.076662,-7.141113,-5.065918,-16.418457,0,0
3471,2024 10 19,05:24:38.915,-0.348061,0.648016,0.386455,0.5564,-0.910184,0.074709,-0.115238,-11.230469,-1.281738,-16.967773,0,0
3472,2024 10 19,05:24:38.923,-0.348061,0.648016,0.386455,0.5564,-0.910184,0.074709,-0.115238,-11.230469,-1.281738,-16.967773,0,0
3473,2024 10 19,05:24:38.932,-0.348292,0.648961,0.384831,0.55628,-0.917508,0.070803,-0.10596,-12.023926,0.793457,-19.226074,0,0
3474,2024 10 19,05:24:38.940,-0.348522,0.650092,0.383179,0.555955,-0.9429,0.041505,-0.069338,-11.291504,4.699707,-21.057129,0,0
3475,2024 10 19,05:24:38.948,-0.348911,0.651307,0.381637,0.55535,-0.969268,0.026856,-0.019532,-8.361816,5.126953,-22.338867,0,0
3476,2024 10 19,05:24:38.957,-0.349598,0.652311,0.380158,0.554753,-0.978057,0.020508,-0.058107,-4.882813,2.258301,-22.583008,0,0
3477,2024 10 19,05:24:38.965,-0.350634,0.652993,0.378696,0.554297,-0.979034,0.009766,0.000488,-1.525879,-2.807617,-22.338867,0,0
3478,2024 10 19,05:24:38.973,-0.350634,0.652993,0.378696,0.554297,-0.979034,0.009766,0.000488,-1.525879,-2.807617,-22.338867,0,0
3479,2024 10 19,05:24:38.982,-0.351956,0.653351,0.377259,0.554018,-0.975127,0.015625,-0.02002,1.220703,-7.8125,-22.033691,0,0
3480,2024 10 19,05:24:38.990,-0.353586,0.6533,0.37577,0.554052,-0.922391,-0.0,-0.059084,3.90625,-13.85498,-21.118164,0,0
3481,2024 10 19,05:24:38.998,-0.355368,0.653054,0.374432,0.554108,-0.930692,0.005371,-0.054689,6.04248,-13.977051,-19.958496,0,0
3482,2024 10 19,05:24:39.007,-0.357214,0.652736,0.37322,0.554113,-0.93997,0.027345,-0.073244,7.141113,-14.099121,-19.592285,0,0
3483,2024 10 19,05:24:39.015,-0.359117,0.652428,0.372029,0.554046,-0.966826,0.02002,-0.065432,8.300781,-13.305664,-20.629883,0,0
3484,2024 10 19,05:24:39.023,-0.361111,0.652249,0.370811,0.553777,-0.976592,0.02295,-0.092288,9.277344,-11.169434,-23.376465,0,0
3485,2024 10 19,05:24:39.032,-0.361111,0.652249,0.370811,0.553777,-0.976592,0.02295,-0.092288,9.277344,-11.169434,-23.376465,0,0
3486,2024 10 19,05:24:39.040,-0.363429,0.652255,0.369567,0.553085,-1.014679,0.034181,-0.056642,13.61084,-7.507324,-28.991699,0,0
3487,2024 10 19,05:24:39.048,-0.366391,0.652408,0.368256,0.551824,-1.082064,0.021485,-0.040529,21.057129,-6.286621,-37.536621,0,0
3488,2024 10 19,05:24:39.057,-0.370431,0.652659,0.36673,0.549842,-1.152379,0.033692,-0.052736,30.151367,-6.225586,-50.292969,0,0
3489,2024 10 19,05:24:39.065,-0.375688,0.653073,0.364792,0.547066,-1.199255,0.057619,-0.041017,38.879395,-5.554199,-65.856934,0,0
3490,2024 10 19,05:24:39.073,-0.381978,0.653839,0.36222,0.543493,-1.227576,0.073244,-0.063478,43.640137,-4.760742,-82.336426,0,0
3491,2024 10 19,05:24:39.082,-0.381978,0.653839,0.36222,0.543493,-1.227576,0.073244,-0.063478,43.640137,-4.760742,-82.336426,0,0
3492,2024 10 19,05:24:39.090,-0.388846,0.65501,0.358815,0.539455,-1.228553,0.117191,-0.089358,39.855957,-4.577637,-94.543457,0,0
3493,2024 10 19,05:24:39.098,-0.395551,0.656922,0.354384,0.535168,-1.333537,0.164068,-0.136723,29.541016,-0.976563,-106.933594,0,0
3494,2024 10 19,05:24:39.107,-0.402251,0.659575,0.348384,0.530833,-1.439009,0.19483,-0.139653,15.197754,-5.371094,-122.98584,0,0
3495,2024 10 19,05:24:39.115,-0.408958,0.662989,0.340472,0.526572,-1.497116,0.142582,-0.012207,0.0,-9.277344,-141.052246,0,0
3496,2024 10 19,05:24:39.123,-0.416113,0.667172,0.33074,0.521865,-1.69097,0.182134,0.043458,-8.117676,-14.221191,-163.574219,0,0
3497,2024 10 19,05:24:39.132,-0.416113,0.667172,0.33074,0.521865,-1.69097,0.182134,0.043458,-8.117676,-14.221191,-163.574219,0,0
3498,2024 10 19,05:24:39.140,-0.424247,0.671566,0.318433,0.517314,-1.772027,0.239265,0.096683,-16.296387,-31.494141,-191.589355,0,0
3499,2024 10 19,05:24:39.148,-0.433368,0.676471,0.303101,0.512551,-1.90289,0.253914,0.098148,-29.602051,-45.532227,-225.158691,0,0
3500,2024 10 19,05:24:39.157,-0.443923,0.681994,0.284887,0.506612,-2.184149,0.394055,-0.06885,-32.775879,-47.058105,-268.066406,0,0
3501,2024 10 19,05:24:39.165,-0.456969,0.687908,0.263161,0.498707,-2.603595,0.584979,-0.06006,-27.282715,-60.913086,-327.270508,0,0
3502,2024 10 19,05:24:39.173,-0.472831,0.693967,0.236425,0.488819,-2.992279,0.657247,-0.011719,-30.456543,-77.941895,-398.681641,0,0
3503,2024 10 19,05:24:39.182,-0.472831,0.693967,0.236425,0.488819,-2.992279,0.657247,-0.011719,-30.456543,-77.941895,-398.681641,0,0
3504,2024 10 19,05:24:39.190,-0.491653,0.699881,0.20403,0.476251,-3.544542,0.612812,-0.101077,-29.11377,-96.862793,-478.271484,0,0
3505,2024 10 19,05:24:39.198,-0.512595,0.704983,0.165589,0.461331,-3.834101,0.442885,-0.436048,-41.015625,-124.511719,-548.461914,0,0
3506,2024 10 19,05:24:39.207,-0.533155,0.70877,0.121325,0.445725,-3.803339,-0.104495,-0.04004,-66.040039,-154.418945,-585.998535,0,0
3507,2024 10 19,05:24:39.215,-0.552542,0.710952,0.075784,0.428369,-3.518662,-0.528336,-0.045412,-54.56543,-152.954102,-589.72168,0,1
3508,2024 10 19,05:24:39.223,-0.57151,0.709851,0.032421,0.410411,-3.405866,0.00293,0.290048,-36.193848,-144.65332,-563.537598,0,0
3509,2024 10 19,05:24:39.232,-0.57151,0.709851,0.032421,0.410411,-3.405866,0.00293,0.290048,-36.193848,-144.65332,-563.537598,0,0
3510,2024 10 19,05:24:39.240,-0.589703,0.706568,-0.008809,0.391067,-3.352641,0.974639,0.457533,-7.995605,-141.113281,-563.964844,0,0
3511,2024 10 19,05:24:39.248,-0.606426,0.700948,-0.049789,0.372074,-2.422925,1.478072,1.123569,-9.94873,-140.74707,-548.034668,0,0
3512,2024 10 19,05:24:39.257,-0.622009,0.695605,-0.086581,0.348914,-1.795465,1.506394,1.101108,0.0,-69.519043,-540.588379,0,0
3513,2024 10 19,05:24:39.265,-0.637909,0.690286,-0.119025,0.320015,-1.68804,0.929228,1.324259,20.507813,16.967773,-550.231934,0,0
3514,2024 10 19,05:24:39.273,-0.657926,0.681855,-0.145222,0.284813,-0.845729,0.340342,0.294931,96.252441,93.933105,-544.616699,0,0
3515,2024 10 19,05:24:39.282,-0.657926,0.681855,-0.145222,0.284813,-0.845729,0.340342,0.294931,96.252441,93.933105,-544.616699,0,0
3516,2024 10 19,05:24:39.290,-0.674732,0.670637,-0.158602,0.264251,2.122135,1.689505,1.577197,144.287109,34.057617,-245.910645,0,0
3517,2024 10 19,05:24:39.298,-0.680924,0.667888,-0.149855,0.260406,-0.264168,2.695395,0.097171,57.434082,141.418457,100.830078,0,0
3518,2024 10 19,05:24:39.307,-0.679381,0.671108,-0.1272,0.268094,-1.909726,1.643605,0.451186,51.025391,86.853027,268.493652,0,0
3519,2024 10 19,05:24:39.315,-0.671363,0.673993,-0.107973,0.288699,-1.052278,1.110385,0.698264,-7.263184,-29.724121,337.768555,0,0
3520,2024 10 19,05:24:39.323,-0.662226,0.67721,-0.087706,0.308465,-0.721213,0.885281,0.387219,-3.479004,8.728027,332.763672,0,0
3521,2024 10 19,05:24:39.332,-0.662226,0.67721,-0.087706,0.308465,-0.721213,0.885281,0.387219,-3.479004,8.728027,332.763672,0,0
3522,2024 10 19,05:24:39.340,-0.653308,0.679828,-0.069071,0.325963,-0.294931,0.464858,1.012238,3.540039,9.033203,296.569824,0,0
3523,2024 10 19,05:24:39.348,-0.646412,0.682314,-0.049189,0.337906,-0.017579,0.308603,0.632344,20.507813,72.998047,263.183594,0,0
3524,2024 10 19,05:24:39.357,-0.640992,0.684617,-0.027016,0.345975,-0.092288,0.437513,0.692404,37.841797,117.431641,254.150391,0,0
3525,2024 10 19,05:24:39.365,-0.63578,0.687024,-0.001503,0.351823,-0.466323,0.623554,0.489273,49.743652,154.47998,266.845703,0,0
3526,2024 10 19,05:24:39.373,-0.629597,0.688832,0.026055,0.358386,-0.766625,0.730979,0.382336,51.513672,153.564453,291.992188,0,0
3527,2024 10 19,05:24:39.382,-0.621923,0.689705,0.054533,0.366803,-0.908231,0.72219,0.228034,46.813965,139.221191,317.260742,0,0
3528,2024 10 19,05:24:39.390,-0.621923,0.689705,0.054533,0.366803,-0.908231,0.72219,0.228034,46.813965,139.221191,317.260742,0,0
3529,2024 10 19,05:24:39.398,-0.61266,0.689523,0.08311,0.377224,-0.870144,0.639668,0.263192,40.649414,121.887207,337.82959,0,0
3530,2024 10 19,05:24:39.407,-0.601954,0.688678,0.111934,0.388387,-0.787133,0.533219,0.254891,35.03418,120.361328,350.158691,0,0
3531,2024 10 19,05:24:39.415,-0.590018,0.687611,0.141405,0.398841,-0.762719,0.46437,0.215339,31.25,135.314941,355.285645,0,0
3532,2024 10 19,05:24:39.423,-0.57685,0.686692,0.171893,0.407616,-0.882839,0.46437,0.190435,27.038574,159.484863,357.23877,0,0
3533,2024 10 19,05:24:39.432,-0.562242,0.685898,0.203208,0.414891,-1.11771,0.480483,0.138188,21.484375,178.344727,360.107422,0,0
3534,2024 10 19,05:24:39.440,-0.562242,0.685898,0.203208,0.414891,-1.11771,0.480483,0.138188,21.484375,178.344727,360.107422,0,0
3535,2024 10 19,05:24:39.448,-0.546176,0.684797,0.23477,0.421459,-1.326212,0.478042,0.098148,14.038086,184.448242,364.990234,0,0
3536,2024 10 19,05:24:39.457,-0.528699,0.683057,0.266155,0.427868,-1.460494,0.4756,0.062014,6.164551,184.936523,371.154785,0,0
3537,2024 10 19,05:24:39.465,-0.509703,0.680691,0.297198,0.434207,-1.631397,0.47853,0.008301,-3.967285,185.424805,377.319336,0,0
3538,2024 10 19,05:24:39.473,-0.489147,0.677606,0.327708,0.440674,-1.770562,0.473647,-0.036134,-15.50293,182.800293,384.460449,0,0
3539,2024 10 19,05:24:39.482,-0.466925,0.673694,0.35754,0.447528,-1.940489,0.494156,-0.047365,-29.23584,178.405762,393.493652,0,0
3540,2024 10 19,05:24:39.490,-0.466925,0.673694,0.35754,0.447528,-1.940489,0.494156,-0.047365,-29.23584,178.405762,393.493652,0,0
3541,2024 10 19,05:24:39.498,-0.443048,0.668883,0.386346,0.455018,-2.078677,0.50441,-0.072756,-45.471191,169.372559,400.939941,0,0
3542,2024 10 19,05:24:39.507,-0.417551,0.663278,0.414061,0.462889,-2.238349,0.50148,-0.061525,-60.668945,167.053223,406.738281,0,0
3543,2024 10 19,05:24:39.515,-0.390305,0.656915,0.440872,0.47091,-2.43318,0.502457,0.016602,-75.378418,165.83252,414.672852,0,0
3544,2024 10 19,05:24:39.523,-0.361245,0.649576,0.467057,0.478968,-2.680746,0.419446,0.020508,-87.341309,166.687012,426.635742,0,0
3545,2024 10 19,05:24:39.532,-0.33056,0.64089,0.492815,0.486953,-2.833583,0.235359,-0.006836,-94.970703,169.067383,441.955566,0,0
3546,2024 10 19,05:24:39.540,-0.33056,0.64089,0.492815,0.486953,-2.833583,0.235359,-0.006836,-94.970703,169.067383,441.955566,0,0
3547,2024 10 19,05:24:39.548,-0.298616,0.63034,0.518455,0.494675,-3.137791,-0.209967,0.167486,-95.336914,164.978027,461.425781,0,0
3548,2024 10 19,05:24:39.557,-0.266658,0.617208,0.543757,0.50227,-3.361431,-0.700705,0.038087,-86.303711,146.118164,474.914551,0,0
3549,2024 10 19,05:24:39.565,-0.236788,0.601536,0.567599,0.50982,-3.375103,-1.206092,0.221686,-70.19043,114.562988,466.003418,0,0
3550,2024 10 19,05:24:39.573,-0.21016,0.585028,0.589303,0.516039,-3.223243,-1.751518,0.328623,-50.78125,92.895508,431.396484,0,0
3551,2024 10 19,05:24:39.582,-0.187177,0.569778,0.608121,0.520102,-2.76278,-2.403394,0.3755,-34.729004,89.72168,374.87793,0,0
3552,2024 10 19,05:24:39.590,-0.187177,0.569778,0.608121,0.520102,-2.76278,-2.403394,0.3755,-34.729004,89.72168,374.87793,0,0
3553,2024 10 19,05:24:39.598,-0.166412,0.558764,0.62374,0.520614,-1.950255,-2.883389,-0.089846,-27.099609,123.535156,301.452637,0,0
3554,2024 10 19,05:24:39.607,-0.145957,0.554482,0.635564,0.517015,-1.506394,-3.907834,-1.017609,-36.865234,193.481445,219.116211,0,0
3555,2024 10 19,05:24:39.615,-0.124191,0.557949,0.644071,0.508371,-3.205664,-4.902493,-2.071352,-34.179688,269.348145,147.827148,0,0
3556,2024 10 19,05:24:39.623,-0.109936,0.56289,0.647749,0.501489,-4.229621,-5.937681,-2.342357,-30.883789,162.597656,71.105957,0,0
3557,2024 10 19,05:24:39.632,-0.110978,0.564262,0.646804,0.500936,-3.097751,-5.393231,-1.466842,5.493164,-23.193359,-8.178711,0,0
3558,2024 10 19,05:24:39.640,-0.110978,0.564262,0.646804,0.500936,-3.097751,-5.393231,-1.466842,5.493164,-23.193359,-8.178711,0,0
3559,2024 10 19,05:24:39.648,-0.122843,0.563775,0.643564,0.502885,-1.580126,-3.754997,-0.74514,44.189453,-105.163574,-69.702148,0,0
3560,2024 10 19,05:24:39.657,-0.136095,0.565139,0.639921,0.50259,-1.930235,-1.872616,-0.815455,59.570313,-82.214355,-98.022461,0,0
3561,2024 10 19,05:24:39.665,-0.164472,0.586186,0.637532,0.47211,-1.591357,2.899502,-8.80398,335.021973,31.12793,-452.453613,1,0
3562,2024 10 19,05:24:39.673,-0.224484,0.575399,0.609173,0.497424,1.991272,1.855525,6.916716,147.216797,-698.242188,-409.973145,0,0
3563,2024 10 19,05:24:39.682,-0.240482,0.599052,0.589309,0.485818,-1.840876,-0.774438,-2.151433,-62.62207,224.304199,-418.579102,0,0
3564,2024 10 19,05:24:39.690,-0.240482,0.599052,0.589309,0.485818,-1.840876,-0.774438,-2.151433,-62.62207,224.304199,-418.579102,0,0
3565,2024 10 19,05:24:39.698,-0.259697,0.620785,0.564737,0.47776,-3.021088,0.238289,-0.513199,-90.332031,-152.709961,-433.898926,0,0
3566,2024 10 19,05:24:39.707,-0.275626,0.633297,0.531071,0.490845,-1.637745,-1.188025,0.448256,-173.828125,-160.27832,-337.646484,0,0
3567,2024 10 19,05:24:39.715,-0.284755,0.64475,0.510163,0.492895,-2.748131,-0.612323,-1.457076,-70.373535,-91.97998,-235.046387,0,0
3568,2024 10 19,05:24:39.723,-0.300776,0.643881,0.491393,0.503473,-1.124058,-0.024415,0.928251,-42.053223,-242.30957,-175.415039,0,0
3569,2024 10 19,05:24:39.732,-0.311355,0.643834,0.477908,0.510038,-1.47026,-0.007813,0.091311,-42.175293,-141.357422,-123.840332,0,0
3570,2024 10 19,05:24:39.740,-0.311355,0.643834,0.477908,0.510038,-1.47026,-0.007813,0.091311,-42.175293,-141.357422,-123.840332,0,0
3571,2024 10 19,05:24:39.748,-0.318273,0.64188,0.465167,0.519915,-1.103549,-0.396985,0.383312,-73.730469,-168.762207,-76.171875,0,0
3572,2024 10 19,05:24:39.757,-0.324278,0.638761,0.45564,0.528413,-0.967803,-0.053713,-0.24366,-41.320801,-144.836426,-51.269531,0,0
3573,2024 10 19,05:24:39.765,-0.329894,0.634981,0.447423,0.536453,-0.893094,0.147465,0.144536,-35.03418,-132.385254,-41.748047,0,0
3574,2024 10 19,05:24:39.773,-0.332832,0.632273,0.440211,0.543754,-0.944853,0.07178,-0.180181,-57.006836,-109.741211,-25.268555,0,0
3575,2024 10 19,05:24:39.782,-0.334591,0.629585,0.433325,0.551273,-0.779809,0.003418,-0.136723,-54.382324,-98.632813,-17.211914,0,0
3576,2024 10 19,05:24:39.790,-0.336076,0.627586,0.428123,0.556686,-0.898465,0.105472,-0.088382,-38.635254,-72.265625,-15.869141,0,0
3577,2024 10 19,05:24:39.798,-0.336076,0.627586,0.428123,0.556686,-0.898465,0.105472,-0.088382,-38.635254,-72.265625,-15.869141,0,0
3578,2024 10 19,05:24:39.807,-0.336916,0.626029,0.423647,0.561337,-0.866237,0.047365,-0.070315,-39.428711,-60.546875,-10.925293,0,0
3579,2024 10 19,05:24:39.815,-0.337639,0.624755,0.420119,0.564961,-0.799341,0.036134,-0.183599,-24.597168,-45.837402,-9.82666,0,0
3580,2024 10 19,05:24:39.823,-0.338616,0.623907,0.417974,0.566901,-0.85696,0.050783,-0.110843,-9.399414,-25.939941,-9.94873,0,0
3581,2024 10 19,05:24:39.832,-0.339797,0.623434,0.416801,0.567579,-0.89993,0.086428,-0.085452,1.831055,-15.075684,-11.71875,0,0
3582,2024 10 19,05:24:39.840,-0.341264,0.623174,0.416172,0.567446,-0.920927,0.095706,-0.075198,9.70459,-6.958008,-14.221191,0,0
3583,2024 10 19,05:24:39.848,-0.341264,0.623174,0.416172,0.567446,-0.920927,0.095706,-0.075198,9.70459,-6.958008,-14.221191,0,0
3584,2024 10 19,05:24:39.857,-0.343048,0.623088,0.415956,0.566622,-0.938994,0.117679,-0.037599,17.51709,-1.77002,-16.906738,0,0
3585,2024 10 19,05:24:39.865,-0.345071,0.62315,0.416026,0.565272,-0.938017,0.131352,-0.055177,22.216797,2.441406,-19.104004,0,0
3586,2024 10 19,05:24:39.873,-0.347105,0.623362,0.416136,0.56371,-0.938017,0.142094,-0.048341,21.179199,5.065918,-20.446777,0,0
3587,2024 10 19,05:24:39.882,-0.349038,0.623773,0.416187,0.562021,-0.937529,0.190435,-0.082522,20.690918,6.835938,-21.54541,0,0
3588,2024 10 19,05:24:39.890,-0.350474,0.624509,0.415874,0.560541,-0.932157,0.124027,-0.034669,8.666992,8.850098,-21.42334,0,0
3589,2024 10 19,05:24:39.898,-0.350474,0.624509,0.415874,0.560541,-0.932157,0.124027,-0.034669,8.666992,8.850098,-21.42334,0,0
3590,2024 10 19,05:24:39.907,-0.351516,0.625475,0.41536,0.55919,-0.952666,0.123051,-0.054201,5.554199,9.338379,-20.568848,0,0
3591,2024 10 19,05:24:39.915,-0.352431,0.626343,0.414615,0.558194,-0.995148,0.115726,0.017579,2.502441,5.249023,-19.65332,0,0
3592,2024 10 19,05:24:39.923,-0.353424,0.626969,0.413719,0.557529,-0.994659,0.100589,0.029786,2.258301,-0.549316,-18.554688,0,0
3593,2024 10 19,05:24:39.932,-0.354583,0.627237,0.412653,0.557281,-0.992706,0.098636,0.02295,1.037598,-7.8125,-17.578125,0,0
3594,2024 10 19,05:24:39.940,-0.355922,0.627182,0.411335,0.557464,-0.976592,0.127934,-0.016114,0.183105,-13.977051,-17.51709,0,0
3595,2024 10 19,05:24:39.948,-0.355922,0.627182,0.411335,0.557464,-0.976592,0.127934,-0.016114,0.183105,-13.977051,-17.51709,0,0
3596,2024 10 19,05:24:39.957,-0.357214,0.626976,0.409669,0.558096,-0.932646,0.11475,-0.046388,-4.333496,-18.493652,-17.211914,0,0
3597,2024 10 19,05:24:39.965,-0.358285,0.626843,0.40784,0.558897,-0.920438,0.10596,-0.090823,-7.8125,-17.822266,-16.235352,0,0
3598,2024 10 19,05:24:39.973,-0.359204,0.62678,0.405906,0.559785,-0.940458,0.107425,-0.053224,-10.070801,-18.371582,-16.357422,0,0
3599,2024 10 19,05:24:39.982,-0.359971,0.626761,0.403989,0.5607,-0.909696,0.066408,-0.054689,-11.230469,-16.113281,-14.892578,0,0
3600,2024 10 19,05:24:39.990,-0.360639,0.626813,0.402104,0.561567,-0.941435,0.064455,-0.057619,-11.59668,-16.723633,-14.526367,0,0
3601,2024 10 19,05:24:39.998,-0.360639,0.626813,0.402104,0.561567,-0.941435,0.064455,-0.057619,-11.59668,-16.723633,-14.526367,0,0
3602,2024 10 19,05:24:40.007,-0.361442,0.626673,0.400286,0.562505,-0.92288,0.044435,-0.049318,-8.300781,-18.005371,-13.73291,0,0
3603,2024 10 19,05:24:40.015,-0.362491,0.626313,0.398755,0.563317,-0.921415,0.036622,-0.097171,-3.051758,-18.615723,-12.756348,0,0
3604,2024 10 19,05:24:40.023,-0.363829,0.625716,0.397509,0.563998,-0.909207,0.053713,-0.08887,1.708984,-19.042969,-11.84082,0,0
3605,2024 10 19,05:24:40.032,-0.365298,0.625043,0.39652,0.564491,-0.973174,0.073244,-0.058596,5.493164,-17.883301,-11.71875,0,0
3606,2024 10 19,05:24:40.040,-0.367025,0.624184,0.395441,0.565079,-0.992706,0.067385,-0.033692,6.713867,-22.888184,-13.549805,0,0
3607,2024 10 19,05:24:40.048,-0.367025,0.624184,0.395441,0.565079,-0.992706,0.067385,-0.033692,6.713867,-22.888184,-13.549805,0,0
3608,2024 10 19,05:24:40.057,-0.369106,0.623173,0.394206,0.565701,-0.973662,0.100101,-0.086428,8.850098,-25.20752,-16.357422,0,0
3609,2024 10 19,05:24:40.065,-0.371239,0.622324,0.392768,0.566239,-0.974151,0.097171,-0.082034,5.67627,-23.681641,-19.226074,0,0
3610,2024 10 19,05:24:40.073,-0.373284,0.621887,0.391087,0.566539,-1.005402,0.116703,-0.097171,4.089355,-19.042969,-23.864746,0,0
3611,2024 10 19,05:24:40.082,-0.375459,0.621965,0.389246,0.566284,-1.014191,0.103519,-0.130863,3.78418,-13.061523,-31.37207,0,0
3612,2024 10 19,05:24:40.090,-0.378051,0.622593,0.387272,0.565222,-1.109897,0.073244,-0.063478,9.82666,-4.760742,-41.687012,0,0
3613,2024 10 19,05:24:40.098,-0.378051,0.622593,0.387272,0.565222,-1.109897,0.073244,-0.063478,9.82666,-4.760742,-41.687012,0,0
3614,2024 10 19,05:24:40.107,-0.381604,0.623717,0.385248,0.562974,-1.246132,0.088382,-0.120609,20.263672,-0.244141,-57.067871,0,0
3615,2024 10 19,05:24:40.115,-0.386829,0.624943,0.382664,0.559802,-1.300821,0.129398,-0.056154,32.348633,-2.380371,-77.392578,0,0
3616,2024 10 19,05:24:40.123,-0.393514,0.626725,0.379301,0.555422,-1.449263,0.209479,-0.138676,41.137695,-0.732422,-101.928711,0,0
3617,2024 10 19,05:24:40.132,-0.401438,0.628712,0.374401,0.55081,-1.466353,0.201178,-0.18067,32.348633,-12.756348,-121.21582,0,0
3618,2024 10 19,05:24:40.140,-0.409869,0.631228,0.367742,0.54619,-1.365276,0.252937,-0.000977,23.132324,-17.089844,-138.61084,0,0
3619,2024 10 19,05:24:40.148,-0.409869,0.631228,0.367742,0.54619,-1.365276,0.252937,-0.000977,23.132324,-17.089844,-138.61084,0,0
3620,2024 10 19,05:24:40.157,-0.417565,0.634672,0.359359,0.541933,-1.585009,0.231452,-0.082034,2.13623,-17.63916,-149.597168,0,0
3621,2024 10 19,05:24:40.165,-0.426047,0.638939,0.349281,0.536883,-1.775933,0.245125,-0.007813,-3.479004,-22.521973,-177.246094,0,0
3622,2024 10 19,05:24:40.173,-0.435973,0.64326,0.336433,0.531937,-1.892148,0.337413,0.172369,-9.216309,-44.677734,-206.481934,0,0
3623,2024 10 19,05:24:40.182,-0.446783,0.648308,0.320629,0.526572,-2.078677,0.429212,0.077151,-21.118164,-52.185059,-242.858887,0,0
3624,2024 10 19,05:24:40.190,-0.45896,0.653895,0.301412,0.520507,-2.260323,0.548357,-0.012696,-36.071777,-67.504883,-284.606934,0,0
3625,2024 10 19,05:24:40.198,-0.473162,0.659985,0.27831,0.512915,-2.724204,0.702658,-0.047853,-36.193848,-79.772949,-340.820313,0,0
3626,2024 10 19,05:24:40.207,-0.473162,0.659985,0.27831,0.512915,-2.724204,0.702658,-0.047853,-36.193848,-79.772949,-340.820313,0,0
3627,2024 10 19,05:24:40.215,-0.490618,0.665987,0.250451,0.503021,-3.223243,0.861354,0.089846,-32.897949,-105.041504,-413.818359,0,0
3628,2024 10 19,05:24:40.223,-0.511411,0.671078,0.216188,0.491301,-4.282357,0.5215,0.208502,-33.325195,-141.418457,-494.689941,0,0
3629,2024 10 19,05:24:40.232,-0.535849,0.674275,0.175427,0.476911,-4.89761,0.43849,0.150884,-21.54541,-187.5,-576.904297,0,0
3630,2024 10 19,05:24:40.240,-0.560592,0.674276,0.12803,0.463353,-4.197882,-0.089846,0.146489,-42.541504,-250.183105,-605.651855,0,0
3631,2024 10 19,05:24:40.248,-0.584179,0.671783,0.080054,0.448368,-3.629017,0.201666,0.264657,-25.085449,-235.595703,-600.952148,0,0
3632,2024 10 19,05:24:40.257,-0.584179,0.671783,0.080054,0.448368,-3.629017,0.201666,0.264657,-25.085449,-235.595703,-600.952148,0,0
3633,2024 10 19,05:24:40.265,-0.606185,0.667093,0.034786,0.431643,-3.490341,0.703635,0.324717,-16.296387,-216.674805,-580.322266,0,0
3634,2024 10 19,05:24:40.273,-0.62745,0.659667,-0.00861,0.413608,-3.018647,1.514695,1.260292,17.028809,-213.012695,-574.951172,0,0
3635,2024 10 19,05:24:40.282,-0.647053,0.65142,-0.048485,0.393222,-2.080142,2.030824,1.212439,24.291992,-155.944824,-555.908203,0,0
3636,2024 10 19,05:24:40.290,-0.665978,0.644023,-0.083261,0.367116,-1.494675,1.824763,1.513718,21.057129,-66.833496,-557.800293,0,0
3637,2024 10 19,05:24:40.298,-0.686263,0.637323,-0.112773,0.331882,-1.173376,1.257363,0.847682,67.016602,53.710938,-606.567383,0,1
3638,2024 10 19,05:24:40.307,-0.686263,0.637323,-0.112773,0.331882,-1.173376,1.257363,0.847682,67.016602,53.710938,-606.567383,0,0
3639,2024 10 19,05:24:40.315,-0.704849,0.627985,-0.130781,0.302851,3.140233,1.826716,1.904355,138.916016,37.17041,-343.811035,0,0
3640,2024 10 19,05:24:40.323,-0.709031,0.627164,-0.125675,0.296895,-0.085452,2.81991,-0.714866,-40.161133,152.893066,72.998047,0,0
3641,2024 10 19,05:24:40.332,-0.704652,0.634219,-0.102158,0.301324,-2.157292,2.68807,0.619159,11.657715,137.756348,260.864258,0,0
3642,2024 10 19,05:24:40.340,-0.690071,0.643517,-0.083756,0.320426,-1.521042,1.261269,0.859401,-98.205566,3.356934,348.937988,0,0
3643,2024 10 19,05:24:40.348,-0.674263,0.651474,-0.06582,0.341495,-0.860866,0.885769,0.664571,-101.928711,-9.643555,355.957031,0,0
3644,2024 10 19,05:24:40.357,-0.674263,0.651474,-0.06582,0.341495,-0.860866,0.885769,0.664571,-101.928711,-9.643555,355.957031,0,0
3645,2024 10 19,05:24:40.365,-0.65872,0.65793,-0.050213,0.361519,0.011719,0.577654,1.10062,-78.430176,-6.896973,322.692871,0,0
3646,2024 10 19,05:24:40.373,-0.645514,0.664909,-0.031331,0.374469,0.163091,0.373547,0.775414,-53.405762,85.266113,291.320801,0,0
3647,2024 10 19,05:24:40.382,-0.634015,0.671919,-0.008764,0.382718,0.109378,0.504898,0.796899,-31.494141,142.63916,285.15625,0,0
3648,2024 10 19,05:24:40.390,-0.622742,0.679189,0.018351,0.388019,-0.495132,0.71926,0.554216,-14.160156,194.763184,301.025391,0,0
3649,2024 10 19,05:24:40.398,-0.610275,0.685474,0.047534,0.394246,-1.026887,0.807642,0.403821,-11.047363,182.922363,327.575684,0,0
3650,2024 10 19,05:24:40.407,-0.610275,0.685474,0.047534,0.394246,-1.026887,0.807642,0.403821,-11.047363,182.922363,327.575684,0,0
3651,2024 10 19,05:24:40.415,-0.596175,0.689802,0.076698,0.403566,-1.205603,0.78518,0.162603,-14.892578,146.66748,355.163574,0,0
3652,2024 10 19,05:24:40.423,-0.580476,0.691954,0.104828,0.416243,-1.156774,0.641621,0.185064,-20.507813,106.140137,376.953125,0,0
3653,2024 10 19,05:24:40.432,-0.563568,0.69255,0.132579,0.430335,-1.015656,0.454604,0.195318,-22.216797,93.87207,390.197754,0,0
3654,2024 10 19,05:24:40.440,-0.545836,0.692229,0.160973,0.443813,-0.880886,0.384777,0.224128,-16.967773,105.651855,396.606445,0,0
3655,2024 10 19,05:24:40.448,-0.527194,0.691661,0.190772,0.455278,-1.001984,0.374523,0.241218,-11.657715,133.300781,400.268555,0,0
3656,2024 10 19,05:24:40.457,-0.527194,0.691661,0.190772,0.455278,-1.001984,0.374523,0.241218,-11.657715,133.300781,400.268555,0,0
3657,2024 10 19,05:24:40.465,-0.507612,0.690807,0.221582,0.464776,-1.299356,0.391614,0.181646,-8.422852,152.282715,400.817871,0,0
3658,2024 10 19,05:24:40.473,-0.48727,0.689207,0.25254,0.47306,-1.580615,0.415052,0.077639,-7.141113,158.26416,400.32959,0,0
3659,2024 10 19,05:24:40.482,-0.466201,0.686452,0.283081,0.480943,-1.817438,0.417982,0.052248,-8.483887,152.954102,402.648926,0,0
3660,2024 10 19,05:24:40.490,-0.444385,0.682233,0.312987,0.488999,-1.895566,0.392102,0.015625,-10.803223,142.272949,408.569336,0,0
3661,2024 10 19,05:24:40.498,-0.421698,0.676624,0.342542,0.497007,-1.892148,0.336924,0.058596,-11.779785,139.404297,416.748047,0,0
3662,2024 10 19,05:24:40.507,-0.421698,0.676624,0.342542,0.497007,-1.892148,0.336924,0.058596,-11.779785,139.404297,416.748047,0,0
3663,2024 10 19,05:24:40.515,-0.397843,0.669959,0.372228,0.504303,-2.032289,0.298837,0.069338,-12.084961,145.874023,425.964355,0,0
3664,2024 10 19,05:24:40.523,-0.372924,0.662303,0.401752,0.510762,-2.295969,0.270516,0.063478,-13.244629,149.291992,430.725098,0,0
3665,2024 10 19,05:24:40.532,-0.347397,0.653555,0.430477,0.516595,-2.522538,0.223151,0.053224,-15.197754,146.240234,430.297852,0,0
3666,2024 10 19,05:24:40.540,-0.321681,0.643629,0.45816,0.521874,-2.675863,0.026856,0.116214,-15.136719,140.197754,428.649902,0,0
3667,2024 10 19,05:24:40.548,-0.295916,0.63249,0.485055,0.526415,-2.753502,-0.339854,0.164068,-10.864258,137.329102,430.053711,0,0
3668,2024 10 19,05:24:40.557,-0.295916,0.63249,0.485055,0.526415,-2.753502,-0.339854,0.164068,-10.864258,137.329102,430.053711,0,0
3669,2024 10 19,05:24:40.565,-0.270127,0.620285,0.511437,0.529821,-2.879483,-0.823756,0.157231,-4.699707,138.000488,430.908203,0,0
3670,2024 10 19,05:24:40.573,-0.244892,0.607349,0.536478,0.532303,-3.08066,-1.308145,0.096683,-3.845215,130.859375,419.250488,0,0
3671,2024 10 19,05:24:40.582,-0.221476,0.59412,0.558711,0.534613,-3.148045,-1.782281,0.109867,-8.666992,108.581543,388.549805,0,0
3672,2024 10 19,05:24:40.590,-0.200479,0.5818,0.577261,0.536737,-2.941984,-2.297433,0.081057,-17.944336,94.116211,341.85791,0,0
3673,2024 10 19,05:24:40.598,-0.181337,0.57201,0.591938,0.538081,-2.421461,-2.779382,-0.142094,-32.287598,99.853516,286.499023,0,0
3674,2024 10 19,05:24:40.607,-0.16254,0.566775,0.602925,0.537428,-1.957091,-3.03476,-0.739769,-50.598145,139.648438,224.67041,0,0
3675,2024 10 19,05:24:40.615,-0.16254,0.566775,0.602925,0.537428,-1.957091,-3.03476,-0.739769,-50.598145,139.648438,224.67041,0,0
3676,2024 10 19,05:24:40.623,-0.144486,0.566686,0.609928,0.534769,-1.420454,-3.159764,-1.199255,-61.950684,166.442871,150.20752,0,0
3677,2024 10 19,05:24:40.632,-0.126568,0.571331,0.613161,0.530655,-2.811121,-4.826319,-2.007874,-76.35498,206.726074,101.5625,0,0
3678,2024 10 19,05:24:40.640,-0.115499,0.575951,0.614794,0.526279,-3.865841,-5.004059,-1.768609,-37.04834,114.929199,55.297852,0,0
3679,2024 10 19,05:24:40.648,-0.119166,0.574968,0.613211,0.528378,-2.343822,-4.764306,-1.171422,7.263184,-75.927734,-9.277344,0,0
3680,2024 10 19,05:24:40.657,-0.131487,0.573307,0.610622,0.530256,-1.376507,-3.684195,-0.57033,59.692383,-98.022461,-66.162109,0,0
3681,2024 10 19,05:24:40.665,-0.131487,0.573307,0.610622,0.530256,-1.376507,-3.684195,-0.57033,59.692383,-98.022461,-66.162109,0,0
3682,2024 10 19,05:24:40.673,-0.144465,0.574487,0.608173,0.528413,-1.563524,-2.357494,-0.745628,78.00293,-64.453125,-94.055176,0,0
3683,2024 10 19,05:24:40.682,-0.16159,0.584335,0.611125,0.508889,-14.526322,0.562517,-2.755944,419.921875,228.942871,-243.591309,0,0
3684,2024 10 19,05:24:40.690,-0.209653,0.582579,0.590327,0.517842,3.212989,2.077212,1.620655,-99.731445,-818.42041,-313.659668,0,0
3685,2024 10 19,05:24:40.698,-0.248802,0.580037,0.561915,0.534702,4.08948,3.251564,1.77984,-56.274414,-170.593262,-421.875,0,0
3686,2024 10 19,05:24:40.707,-0.248055,0.619752,0.540111,0.5125,-3.6798,1.296915,-1.710013,-61.889648,291.015625,-494.445801,1,0
3687,2024 10 19,05:24:40.715,-0.248055,0.619752,0.540111,0.5125,-3.6798,1.296915,-1.710013,-61.889648,291.015625,-494.445801,0,0
3688,2024 10 19,05:24:40.723,-0.258057,0.639871,0.498228,0.52511,-2.546953,-2.142155,0.235847,-355.285645,-230.041504,-411.315918,0,0
3689,2024 10 19,05:24:40.732,-0.264557,0.654629,0.468143,0.53133,-3.432722,-1.933164,-1.250526,-152.893066,-17.150879,-283.081055,0,0
3690,2024 10 19,05:24:40.740,-0.280419,0.656266,0.448496,0.538081,-1.951231,-0.203619,-0.176763,-27.770996,-252.319336,-212.219238,0,0
3691,2024 10 19,05:24:40.748,-0.297111,0.652476,0.432292,0.546922,-1.273476,0.165532,1.11185,-8.605957,-186.645508,-161.499023,0,0
3692,2024 10 19,05:24:40.757,-0.304386,0.650806,0.417874,0.556041,-1.323283,-0.287118,0.051271,-103.820801,-181.335449,-96.008301,0,0
3693,2024 10 19,05:24:40.765,-0.304386,0.650806,0.417874,0.556041,-1.323283,-0.287118,0.051271,-103.820801,-181.335449,-96.008301,0,0
3694,2024 10 19,05:24:40.773,-0.307912,0.646584,0.403805,0.569264,-0.506363,-0.615253,-0.518082,-101.196289,-179.016113,-49.926758,0,0
3695,2024 10 19,05:24:40.782,-0.311959,0.642989,0.396478,0.57624,-0.809107,0.017579,-0.244636,-23.254395,-98.388672,-33.02002,0,0
3696,2024 10 19,05:24:40.790,-0.314036,0.64063,0.391612,0.581046,-1.008332,0.136235,0.12891,-38.269043,-72.753906,-18.920898,0,0
3697,2024 10 19,05:24:40.798,-0.314908,0.638605,0.386714,0.586062,-0.63918,-0.183111,-0.526383,-32.043457,-69.396973,-15.197754,0,0
3698,2024 10 19,05:24:40.807,-0.316908,0.636939,0.384333,0.588358,-0.922391,0.193365,0.152348,-6.469727,-32.775879,-12.512207,0,0
3699,2024 10 19,05:24:40.815,-0.316908,0.636939,0.384333,0.588358,-0.922391,0.193365,0.152348,-6.469727,-32.775879,-12.512207,0,0
3700,2024 10 19,05:24:40.823,-0.317389,0.636213,0.382229,0.590252,-0.929228,0.056154,-0.234382,-13.61084,-31.494141,-9.521484,0,0
3701,2024 10 19,05:24:40.832,-0.318703,0.635182,0.380412,0.591826,-0.879421,0.102542,-0.021973,-5.187988,-24.658203,-12.390137,0,0
3702,2024 10 19,05:24:40.840,-0.319835,0.6349,0.379103,0.592358,-0.959502,0.107913,-0.120609,-0.488281,-13.916016,-15.563965,0,0
3703,2024 10 19,05:24:40.848,-0.321598,0.634676,0.377772,0.592494,-0.947783,0.082522,0.000488,4.882813,-13.671875,-21.728516,0,0
3704,2024 10 19,05:24:40.857,-0.323698,0.634595,0.376554,0.592213,-0.933134,0.074709,-0.061037,9.70459,-11.413574,-24.414063,0,0
3705,2024 10 19,05:24:40.865,-0.323698,0.634595,0.376554,0.592213,-0.933134,0.074709,-0.061037,9.70459,-11.413574,-24.414063,0,0
3706,2024 10 19,05:24:40.873,-0.326021,0.634512,0.375502,0.591695,-0.941923,0.093753,-0.070803,13.183594,-9.033203,-25.146484,0,0
3707,2024 10 19,05:24:40.882,-0.328137,0.634551,0.374593,0.59106,-0.933622,0.093265,-0.080081,10.375977,-6.591797,-23.4375,0,0
3708,2024 10 19,05:24:40.890,-0.329916,0.634698,0.373636,0.590517,-0.910184,0.141606,-0.116214,5.79834,-4.699707,-21.606445,0,0
3709,2024 10 19,05:24:40.898,-0.330953,0.635131,0.372414,0.590243,-0.928739,0.108402,-0.069826,-2.075195,-2.624512,-18.737793,0,0
3710,2024 10 19,05:24:40.907,-0.331492,0.635644,0.371001,0.590278,-0.939482,0.081057,-0.077151,-9.338379,-3.967285,-15.74707,0,0
3711,2024 10 19,05:24:40.915,-0.331492,0.635644,0.371001,0.590278,-0.939482,0.081057,-0.077151,-9.338379,-3.967285,-15.74707,0,0
3712,2024 10 19,05:24:40.923,-0.331849,0.636113,0.36954,0.590489,-0.959502,0.06885,-0.059572,-10.620117,-4.638672,-14.221191,0,0
3713,2024 10 19,05:24:40.932,-0.332257,0.63647,0.368067,0.590794,-0.958037,0.068361,-0.033204,-9.399414,-6.958008,-14.160156,0,0
3714,2024 10 19,05:24:40.940,-0.33269,0.636693,0.366602,0.591221,-0.958525,0.056642,-0.056642,-9.216309,-8.544922,-13.000488,0,0
3715,2024 10 19,05:24:40.948,-0.333282,0.636764,0.36514,0.591715,-0.946806,0.089846,-0.056154,-7.751465,-10.986328,-13.427734,0,0
3716,2024 10 19,05:24:40.957,-0.333873,0.636803,0.363608,0.592285,-0.913602,0.086428,-0.104495,-8.117676,-11.535645,-13.85498,0,0
3717,2024 10 19,05:24:40.965,-0.333873,0.636803,0.363608,0.592285,-0.913602,0.086428,-0.104495,-8.117676,-11.535645,-13.85498,0,0
3718,2024 10 19,05:24:40.973,-0.334362,0.636973,0.361991,0.592815,-0.905789,0.081057,-0.124516,-10.986328,-8.789063,-14.404297,0,0
3719,2024 10 19,05:24:40.982,-0.334767,0.637448,0.360342,0.593081,-0.934111,0.06592,-0.139653,-11.535645,-4.943848,-16.906738,0,0
3720,2024 10 19,05:24:40.990,-0.335319,0.638112,0.35868,0.593062,-0.966826,0.066897,-0.0918,-9.216309,-1.525879,-19.775391,0,0
3721,2024 10 19,05:24:40.998,-0.336092,0.639012,0.357094,0.592613,-0.944365,0.04297,-0.066408,-6.286621,1.037598,-23.132324,0,0
3722,2024 10 19,05:24:41.007,-0.337149,0.639883,0.355621,0.591958,-0.987823,0.066897,-0.067873,-0.305176,2.807617,-25.390625,0,0
3723,2024 10 19,05:24:41.015,-0.338704,0.64056,0.35412,0.591237,-0.990753,0.043458,-0.044435,2.990723,-3.234863,-27.954102,0,0
3724,2024 10 19,05:24:41.023,-0.338704,0.64056,0.35412,0.591237,-0.990753,0.043458,-0.044435,2.990723,-3.234863,-27.954102,0,0
3725,2024 10 19,05:24:41.032,-0.340721,0.641038,0.352728,0.590392,-1.003937,0.026856,-0.036134,8.056641,-3.112793,-29.907227,0,0
3726,2024 10 19,05:24:41.040,-0.343215,0.641293,0.351444,0.589435,-1.019562,0.014649,-0.051271,13.061523,-7.263184,-31.799316,0,0
3727,2024 10 19,05:24:41.048,-0.346135,0.641263,0.350067,0.58858,-0.978057,0.010254,-0.082034,16.357422,-10.864258,-34.118652,0,0
3728,2024 10 19,05:24:41.057,-0.349435,0.641101,0.348663,0.587639,-0.989776,0.036134,-0.087405,19.958496,-12.512207,-36.621094,0,0
3729,2024 10 19,05:24:41.065,-0.353053,0.640986,0.347178,0.586479,-1.015656,0.046388,-0.107913,22.766113,-11.535645,-41.07666,0,0
3730,2024 10 19,05:24:41.073,-0.353053,0.640986,0.347178,0.586479,-1.015656,0.046388,-0.107913,22.766113,-11.535645,-41.07666,0,0
3731,2024 10 19,05:24:41.082,-0.357049,0.641041,0.345568,0.584949,-1.083529,0.025391,-0.118168,23.803711,-9.277344,-47.363281,0,0
3732,2024 10 19,05:24:41.090,-0.361774,0.641297,0.34375,0.582833,-1.23246,0.035646,-0.072756,31.188965,-8.300781,-58.166504,0,0
3733,2024 10 19,05:24:41.098,-0.367881,0.641396,0.341441,0.580252,-1.283731,0.095706,-0.052248,41.809082,-15.075684,-73.486328,0,0
3734,2024 10 19,05:24:41.107,-0.375296,0.641466,0.338245,0.577291,-1.292032,0.102054,-0.07178,46.569824,-19.897461,-91.491699,0,0
3735,2024 10 19,05:24:41.115,-0.383898,0.641803,0.334184,0.573614,-1.325236,0.113773,-0.097659,48.095703,-22.338867,-109.313965,0,0
3736,2024 10 19,05:24:41.123,-0.383898,0.641803,0.334184,0.573614,-1.325236,0.113773,-0.097659,48.095703,-22.338867,-109.313965,0,0
3737,2024 10 19,05:24:41.132,-0.393354,0.642458,0.328828,0.569555,-1.31254,0.179693,-0.116214,45.959473,-24.719238,-128.173828,0,0
3738,2024 10 19,05:24:41.140,-0.40259,0.64371,0.321899,0.565631,-1.278359,0.1919,-0.13184,25.634766,-29.602051,-136.84082,0,0
3739,2024 10 19,05:24:41.148,-0.411174,0.645969,0.313425,0.561627,-1.446821,0.239753,-0.196783,9.521484,-23.742676,-151.977539,0,0
3740,2024 10 19,05:24:41.157,-0.419792,0.649114,0.30297,0.557347,-1.540086,0.215339,-0.107913,-8.605957,-28.564453,-172.180176,0,0
3741,2024 10 19,05:24:41.165,-0.428622,0.653113,0.290311,0.552672,-1.698294,0.269539,0.00293,-21.30127,-30.944824,-196.594238,0,0
3742,2024 10 19,05:24:41.173,-0.428622,0.653113,0.290311,0.552672,-1.698294,0.269539,0.00293,-21.30127,-30.944824,-196.594238,0,0
3743,2024 10 19,05:24:41.182,-0.437819,0.657842,0.274852,0.547736,-1.901425,0.240242,0.075198,-40.344238,-43.884277,-225.341797,0,0
3744,2024 10 19,05:24:41.190,-0.448442,0.662912,0.256273,0.542007,-2.266182,0.357433,0.229011,-43.518066,-53.405762,-267.700195,0,0
3745,2024 10 19,05:24:41.198,-0.46149,0.66828,0.234183,0.534404,-2.745201,0.577654,-0.113773,-41.137695,-64.63623,-326.171875,0,0
3746,2024 10 19,05:24:41.207,-0.478414,0.672936,0.207215,0.524728,-3.321879,0.760277,-0.00586,-32.287598,-92.590332,-403.503418,0,0
3747,2024 10 19,05:24:41.215,-0.499099,0.676821,0.174051,0.512366,-3.767205,0.625996,-0.076174,-31.12793,-118.347168,-491.821289,0,0
3748,2024 10 19,05:24:41.223,-0.499099,0.676821,0.174051,0.512366,-3.767205,0.625996,-0.076174,-31.12793,-118.347168,-491.821289,0,0
3749,2024 10 19,05:24:41.232,-0.522621,0.679651,0.134388,0.496871,-3.770623,0.348155,-0.226081,-41.07666,-143.005371,-571.166992,0,0
3750,2024 10 19,05:24:41.240,-0.545923,0.682057,0.090774,0.478045,-4.09534,-0.070803,-0.417493,-56.640625,-133.422852,-610.412598,0,0
3751,2024 10 19,05:24:41.248,-0.568551,0.681423,0.045469,0.458635,-3.130467,-0.077639,-0.262215,-40.771484,-165.710449,-613.40332,0,1
3752,2024 10 19,05:24:41.257,-0.590224,0.678674,0.002408,0.437071,-3.491318,0.466323,0.206549,-31.982422,-124.389648,-598.266602,0,0
3753,2024 10 19,05:24:41.265,-0.610027,0.675083,-0.038705,0.413075,-3.240822,0.910672,0.464858,-17.150879,-116.821289,-599.79248,0,0
3754,2024 10 19,05:24:41.273,-0.610027,0.675083,-0.038705,0.413075,-3.240822,0.910672,0.464858,-17.150879,-116.821289,-599.79248,0,0
3755,2024 10 19,05:24:41.282,-0.628666,0.669911,-0.077639,0.387259,-2.455641,1.519578,0.601581,-15.075684,-74.645996,-585.449219,0,0
3756,2024 10 19,05:24:41.290,-0.646523,0.664971,-0.110696,0.357167,-1.72808,1.726127,1.23246,12.207031,0.244141,-560.791016,0,0
3757,2024 10 19,05:24:41.298,-0.664368,0.659684,-0.133373,0.325028,-1.44731,1.495651,0.951201,66.955566,99.060059,-480.895996,0,0
3758,2024 10 19,05:24:41.307,-0.681855,0.648395,-0.14454,0.306213,1.641652,2.370189,2.094302,181.030273,-4.150391,-222.595215,0,0
3759,2024 10 19,05:24:41.315,-0.681946,0.645008,-0.140035,0.315127,-0.676778,2.282784,-0.558123,-14.831543,-18.188477,192.871094,0,0
3760,2024 10 19,05:24:41.323,-0.681946,0.645008,-0.140035,0.315127,-0.676778,2.282784,-0.558123,-14.831543,-18.188477,192.871094,0,0
3761,2024 10 19,05:24:41.332,-0.676701,0.644538,-0.121323,0.334554,-1.624073,2.590899,0.702658,77.514648,-38.208008,321.533203,0,0
3762,2024 10 19,05:24:41.340,-0.66558,0.645618,-0.103675,0.359767,-0.3755,1.717826,0.66213,20.141602,-44.433594,362.915039,0,0
3763,2024 10 19,05:24:41.348,-0.654403,0.648645,-0.082241,0.379807,-0.147954,1.306192,0.690939,-4.02832,21.057129,354.125977,0,0
3764,2024 10 19,05:24:41.357,-0.642825,0.653346,-0.059257,0.395478,-0.165532,1.112339,0.818384,-5.065918,85.754395,336.791992,0,0
3765,2024 10 19,05:24:41.365,-0.631016,0.659671,-0.032891,0.406905,-0.48439,1.096225,0.680197,-3.723145,134.460449,336.425781,0,0
3766,2024 10 19,05:24:41.373,-0.631016,0.659671,-0.032891,0.406905,-0.48439,1.096225,0.680197,-3.723145,134.460449,336.425781,0,0
3767,2024 10 19,05:24:41.382,-0.61807,0.666114,-0.004539,0.417446,-0.699728,1.022492,0.467299,-6.103516,153.259277,352.844238,0,0
3768,2024 10 19,05:24:41.390,-0.603571,0.67196,0.025436,0.428398,-1.041047,0.929716,0.34962,-7.751465,152.099609,375.12207,0,0
3769,2024 10 19,05:24:41.398,-0.587692,0.676294,0.055771,0.440607,-1.215369,0.783715,0.247078,-5.249023,136.047363,390.563965,0,0
3770,2024 10 19,05:24:41.407,-0.571016,0.678821,0.086051,0.453583,-1.149937,0.602557,0.160649,0.976563,122.802734,399.108887,0,0
3771,2024 10 19,05:24:41.415,-0.553941,0.679879,0.116779,0.466129,-1.065462,0.507828,0.127934,10.131836,127.01416,403.564453,0,0
3772,2024 10 19,05:24:41.423,-0.536356,0.679999,0.148281,0.477427,-1.122593,0.504898,0.055177,17.39502,138.183594,405.639648,0,0
3773,2024 10 19,05:24:41.432,-0.536356,0.679999,0.148281,0.477427,-1.122593,0.504898,0.055177,17.39502,138.183594,405.639648,0,0
3774,2024 10 19,05:24:41.440,-0.518247,0.67931,0.180071,0.487373,-1.29252,0.515641,-0.084964,20.751953,146.54541,402.160645,0,0
3775,2024 10 19,05:24:41.448,-0.499712,0.677831,0.211443,0.49611,-1.487838,0.534196,-0.204596,21.362305,149.353027,394.714355,0,0
3776,2024 10 19,05:24:41.457,-0.480734,0.67545,0.242184,0.503993,-1.624561,0.550798,-0.247566,21.118164,148.193359,390.991211,0,0
3777,2024 10 19,05:24:41.465,-0.460943,0.672051,0.272722,0.511372,-1.734428,0.56447,-0.232917,21.057129,148.071289,396.728516,0,0
3778,2024 10 19,05:24:41.473,-0.439964,0.667451,0.303527,0.51847,-1.885311,0.539567,-0.216315,20.568848,148.4375,409.606934,0,0
3779,2024 10 19,05:24:41.482,-0.439964,0.667451,0.303527,0.51847,-1.885311,0.539567,-0.216315,20.568848,148.4375,409.606934,0,0
3780,2024 10 19,05:24:41.490,-0.41783,0.66148,0.334474,0.525347,-2.107975,0.50148,-0.24366,20.507813,146.057129,420.837402,0,0
3781,2024 10 19,05:24:41.498,-0.395126,0.653926,0.364885,0.532085,-2.27546,0.41847,-0.242683,21.42334,135.803223,424.377441,0,0
3782,2024 10 19,05:24:41.507,-0.372311,0.644859,0.394323,0.538564,-2.419996,0.344737,-0.192877,22.949219,125.305176,423.400879,0,0
3783,2024 10 19,05:24:41.515,-0.349272,0.634412,0.422984,0.544624,-2.564531,0.298349,-0.136723,23.803711,118.652344,426.025391,0,0
3784,2024 10 19,05:24:41.523,-0.325794,0.622353,0.451061,0.550527,-2.720298,0.213385,0.014161,24.108887,108.398438,434.204102,0,0
3785,2024 10 19,05:24:41.532,-0.325794,0.622353,0.451061,0.550527,-2.720298,0.213385,0.014161,24.108887,108.398438,434.204102,0,0
3786,2024 10 19,05:24:41.540,-0.301721,0.60884,0.478436,0.556217,-2.809656,-0.048341,0.138188,21.728516,103.027344,440.124512,0,0
3787,2024 10 19,05:24:41.548,-0.277527,0.594552,0.504781,0.560966,-2.843349,-0.528825,0.249031,22.766113,101.318359,434.143066,0,0
3788,2024 10 19,05:24:41.557,-0.253792,0.580484,0.52957,0.564078,-2.907804,-1.076693,0.374035,22.766113,109.924316,414.550781,0,0
3789,2024 10 19,05:24:41.565,-0.230648,0.567874,0.552167,0.565183,-3.067477,-1.618213,0.342784,18.188477,120.727539,382.202148,0,0
3790,2024 10 19,05:24:41.573,-0.209114,0.55687,0.571614,0.565177,-2.946867,-2.079653,0.38966,9.460449,118.713379,338.806152,0,0
3791,2024 10 19,05:24:41.582,-0.209114,0.55687,0.571614,0.565177,-2.946867,-2.079653,0.38966,9.460449,118.713379,338.806152,0,0
3792,2024 10 19,05:24:41.590,-0.189136,0.548554,0.587745,0.563802,-2.42439,-2.621174,0.332041,-0.427246,132.568359,286.987305,0,0
3793,2024 10 19,05:24:41.598,-0.169338,0.545003,0.600984,0.559566,-1.750542,-2.98349,-0.173345,-9.94873,182.556152,229.187012,0,0
3794,2024 10 19,05:24:41.607,-0.149624,0.547314,0.611167,0.551847,-1.079623,-3.390728,-0.980499,-17.150879,237.304688,158.325195,0,0
3795,2024 10 19,05:24:41.615,-0.127967,0.556183,0.618828,0.539757,-2.878506,-4.441053,-1.636769,-14.038086,325.683594,111.816406,0,0
3796,2024 10 19,05:24:41.623,-0.111242,0.565645,0.624503,0.52694,-4.350718,-5.009919,-2.086489,4.516602,243.286133,71.533203,0,0
3797,2024 10 19,05:24:41.632,-0.111242,0.565645,0.624503,0.52694,-4.350718,-5.009919,-2.086489,4.516602,243.286133,71.533203,0,0
3798,2024 10 19,05:24:41.640,-0.110718,0.567543,0.626501,0.522622,-3.352641,-4.890774,-1.632374,40.95459,3.417969,13.793945,0,0
3799,2024 10 19,05:24:41.648,-0.124502,0.564362,0.625929,0.523649,-1.368206,-3.96643,-0.519547,88.195801,-132.141113,-50.598145,0,0
3800,2024 10 19,05:24:41.657,-0.139363,0.564866,0.625751,0.519558,-4.594378,-0.455092,-1.118198,124.938965,-54.138184,-90.087891,0,0
3801,2024 10 19,05:24:41.665,-0.171828,0.586907,0.623623,0.486939,-2.608966,0.310556,-9.407514,218.383789,-145.446777,-432.434082,0,0
3802,2024 10 19,05:24:41.673,-0.241603,0.567057,0.590779,0.520627,3.319438,2.042543,8.76687,182.250977,-844.360352,-423.278809,0,0
3803,2024 10 19,05:24:41.682,-0.241603,0.567057,0.590779,0.520627,3.319437,2.042543,8.76687,182.250977,-844.360352,-423.278809,0,0
3804,2024 10 19,05:24:41.690,-0.248923,0.596216,0.572876,0.504358,-2.190008,-0.712424,-4.528459,-105.834961,400.878906,-414.18457,0,0
3805,2024 10 19,05:24:41.698,-0.267754,0.61983,0.548546,0.49317,-3.690054,0.198737,0.039063,-114.440918,-145.080566,-456.90918,1,0
3806,2024 10 19,05:24:41.707,-0.282556,0.633213,0.511807,0.507205,-1.578661,-1.776421,0.129398,-193.237305,-154.846191,-352.905273,0,0
3807,2024 10 19,05:24:41.715,-0.292982,0.645182,0.492701,0.505121,-3.003998,-1.037629,-1.460494,-38.696289,-62.927246,-233.032227,0,0
3808,2024 10 19,05:24:41.723,-0.310904,0.642592,0.475842,0.513798,-1.142125,0.133305,1.545457,0.549316,-239.868164,-164.611816,0,0
3809,2024 10 19,05:24:41.732,-0.310904,0.642592,0.475842,0.513798,-1.142125,0.133305,1.545457,0.549316,-239.868164,-164.611816,0,0
3810,2024 10 19,05:24:41.740,-0.320091,0.642196,0.463699,0.51972,-1.442915,-0.053713,0.041993,-54.260254,-130.126953,-105.834961,0,0
3811,2024 10 19,05:24:41.748,-0.325638,0.639888,0.45091,0.530268,-0.79397,-0.566424,-0.046388,-81.359863,-170.410156,-66.772461,0,0
3812,2024 10 19,05:24:41.757,-0.332561,0.636317,0.442592,0.53723,-1.021516,0.19776,0.058596,-7.751465,-130.187988,-52.978516,0,0
3813,2024 10 19,05:24:41.765,-0.336666,0.632929,0.434707,0.545056,-0.966826,0.063967,0.144536,-60.974121,-126.525879,-30.334473,0,0
3814,2024 10 19,05:24:41.773,-0.338224,0.630563,0.427159,0.552747,-0.698752,-0.082034,-0.396496,-60.913086,-98.876953,-22.277832,0,0
3815,2024 10 19,05:24:41.782,-0.340385,0.628552,0.421787,0.557814,-0.805689,0.063967,-0.123539,-27.404785,-70.861816,-21.911621,0,0
3816,2024 10 19,05:24:41.790,-0.340385,0.628552,0.421787,0.557814,-0.805689,0.063967,-0.123539,-27.404785,-70.861816,-21.911621,0,0
3817,2024 10 19,05:24:41.798,-0.341637,0.627268,0.417693,0.561562,-1.017121,0.126469,0.072268,-34.423828,-54.443359,-15.50293,0,0
3818,2024 10 19,05:24:41.807,-0.342514,0.626216,0.413478,0.565308,-0.852077,0.022462,-0.159185,-32.165527,-52.124023,-17.333984,0,0
3819,2024 10 19,05:24:41.815,-0.343842,0.625399,0.410207,0.567785,-0.89407,0.033692,-0.069826,-17.63916,-36.987305,-18.432617,0,0
3820,2024 10 19,05:24:41.823,-0.345382,0.624816,0.407939,0.569124,-0.896512,0.078127,-0.082522,-2.929688,-25.878906,-18.859863,0,0
3821,2024 10 19,05:24:41.832,-0.347158,0.624408,0.406279,0.569679,-0.9429,0.094729,-0.038087,1.159668,-19.226074,-19.897461,0,0
3822,2024 10 19,05:24:41.840,-0.347158,0.624408,0.406279,0.569679,-0.9429,0.094729,-0.038087,1.159668,-19.226074,-19.897461,0,0
3823,2024 10 19,05:24:41.848,-0.348875,0.624238,0.404876,0.569814,-0.923856,0.103519,-0.077639,2.807617,-13.427734,-20.141602,0,0
3824,2024 10 19,05:24:41.857,-0.35038,0.624357,0.403693,0.5696,-0.93704,0.12891,-0.039552,3.112793,-7.141113,-20.080566,0,0
3825,2024 10 19,05:24:41.865,-0.351581,0.624711,0.402549,0.569282,-0.897,0.118656,-0.056154,1.037598,-3.90625,-19.470215,0,0
3826,2024 10 19,05:24:41.873,-0.352401,0.625314,0.401367,0.568946,-0.926298,0.115238,-0.04883,-3.601074,-0.610352,-18.127441,0,0
3827,2024 10 19,05:24:41.882,-0.352805,0.626089,0.400076,0.568754,-0.898953,0.112308,-0.077151,-9.58252,0.671387,-16.418457,0,0
3828,2024 10 19,05:24:41.890,-0.352805,0.626089,0.400076,0.568754,-0.898953,0.112308,-0.077151,-9.58252,0.671387,-16.418457,0,0
3829,2024 10 19,05:24:41.898,-0.352862,0.627097,0.398674,0.568592,-0.963408,0.153325,-0.034669,-11.962891,3.967285,-16.845703,0,0
3830,2024 10 19,05:24:41.907,-0.352689,0.62832,0.396984,0.568532,-0.96585,0.098636,-0.000488,-17.822266,2.624512,-17.883301,0,0
3831,2024 10 19,05:24:41.915,-0.35245,0.629597,0.395131,0.568558,-0.996124,0.06885,0.041017,-20.385742,1.831055,-17.883301,0,0
3832,2024 10 19,05:24:41.923,-0.352332,0.630619,0.393104,0.568903,-0.998077,0.069338,0.050295,-19.470215,-5.065918,-17.089844,0,0
3833,2024 10 19,05:24:41.932,-0.352459,0.631269,0.390912,0.569614,-0.960967,0.086428,-0.058107,-19.104004,-10.864258,-17.211914,0,0
3834,2024 10 19,05:24:41.940,-0.352459,0.631269,0.390912,0.569614,-0.960967,0.086428,-0.058107,-19.104004,-10.864258,-17.211914,0,0
3835,2024 10 19,05:24:41.948,-0.352859,0.631804,0.388596,0.570357,-0.923856,0.062014,-0.043458,-16.845703,-12.329102,-19.592285,0,0
3836,2024 10 19,05:24:41.957,-0.353487,0.632462,0.386496,0.570666,-0.936552,0.071291,-0.084475,-12.329102,-7.080078,-22.033691,0,0
3837,2024 10 19,05:24:41.965,-0.354307,0.633214,0.384457,0.570701,-0.945341,0.056642,-0.044435,-10.009766,-5.859375,-24.230957,0,0
3838,2024 10 19,05:24:41.973,-0.355273,0.634112,0.382556,0.570381,-0.945341,0.039064,-0.06299,-7.93457,-2.624512,-25.756836,0,0
3839,2024 10 19,05:24:41.982,-0.356396,0.634917,0.380677,0.570042,-0.953154,0.04297,-0.028321,-5.249023,-4.699707,-26.184082,0,0
3840,2024 10 19,05:24:41.990,-0.356396,0.634917,0.380677,0.570042,-0.953154,0.04297,-0.028321,-5.249023,-4.699707,-26.184082,0,0
3841,2024 10 19,05:24:41.998,-0.357768,0.635528,0.378931,0.569665,-0.974151,0.023438,-0.012696,-0.610352,-5.859375,-26.306152,0,0
3842,2024 10 19,05:24:42.007,-0.359509,0.635749,0.377295,0.569407,-0.969756,-0.02002,0.02002,2.990723,-12.512207,-24.902344,0,0
3843,2024 10 19,05:24:42.015,-0.361673,0.63536,0.375808,0.569455,-0.953642,-0.00586,0.012696,8.483887,-19.348145,-22.583008,0,0
3844,2024 10 19,05:24:42.023,-0.364154,0.634405,0.37443,0.569845,-0.956572,0.018067,0.00293,12.268066,-27.038574,-19.958496,0,0
3845,2024 10 19,05:24:42.032,-0.366761,0.633068,0.37309,0.570539,-0.953642,0.02002,-0.044435,12.939453,-30.822754,-17.883301,0,0
3846,2024 10 19,05:24:42.040,-0.366761,0.633068,0.37309,0.570539,-0.953642,0.02002,-0.044435,12.939453,-30.822754,-17.883301,0,0
3847,2024 10 19,05:24:42.048,-0.369482,0.631473,0.371716,0.571447,-0.95706,0.034669,-0.052248,13.977051,-34.362793,-17.51709,0,0
3848,2024 10 19,05:24:42.057,-0.372287,0.629906,0.370329,0.572257,-0.985382,0.050783,-0.087405,14.404297,-32.714844,-19.40918,0,0
3849,2024 10 19,05:24:42.065,-0.375209,0.628547,0.368828,0.572811,-0.975127,0.076174,-0.115726,14.892578,-29.785156,-23.742676,0,0
3850,2024 10 19,05:24:42.073,-0.378194,0.627715,0.367224,0.572792,-1.017609,0.089358,-0.132817,14.160156,-21.789551,-30.151367,0,0
3851,2024 10 19,05:24:42.082,-0.381442,0.627486,0.365443,0.572027,-1.09476,0.078127,-0.116214,17.211914,-14.343262,-40.161133,0,0
3852,2024 10 19,05:24:42.090,-0.381442,0.627486,0.365443,0.572027,-1.09476,0.078127,-0.116214,17.211914,-14.343262,-40.161133,0,0
3853,2024 10 19,05:24:42.098,-0.385371,0.627959,0.363447,0.570144,-1.196326,0.12598,-0.093265,22.583008,-5.92041,-55.114746,0,0
3854,2024 10 19,05:24:42.107,-0.39019,0.628823,0.360741,0.567626,-1.251991,0.097659,-0.096194,24.902344,-7.629395,-71.044922,0,0
3855,2024 10 19,05:24:42.115,-0.396133,0.630159,0.357285,0.564204,-1.305704,0.115726,-0.069826,29.296875,-5.432129,-90.393066,0,0
3856,2024 10 19,05:24:42.123,-0.402814,0.631779,0.352618,0.560586,-1.321329,0.166997,-0.080081,22.949219,-12.939453,-104.309082,0,0
3857,2024 10 19,05:24:42.132,-0.409586,0.634229,0.346789,0.556535,-1.404828,0.164068,-0.127445,15.319824,-6.591797,-120.849609,0,0
3858,2024 10 19,05:24:42.140,-0.409586,0.634229,0.346789,0.556535,-1.404828,0.164068,-0.127445,15.319824,-6.591797,-120.849609,0,0
3859,2024 10 19,05:24:42.148,-0.417063,0.637337,0.339564,0.551866,-1.446333,0.181158,-0.053713,10.742188,-11.169434,-141.479492,0,0
3860,2024 10 19,05:24:42.157,-0.425016,0.641029,0.330473,0.547019,-1.562548,0.209967,-0.036134,-0.732422,-14.953613,-161.804199,0,0
3861,2024 10 19,05:24:42.165,-0.433786,0.645443,0.319472,0.541452,-1.765679,0.238777,-0.006348,-6.408691,-20.263672,-190.063477,0,0
3862,2024 10 19,05:24:42.173,-0.443828,0.650159,0.305718,0.535581,-1.968322,0.314463,0.093753,-15.014648,-35.583496,-222.65625,0,0
3863,2024 10 19,05:24:42.182,-0.455368,0.655222,0.288727,0.529113,-2.216376,0.430677,0.124516,-23.254395,-52.67334,-263.305664,0,0
3864,2024 10 19,05:24:42.190,-0.468886,0.660786,0.267999,0.521234,-2.65389,0.595233,-0.133305,-26.733398,-61.889648,-318.664551,0,0
3865,2024 10 19,05:24:42.198,-0.468886,0.660786,0.267999,0.521234,-2.65389,0.595233,-0.133305,-26.733398,-61.889648,-318.664551,0,0
3866,2024 10 19,05:24:42.207,-0.485556,0.666363,0.242544,0.511241,-3.105075,0.654805,0.054689,-25.45166,-83.496094,-390.74707,0,0
3867,2024 10 19,05:24:42.215,-0.505529,0.671888,0.211588,0.498234,-3.662221,0.660665,0.084964,-22.583008,-101.074219,-472.473145,0,0
3868,2024 10 19,05:24:42.223,-0.528178,0.676458,0.174139,0.482812,-4.001587,0.384777,-0.106937,-32.165527,-135.742188,-549.804688,0,0
3869,2024 10 19,05:24:42.232,-0.551474,0.679647,0.130804,0.465667,-3.956175,-0.103519,0.061037,-48.64502,-165.222168,-598.693848,0,0
3870,2024 10 19,05:24:42.240,-0.573775,0.681498,0.086011,0.446032,-3.859004,-0.558611,0.050295,-37.902832,-147.399902,-608.093262,0,1
3871,2024 10 19,05:24:42.248,-0.573775,0.681498,0.086011,0.446032,-3.859004,-0.558611,0.050295,-37.902832,-147.399902,-608.093262,0,0
3872,2024 10 19,05:24:42.257,-0.596452,0.679821,0.04372,0.424473,-3.792596,0.251473,0.604511,-0.366211,-140.930176,-594.299316,0,0
3873,2024 10 19,05:24:42.265,-0.61766,0.675576,0.003535,0.402593,-3.671499,0.994171,0.852565,21.54541,-146.179199,-579.406738,0,0
3874,2024 10 19,05:24:42.273,-0.637937,0.668502,-0.035529,0.38063,-2.879483,1.457076,1.251015,34.545898,-132.629395,-567.565918,0,0
3875,2024 10 19,05:24:42.282,-0.658014,0.660863,-0.070089,0.35407,-2.026429,1.369671,1.715384,62.805176,-62.805176,-565.063477,0,0
3876,2024 10 19,05:24:42.290,-0.679639,0.651234,-0.098172,0.323028,-1.668508,1.053255,1.887753,127.624512,18.676758,-556.884766,0,0
3877,2024 10 19,05:24:42.298,-0.679639,0.651234,-0.098172,0.323028,-1.668508,1.053255,1.887753,127.624512,18.676758,-556.884766,0,0
3878,2024 10 19,05:24:42.307,-0.702796,0.636209,-0.119936,0.294841,1.839412,0.188971,1.388226,199.768066,-15.075684,-423.76709,0,0
3879,2024 10 19,05:24:42.315,-0.718118,0.622569,-0.12063,0.286641,1.003937,3.026459,1.178747,192.565918,89.904785,-41.381836,0,0
3880,2024 10 19,05:24:42.323,-0.725485,0.618172,-0.09638,0.286785,-1.531297,2.239326,0.154302,174.560547,171.875,188.903809,0,0
3881,2024 10 19,05:24:42.332,-0.724134,0.61572,-0.074174,0.301691,-0.793481,1.627003,0.909696,80.749512,60.180664,289.733887,0,0
3882,2024 10 19,05:24:42.340,-0.719905,0.61643,-0.05011,0.315024,-0.725608,1.35258,0.328623,45.227051,104.370117,285.15625,0,0
3883,2024 10 19,05:24:42.348,-0.719905,0.61643,-0.05011,0.315024,-0.725608,1.35258,0.328623,45.227051,104.370117,285.15625,0,0
3884,2024 10 19,05:24:42.357,-0.714143,0.618751,-0.029478,0.326002,-0.341807,1.084018,0.845241,17.456055,106.262207,241.271973,0,0
3885,2024 10 19,05:24:42.365,-0.707975,0.623689,-0.008372,0.33123,-0.302744,1.05472,0.281747,-8.178711,157.775879,206.359863,0,0
3886,2024 10 19,05:24:42.373,-0.7004,0.630506,0.012521,0.334283,-0.313974,1.172887,0.313974,-36.071777,180.236816,199.829102,0,0
3887,2024 10 19,05:24:42.382,-0.690266,0.639538,0.034664,0.336634,-0.624043,1.200232,0.094241,-70.3125,196.838379,217.041016,0,0
3888,2024 10 19,05:24:42.390,-0.67705,0.649733,0.056844,0.340908,-0.851588,1.136753,0.084964,-102.783203,184.631348,244.262695,0,0
3889,2024 10 19,05:24:42.398,-0.67705,0.649733,0.056844,0.340908,-0.851588,1.136753,0.084964,-102.783203,184.631348,244.262695,0,0
3890,2024 10 19,05:24:42.407,-0.66078,0.660396,0.07871,0.347925,-0.947783,0.95999,0.058596,-130.249023,162.963867,274.169922,0,0
3891,2024 10 19,05:24:42.415,-0.641949,0.670791,0.100436,0.357567,-0.98587,0.753929,0.114261,-147.155762,145.812988,303.588867,0,0
3892,2024 10 19,05:24:42.423,-0.621168,0.680281,0.122568,0.36925,-1.026887,0.566424,0.164556,-153.076172,131.103516,330.078125,0,0
3893,2024 10 19,05:24:42.432,-0.59925,0.688245,0.145149,0.382297,-0.997101,0.350108,0.217292,-147.460938,121.09375,348.754883,0,0
3894,2024 10 19,05:24:42.440,-0.577059,0.69445,0.168827,0.395271,-1.011261,0.165044,0.258797,-129.455566,125.183105,360.656738,0,0
3895,2024 10 19,05:24:42.448,-0.577059,0.69445,0.168827,0.395271,-1.011261,0.165044,0.258797,-129.455566,125.183105,360.656738,0,0
3896,2024 10 19,05:24:42.457,-0.555268,0.698604,0.194216,0.407319,-1.077181,0.055666,0.287118,-101.135254,134.58252,371.337891,0,0
3897,2024 10 19,05:24:42.465,-0.534851,0.70001,0.221421,0.418202,-1.147496,-0.98294,0.279794,-65.979004,142.333984,384.338379,0,0
3898,2024 10 19,05:24:42.473,-0.514503,0.699327,0.250957,0.428076,-1.298379,0.109867,0.281259,-32.653809,151.428223,399.108887,0,0
3899,2024 10 19,05:24:42.482,-0.494559,0.696105,0.282335,0.437192,-1.5562,0.144047,0.165044,-5.615234,152.038574,410.949707,0,0
3900,2024 10 19,05:24:42.490,-0.475258,0.690155,0.314192,0.446205,-1.748589,0.209479,0.133793,15.014648,138.061523,418.945313,0,0
3901,2024 10 19,05:24:42.498,-0.475258,0.690155,0.314192,0.446205,-1.748589,0.209479,0.133793,15.014648,138.061523,418.945313,0,0
3902,2024 10 19,05:24:42.507,-0.456192,0.68175,0.346168,0.455272,-1.798883,0.259774,0.066408,28.869629,126.159668,428.100586,0,0
3903,2024 10 19,05:24:42.515,-0.436718,0.671171,0.378367,0.464375,-1.805719,0.335459,0.144536,36.804199,119.934082,442.810059,0,0
3904,2024 10 19,05:24:42.523,-0.415797,0.65897,0.410992,0.47324,-1.978576,0.37843,0.147954,34.606934,122.436523,460.021973,0,0
3905,2024 10 19,05:24:42.532,-0.393289,0.64536,0.443205,0.482082,-2.226142,0.353038,0.228523,26.062012,119.812012,470.214844,0,0
3906,2024 10 19,05:24:42.540,-0.369446,0.630779,0.474136,0.490737,-2.456618,0.261727,0.353038,13.793945,117.06543,470.88623,0,0
3907,2024 10 19,05:24:42.548,-0.369446,0.630779,0.474136,0.490737,-2.456618,0.261727,0.353038,13.793945,117.06543,470.88623,0,0
3908,2024 10 19,05:24:42.557,-0.344323,0.615772,0.503456,0.498797,-2.626545,0.069826,0.442396,-0.061035,120.97168,466.97998,0,0
3909,2024 10 19,05:24:42.565,-0.317838,0.600905,0.531047,0.505847,-2.778405,-0.360851,0.461928,-14.892578,132.8125,459.16748,0,0
3910,2024 10 19,05:24:42.573,-0.290119,0.586748,0.556594,0.511626,-2.935637,-0.951201,0.445814,-31.494141,145.019531,444.763184,0,0
3911,2024 10 19,05:24:42.582,-0.261706,0.574188,0.579402,0.51586,-3.104587,-1.490768,0.272469,-50.292969,162.536621,415.161133,0,0
3912,2024 10 19,05:24:42.590,-0.233434,0.564197,0.598262,0.518915,-3.204688,-2.023988,0.078127,-74.462891,171.325684,367.126465,0,0
3913,2024 10 19,05:24:42.598,-0.2063,0.557307,0.61231,0.521465,-2.938566,-2.618244,-0.210944,-102.661133,173.095703,307.312012,0,0
3914,2024 10 19,05:24:42.607,-0.2063,0.557307,0.61231,0.521465,-2.938566,-2.618244,-0.210944,-102.661133,173.095703,307.312012,0,0
3915,2024 10 19,05:24:42.615,-0.180216,0.554395,0.621677,0.52315,-2.613849,-3.384381,-0.697287,-124.511719,188.781738,242.553711,0,0
3916,2024 10 19,05:24:42.623,-0.157115,0.555473,0.626369,0.523857,-2.265206,-4.519669,-1.190466,-134.94873,183.71582,164.001465,0,0
3917,2024 10 19,05:24:42.632,-0.137496,0.560825,0.627564,0.522238,-3.34727,-5.524095,-1.839412,-112.121582,197.814941,93.505859,0,0
3918,2024 10 19,05:24:42.640,-0.127586,0.56586,0.625351,0.521977,-3.747673,-5.889828,-2.035218,-82.641602,75.195313,24.108887,0,0
3919,2024 10 19,05:24:42.648,-0.132212,0.566242,0.620092,0.526664,-2.396558,-5.255531,-1.239296,-30.456543,-89.477539,-39.794922,0,0
3920,2024 10 19,05:24:42.657,-0.132212,0.566242,0.620092,0.526664,-2.396558,-5.255531,-1.239296,-30.456543,-89.477539,-39.794922,0,0
3921,2024 10 19,05:24:42.665,-0.144379,0.566185,0.614681,0.529865,-1.759819,-3.982543,-0.836451,30.334473,-101.5625,-87.646484,0,0
3922,2024 10 19,05:24:42.673,-0.168099,0.582965,0.618932,0.498815,-9.936827,2.354564,-5.516282,653.930664,387.329102,-419.128418,0,0
3923,2024 10 19,05:24:42.682,-0.225213,0.568001,0.587635,0.530411,1.062532,0.054689,4.857081,-14.160156,-956.481934,-341.003418,0,0
3924,2024 10 19,05:24:42.690,-0.25907,0.571946,0.563008,0.537385,1.609424,0.854518,-0.307627,-100.402832,-2.441406,-382.263184,0,0
3925,2024 10 19,05:24:42.698,-0.268634,0.602571,0.543788,0.518689,-3.997681,1.300821,-1.016144,1.708984,90.942383,-454.284668,1,0
3926,2024 10 19,05:24:42.707,-0.268634,0.602571,0.543788,0.518689,-3.997681,1.300821,-1.016144,1.708984,90.942383,-454.284668,0,0
3927,2024 10 19,05:24:42.715,-0.28352,0.615662,0.506388,0.533055,-1.278359,-1.755425,-0.450209,-267.089844,-248.474121,-351.928711,0,0
3928,2024 10 19,05:24:42.723,-0.294964,0.627121,0.483875,0.534397,-2.745689,-1.104526,-1.24662,-40.649414,-31.37207,-254.882813,0,0
3929,2024 10 19,05:24:42.732,-0.312642,0.626686,0.468145,0.538851,-1.463912,0.101077,0.690451,4.089355,-229.553223,-185.119629,0,0
3930,2024 10 19,05:24:42.740,-0.325094,0.624944,0.454781,0.544916,-1.506394,0.152837,0.935087,-37.231445,-135.742188,-125.488281,0,0
3931,2024 10 19,05:24:42.748,-0.328887,0.624057,0.441835,0.554227,-1.116733,-0.491226,-0.1377,-108.581543,-159.667969,-62.744141,0,0
3932,2024 10 19,05:24:42.757,-0.328887,0.624057,0.441835,0.554227,-1.116733,-0.491226,-0.1377,-108.581543,-159.667969,-62.744141,0,0
3933,2024 10 19,05:24:42.765,-0.333542,0.6206,0.43127,0.56357,-0.715354,-0.093265,-0.327158,-50.292969,-135.009766,-48.156738,0,0
3934,2024 10 19,05:24:42.773,-0.337851,0.617969,0.423932,0.569432,-0.863308,0.134281,-0.098636,-39.123535,-99.487305,-42.96875,0,0
3935,2024 10 19,05:24:42.782,-0.339965,0.617041,0.417675,0.573787,-0.909696,0.000488,-0.15479,-40.710449,-62.194824,-36.376953,0,0
3936,2024 10 19,05:24:42.790,-0.342849,0.616102,0.412627,0.576725,-0.810572,0.072756,-0.094729,-17.028809,-57.250977,-38.757324,0,0
3937,2024 10 19,05:24:42.798,-0.345218,0.615799,0.408746,0.578397,-1.005402,0.112308,-0.028809,-17.51709,-34.667969,-33.935547,0,0
3938,2024 10 19,05:24:42.807,-0.345218,0.615799,0.408746,0.578397,-1.005402,0.112308,-0.028809,-17.51709,-34.667969,-33.935547,0,0
3939,2024 10 19,05:24:42.815,-0.347302,0.615724,0.404981,0.579876,-0.917997,0.125492,-0.059084,-14.526367,-35.15625,-35.644531,0,0
3940,2024 10 19,05:24:42.823,-0.349474,0.615969,0.401449,0.580766,-0.873074,0.126957,-0.170904,-11.901855,-24.658203,-37.902832,0,0
3941,2024 10 19,05:24:42.832,-0.351344,0.616624,0.398253,0.581143,-0.890652,0.059572,-0.059084,-10.559082,-16.113281,-36.560059,0,0
3942,2024 10 19,05:24:42.840,-0.352942,0.617553,0.395718,0.580919,-0.888211,0.048341,-0.141118,-8.300781,-6.896973,-32.470703,0,0
3943,2024 10 19,05:24:42.848,-0.354372,0.618568,0.393812,0.580263,-0.967315,0.071291,0.028321,-2.929688,-0.671387,-29.724121,0,0
3944,2024 10 19,05:24:42.857,-0.354372,0.618568,0.393812,0.580263,-0.967315,0.071291,0.028321,-2.929688,-0.671387,-29.724121,0,0
3945,2024 10 19,05:24:42.865,-0.355684,0.619463,0.392106,0.579661,-0.958037,0.088382,-0.053224,-2.929688,-2.868652,-27.038574,0,0
3946,2024 10 19,05:24:42.873,-0.356743,0.620385,0.39043,0.579156,-0.900418,0.125492,-0.087405,-6.225586,0.244141,-25.268555,0,0
3947,2024 10 19,05:24:42.882,-0.357124,0.621875,0.388751,0.578452,-0.902371,0.118168,-0.124027,-13.549805,9.70459,-24.414063,0,0
3948,2024 10 19,05:24:42.890,-0.356895,0.623939,0.387096,0.577479,-0.864284,0.125492,-0.121097,-17.51709,17.944336,-23.864746,0,0
3949,2024 10 19,05:24:42.898,-0.356076,0.626566,0.385533,0.576184,-0.885769,0.150395,-0.196295,-21.789551,27.893066,-23.620605,0,0
3950,2024 10 19,05:24:42.907,-0.356076,0.626566,0.385533,0.576184,-0.885769,0.150395,-0.196295,-21.789551,27.893066,-23.620605,0,0
3951,2024 10 19,05:24:42.915,-0.354681,0.629887,0.38389,0.57452,-0.934111,0.111332,-0.117191,-27.954102,37.597656,-25.390625,0,0
3952,2024 10 19,05:24:42.923,-0.353152,0.63367,0.382307,0.572352,-1.02884,0.052248,0.039552,-27.587891,41.687012,-27.46582,0,0
3953,2024 10 19,05:24:42.932,-0.352123,0.637382,0.380702,0.569929,-1.078646,0.041993,0.072756,-21.057129,38.757324,-32.531738,0,0
3954,2024 10 19,05:24:42.940,-0.352008,0.640481,0.378846,0.567759,-1.086459,0.036622,0.122562,-15.50293,26.000977,-36.193848,0,0
3955,2024 10 19,05:24:42.948,-0.352655,0.642908,0.376659,0.566067,-1.062532,0.020997,0.135258,-10.986328,13.000488,-38.208008,0,0
3956,2024 10 19,05:24:42.957,-0.352655,0.642908,0.376659,0.566067,-1.062532,0.020997,0.135258,-10.986328,13.000488,-38.208008,0,0
3957,2024 10 19,05:24:42.965,-0.354023,0.644516,0.374182,0.565027,-1.05472,0.052248,0.127445,-6.896973,-0.793457,-38.696289,0,0
3958,2024 10 19,05:24:42.973,-0.35582,0.645401,0.37128,0.564801,-1.000519,0.00293,0.055666,-8.056641,-15.930176,-37.902832,0,0
3959,2024 10 19,05:24:42.982,-0.358163,0.64559,0.36822,0.565109,-0.944853,0.007813,0.013672,-3.78418,-24.597168,-37.475586,0,0
3960,2024 10 19,05:24:42.990,-0.360694,0.645398,0.365155,0.565705,-0.928251,-0.007324,0.013672,-2.441406,-29.968262,-35.461426,0,0
3961,2024 10 19,05:24:42.998,-0.363303,0.644842,0.362166,0.566591,-0.901883,-0.018067,-0.055177,-1.464844,-33.691406,-32.592773,0,0
3962,2024 10 19,05:24:43.007,-0.366,0.644069,0.359363,0.567519,-0.83108,-0.012207,-0.10889,1.708984,-33.508301,-30.822754,0,0
3963,2024 10 19,05:24:43.015,-0.366,0.644069,0.359363,0.567519,-0.83108,-0.012207,-0.10889,1.708984,-33.508301,-30.822754,0,0
3964,2024 10 19,05:24:43.023,-0.368511,0.643465,0.356909,0.568127,-0.832545,-0.019044,-0.056154,2.685547,-25.817871,-28.991699,0,0
3965,2024 10 19,05:24:43.032,-0.370707,0.642955,0.3548,0.568596,-0.827662,-0.041993,-0.077151,3.78418,-23.620605,-25.146484,0,0
3966,2024 10 19,05:24:43.040,-0.372849,0.642578,0.353188,0.568626,-0.883816,-0.023927,-0.104984,6.347656,-15.441895,-24.230957,0,0
3967,2024 10 19,05:24:43.048,-0.375035,0.642281,0.351786,0.568393,-0.874538,-0.012207,-0.071291,10.192871,-13.73291,-24.597168,0,0
3968,2024 10 19,05:24:43.057,-0.377017,0.642166,0.350624,0.56793,-0.910184,-0.014649,-0.095218,8.850098,-8.056641,-23.071289,0,0
3969,2024 10 19,05:24:43.065,-0.377017,0.642166,0.350624,0.56793,-0.910184,-0.014649,-0.095218,8.850098,-8.056641,-23.071289,0,0
3970,2024 10 19,05:24:43.073,-0.378955,0.642328,0.349656,0.567052,-1.006867,0.007324,-0.04883,11.413574,-2.380371,-25.390625,0,0
3971,2024 10 19,05:24:43.082,-0.381203,0.642568,0.34859,0.565929,-1.067904,-0.015137,-0.038087,13.85498,-4.02832,-30.334473,0,0
3972,2024 10 19,05:24:43.090,-0.38425,0.642669,0.34731,0.564539,-1.11478,-0.002441,0.012207,20.751953,-6.835938,-38.208008,0,0
3973,2024 10 19,05:24:43.098,-0.388161,0.642619,0.345665,0.562928,-1.1807,0.00586,0.004395,26.306152,-12.634277,-47.424316,0,0
3974,2024 10 19,05:24:43.107,-0.393236,0.642355,0.343449,0.561061,-1.222694,0.019044,-0.003906,33.447266,-18.859863,-60.546875,0,0
3975,2024 10 19,05:24:43.115,-0.393236,0.642355,0.343449,0.561061,-1.222694,0.019044,-0.003906,33.447266,-18.859863,-60.546875,0,0
3976,2024 10 19,05:24:43.123,-0.399532,0.642057,0.340541,0.55872,-1.314982,0.066897,-0.007324,40.100098,-22.705078,-76.477051,0,0
3977,2024 10 19,05:24:43.132,-0.40686,0.641938,0.336561,0.555974,-1.340373,0.143071,-0.052248,37.780762,-28.625488,-94.055176,0,0
3978,2024 10 19,05:24:43.140,-0.414546,0.642699,0.33114,0.552662,-1.439497,0.172369,-0.082034,29.846191,-22.949219,-114.501953,0,0
3979,2024 10 19,05:24:43.148,-0.422654,0.644441,0.324003,0.548709,-1.595263,0.207526,-0.088382,17.883301,-24.963379,-137.634277,0,0
3980,2024 10 19,05:24:43.157,-0.431539,0.647071,0.314672,0.544109,-1.683645,0.281747,-0.081545,8.605957,-28.076172,-167.358398,0,0
3981,2024 10 19,05:24:43.165,-0.431539,0.647071,0.314672,0.544109,-1.683645,0.281747,-0.081545,8.605957,-28.076172,-167.358398,0,0
3982,2024 10 19,05:24:43.173,-0.441086,0.650625,0.302697,0.538984,-1.775933,0.300302,-0.022462,-5.79834,-33.630371,-198.181152,0,0
3983,2024 10 19,05:24:43.182,-0.451743,0.655064,0.287892,0.532858,-1.864803,0.308603,-0.094729,-13.61084,-39.672852,-237.121582,0,0
3984,2024 10 19,05:24:43.190,-0.464252,0.659955,0.270208,0.525278,-1.965392,0.399915,-0.065432,-15.808105,-46.691895,-280.517578,0,0
3985,2024 10 19,05:24:43.198,-0.478874,0.665261,0.24945,0.515638,-2.236885,0.530778,-0.04883,-10.253906,-52.429199,-332.092285,0,0
3986,2024 10 19,05:24:43.207,-0.495529,0.670947,0.224775,0.503743,-2.938078,0.653829,-0.195318,-19.226074,-59.387207,-391.601563,0,0
3987,2024 10 19,05:24:43.215,-0.495529,0.670947,0.224775,0.503743,-2.938078,0.653829,-0.195318,-19.226074,-59.387207,-391.601563,0,0
3988,2024 10 19,05:24:43.223,-0.514335,0.676849,0.19475,0.489293,-3.727653,0.686056,-0.038087,-29.11377,-81.665039,-467.834473,0,0
3989,2024 10 19,05:24:43.232,-0.534803,0.681768,0.157377,0.47372,-3.796503,0.296396,0.062502,-49.865723,-129.272461,-537.597656,0,0
3990,2024 10 19,05:24:43.240,-0.55542,0.685238,0.114455,0.457009,-4.104129,0.036134,0.12598,-61.767578,-155.334473,-577.392578,0,0
3991,2024 10 19,05:24:43.248,-0.575337,0.686516,0.068816,0.439258,-3.829707,-0.857448,0.038087,-68.725586,-178.833008,-594.482422,0,1
3992,2024 10 19,05:24:43.257,-0.596172,0.683941,0.024647,0.419758,-3.780877,-0.137699,0.568377,-18.127441,-159.301758,-585.571289,0,0
3993,2024 10 19,05:24:43.265,-0.596172,0.683941,0.024647,0.419758,-3.780877,-0.1377,0.568377,-18.127441,-159.301758,-585.571289,0,0
3994,2024 10 19,05:24:43.273,-0.615068,0.679553,-0.016986,0.399513,-4.125126,0.335948,0.55324,-9.643555,-161.499023,-569.030762,0,0
3995,2024 10 19,05:24:43.282,-0.633603,0.671143,-0.057539,0.38053,-3.416608,1.615284,1.006867,24.169922,-174.316406,-551.391602,0,0
3996,2024 10 19,05:24:43.290,-0.650948,0.661705,-0.095103,0.359679,-2.595294,2.14948,1.322794,31.921387,-137.817383,-538.574219,0,0
3997,2024 10 19,05:24:43.298,-0.667415,0.651708,-0.128459,0.336649,-2.161199,1.806207,1.550829,47.058105,-86.486816,-517.76123,0,0
3998,2024 10 19,05:24:43.307,-0.685058,0.638827,-0.158662,0.312123,0.084475,0.479018,0.210456,85.144043,-81.604004,-482.48291,0,0
3999,2024 10 19,05:24:43.315,-0.685058,0.638827,-0.158662,0.312123,0.084475,0.479019,0.210456,85.144043,-81.604004,-482.48291,0,0
4000,2024 10 19,05:24:43.323,-0.695961,0.625838,-0.174271,0.305931,2.775475,2.674886,1.976623,125.610352,-92.102051,-123.535156,0,0
4001,2024 10 19,05:24:43.332,-0.695637,0.626346,-0.16371,0.311415,-0.683614,1.982971,-0.145512,14.831543,92.041016,196.105957,0,0
4002,2024 10 19,05:24:43.340,-0.688804,0.630003,-0.145109,0.328007,-1.499557,1.276894,0.65334,11.291504,-12.939453,311.462402,0,0
4003,2024 10 19,05:24:43.348,-0.677999,0.63399,-0.129252,0.348808,-0.781274,1.001495,0.878933,-5.371094,-11.108398,311.401367,0,0
4004,2024 10 19,05:24:43.356,-0.668819,0.638172,-0.112602,0.364334,-0.411634,0.634785,0.759789,-9.338379,15.014648,268.493652,0,0
4005,2024 10 19,05:24:43.365,-0.668819,0.638172,-0.112602,0.364334,-0.411634,0.634785,0.759789,-9.338379,15.014648,268.493652,0,0
4006,2024 10 19,05:24:43.373,-0.661111,0.641843,-0.09668,0.376327,0.046388,0.63918,0.749535,2.929688,54.80957,237.426758,0,0
4007,2024 10 19,05:24:43.381,-0.653941,0.646496,-0.07822,0.385078,-0.061525,0.718284,0.549333,5.310059,92.285156,238.830566,0,0
4008,2024 10 19,05:24:43.390,-0.646057,0.651875,-0.057236,0.392929,-0.383312,0.765648,0.453627,2.319336,122.253418,257.019043,0,0
4009,2024 10 19,05:24:43.398,-0.636723,0.657478,-0.034164,0.401422,-0.566912,0.789087,0.388195,-2.502441,123.474121,284.179688,0,0
4010,2024 10 19,05:24:43.406,-0.625463,0.662867,-0.009868,0.411469,-0.651387,0.701682,0.319346,-8.850098,120.300293,312.683105,0,0
4011,2024 10 19,05:24:43.415,-0.612329,0.667853,0.015542,0.422828,-0.707541,0.594745,0.286142,-14.465332,115.722656,338.012695,0,0
4012,2024 10 19,05:24:43.423,-0.612329,0.667853,0.015542,0.422828,-0.707541,0.594745,0.286142,-14.465332,115.722656,338.012695,0,0
4013,2024 10 19,05:24:43.431,-0.597603,0.672403,0.042059,0.434712,-0.766137,0.523942,0.216315,-18.371582,120.300293,356.140137,0,0
4014,2024 10 19,05:24:43.440,-0.581612,0.67649,0.069541,0.446376,-0.807642,0.46144,0.166997,-19.470215,127.441406,366.699219,0,0
4015,2024 10 19,05:24:43.448,-0.564561,0.680217,0.097955,0.457144,-0.933622,0.424818,0.125004,-19.714355,141.784668,372.680664,0,0
4016,2024 10 19,05:24:43.456,-0.546589,0.683553,0.126941,0.466778,-1.113804,0.399426,0.049318,-20.812988,151.245117,373.718262,0,0
4017,2024 10 19,05:24:43.465,-0.527858,0.686208,0.1561,0.475518,-1.249062,0.387707,0.014649,-19.53125,156.860352,374.511719,0,0
4018,2024 10 19,05:24:43.473,-0.527858,0.686208,0.1561,0.475518,-1.249062,0.387707,0.014649,-19.53125,156.860352,374.511719,0,0
4019,2024 10 19,05:24:43.481,-0.508366,0.687988,0.185646,0.483499,-1.344279,0.38966,-0.034181,-16.174316,161.987305,379.882813,0,0
4020,2024 10 19,05:24:43.490,-0.488015,0.688678,0.216001,0.490823,-1.485885,0.372082,-0.074709,-10.192871,168.273926,390.869141,0,0
4021,2024 10 19,05:24:43.498,-0.466957,0.687861,0.247204,0.497683,-1.709525,0.333018,-0.087893,-0.366211,168.334961,402.526855,0,0
4022,2024 10 19,05:24:43.506,-0.445706,0.68506,0.278694,0.504349,-1.846248,0.216803,-0.161138,10.986328,158.752441,409.667969,0,0
4023,2024 10 19,05:24:43.515,-0.424742,0.680218,0.310382,0.510452,-2.017151,0.195807,-0.211432,26.916504,153.747559,413.330078,0,0
4024,2024 10 19,05:24:43.523,-0.424742,0.680218,0.310382,0.510452,-2.017151,0.195807,-0.211432,26.916504,153.747559,413.330078,0,0
4025,2024 10 19,05:24:43.531,-0.404107,0.673334,0.342039,0.516069,-2.11774,0.241707,-0.199225,40.771484,143.066406,416.931152,0,0
4026,2024 10 19,05:24:43.540,-0.383365,0.664547,0.373788,0.52124,-2.226142,0.338389,-0.17481,50.537109,138.73291,425.048828,0,0
4027,2024 10 19,05:24:43.548,-0.361882,0.654147,0.405565,0.525974,-2.429273,0.362804,-0.192877,51.696777,135.498047,435.180664,0,0
4028,2024 10 19,05:24:43.556,-0.33959,0.642332,0.436909,0.530281,-2.643147,0.340342,-0.21485,50.231934,133.361816,441.28418,0,0
4029,2024 10 19,05:24:43.565,-0.316515,0.629482,0.467368,0.533983,-2.858486,0.24073,-0.236824,46.020508,132.995605,442.504883,0,0
4030,2024 10 19,05:24:43.573,-0.316515,0.629482,0.467368,0.533983,-2.858486,0.24073,-0.236824,46.020508,132.995605,442.504883,0,0
4031,2024 10 19,05:24:43.581,-0.292754,0.61582,0.496573,0.5371,-2.930265,-0.138188,-0.317392,38.513184,131.835938,441.467285,0,0
4032,2024 10 19,05:24:43.590,-0.268455,0.601162,0.524283,0.540059,-3.338969,-0.703635,0.145512,29.23584,121.643066,443.664551,0,0
4033,2024 10 19,05:24:43.598,-0.24537,0.585253,0.548877,0.544065,-2.985931,-1.328166,-0.008789,12.023926,82.885742,422.058105,0,0
4034,2024 10 19,05:24:43.606,-0.223576,0.570812,0.570193,0.54687,-2.686117,-1.953185,0.222175,4.272461,101.501465,377.990723,0,0
4035,2024 10 19,05:24:43.615,-0.202098,0.560438,0.587964,0.547142,-2.461013,-2.56502,0.052736,-12.634277,129.02832,319.152832,0,0
4036,2024 10 19,05:24:43.623,-0.202098,0.560438,0.587964,0.547142,-2.461013,-2.56502,0.052736,-12.634277,129.02832,319.152832,0,0
4037,2024 10 19,05:24:43.631,-0.180995,0.555361,0.601318,0.54519,-2.080142,-3.098239,-0.640645,-37.963867,167.84668,246.826172,0,0
4038,2024 10 19,05:24:43.640,-0.161396,0.555987,0.609302,0.541831,-1.555223,-3.887814,-1.243202,-65.002441,191.467285,158.935547,0,0
4039,2024 10 19,05:24:43.648,-0.142459,0.563067,0.613123,0.535482,-2.791101,-4.94058,-1.747124,-64.51416,245.544434,87.158203,0,0
4040,2024 10 19,05:24:43.656,-0.129464,0.571277,0.614042,0.528993,-3.824336,-5.607105,-1.805231,-48.522949,167.114258,35.15625,0,0
4041,2024 10 19,05:24:43.665,-0.130369,0.573886,0.611831,0.528509,-2.714438,-5.230628,-1.207068,-3.479004,-23.31543,-20.507813,0,0
4042,2024 10 19,05:24:43.673,-0.130369,0.573886,0.611831,0.528509,-2.714438,-5.230628,-1.207068,-3.479004,-23.31543,-20.507813,0,0
4043,2024 10 19,05:24:43.681,-0.14701,0.585884,0.610451,0.512325,-7.55736,-2.563555,-4.46498,340.942383,230.773926,-321.411133,0,0
4044,2024 10 19,05:24:43.690,-0.192262,0.591222,0.587425,0.518095,-0.715354,-2.94882,-0.299325,111.572266,-521.42334,-453.063965,1,0
4045,2024 10 19,05:24:43.698,-0.244342,0.588806,0.560394,0.528737,1.116733,3.325785,2.061098,111.633301,-361.450195,-437.255859,0,0
4046,2024 10 19,05:24:43.706,-0.259072,0.609562,0.537366,0.522067,-3.095798,1.219275,-0.945341,-26.062012,40.039063,-412.353516,0,0
4047,2024 10 19,05:24:43.715,-0.275507,0.622609,0.506151,0.529401,-2.182195,-1.431196,-1.241249,-223.510742,-223.999023,-348.815918,0,0
4048,2024 10 19,05:24:43.723,-0.275507,0.622609,0.506151,0.529401,-2.182195,-1.431196,-1.241249,-223.510742,-223.999023,-348.815918,0,0
4049,2024 10 19,05:24:43.731,-0.289179,0.629871,0.478935,0.538757,-1.906308,-1.16361,-0.834986,-110.473633,-135.131836,-255.737305,0,0
4050,2024 10 19,05:24:43.740,-0.303663,0.631019,0.463015,0.543343,-1.788141,-0.503433,0.015625,-1.647949,-176.818848,-166.687012,0,0
4051,2024 10 19,05:24:43.748,-0.316291,0.627496,0.451365,0.549981,-1.247597,0.318369,1.039094,-22.216797,-162.353516,-105.102539,0,0
4052,2024 10 19,05:24:43.756,-0.321359,0.625266,0.439209,0.559344,-1.230018,-0.095706,0.27784,-96.557617,-162.109375,-64.941406,0,0
4053,2024 10 19,05:24:43.765,-0.324725,0.621398,0.426742,0.571235,-0.829127,-0.368664,-0.320811,-95.031738,-169.128418,-42.175293,0,0
4054,2024 10 19,05:24:43.773,-0.32897,0.616825,0.417661,0.580401,-0.909207,0.156743,0.001953,-48.950195,-141.967773,-31.860352,0,0
4055,2024 10 19,05:24:43.781,-0.32897,0.616825,0.417661,0.580401,-0.909207,0.156743,0.001953,-48.950195,-141.967773,-31.860352,0,0
4056,2024 10 19,05:24:43.790,-0.331229,0.613211,0.409619,0.588619,-0.858425,0.116703,-0.133793,-69.396973,-115.722656,-21.789551,0,0
4057,2024 10 19,05:24:43.798,-0.332515,0.610653,0.402266,0.595583,-0.781274,-0.049318,-0.294443,-58.959961,-92.529297,-22.155762,0,0
4058,2024 10 19,05:24:43.806,-0.334207,0.608543,0.39684,0.600416,-0.831568,0.062502,-0.119633,-34.790039,-69.580078,-19.897461,0,0
4059,2024 10 19,05:24:43.815,-0.335355,0.607056,0.392768,0.603948,-0.734397,-0.056642,-0.366222,-25.756836,-49.194336,-15.075684,0,0
4060,2024 10 19,05:24:43.823,-0.337095,0.606131,0.390694,0.605252,-0.876492,0.133305,-0.084964,-1.342773,-23.132324,-17.028809,0,0
4061,2024 10 19,05:24:43.831,-0.337095,0.606131,0.390694,0.605252,-0.876492,0.133305,-0.084964,-1.342773,-23.132324,-17.028809,0,0
4062,2024 10 19,05:24:43.840,-0.338734,0.605889,0.389393,0.605418,-0.89407,0.067873,-0.183599,4.333496,-13.61084,-19.775391,0,0
4063,2024 10 19,05:24:43.848,-0.340801,0.605856,0.388704,0.604733,-0.898465,0.11475,-0.073733,14.526367,-2.685547,-22.094727,0,0
4064,2024 10 19,05:24:43.856,-0.342896,0.606209,0.388461,0.603349,-0.962432,0.13184,-0.075198,18.005371,2.563477,-23.925781,0,0
4065,2024 10 19,05:24:43.865,-0.345111,0.606702,0.388162,0.601781,-1.002472,0.185064,-0.019532,18.127441,4.394531,-26.794434,0,0
4066,2024 10 19,05:24:43.873,-0.34717,0.607277,0.387452,0.600474,-0.988311,0.146977,-0.014649,12.695313,0.183105,-27.770996,0,0
4067,2024 10 19,05:24:43.881,-0.34717,0.607277,0.387452,0.600474,-0.988311,0.146977,-0.014649,12.695313,0.183105,-27.770996,0,0
4068,2024 10 19,05:24:43.890,-0.349086,0.607799,0.386451,0.599479,-0.956084,0.139653,-0.06885,6.835938,-2.01416,-26.550293,0,0
4069,2024 10 19,05:24:43.898,-0.350522,0.608282,0.385023,0.59907,-0.947783,0.15479,-0.082522,-2.868652,-6.04248,-23.254395,0,0
4070,2024 10 19,05:24:43.906,-0.351409,0.608809,0.383206,0.59918,-0.962432,0.147465,-0.055666,-9.216309,-7.629395,-21.240234,0,0
4071,2024 10 19,05:24:43.915,-0.351997,0.60934,0.381107,0.599633,-0.949248,0.089846,-0.058596,-15.869141,-10.681152,-19.226074,0,0
4072,2024 10 19,05:24:43.923,-0.352565,0.609878,0.379044,0.60006,-0.957549,0.133305,-0.070315,-14.404297,-9.338379,-19.53125,0,0
4073,2024 10 19,05:24:43.931,-0.352565,0.609878,0.379044,0.60006,-0.957549,0.133305,-0.070315,-14.404297,-9.338379,-19.53125,0,0
4074,2024 10 19,05:24:43.940,-0.352903,0.610478,0.376802,0.600664,-0.936064,0.11475,-0.020508,-18.249512,-10.009766,-18.432617,0,0
4075,2024 10 19,05:24:43.948,-0.353035,0.611114,0.37457,0.601335,-0.940947,0.106449,-0.097171,-19.714355,-9.887695,-16.784668,0,0
4076,2024 10 19,05:24:43.956,-0.353272,0.611725,0.372298,0.601985,-0.916044,0.121097,-0.147465,-18.432617,-8.422852,-19.042969,0,0
4077,2024 10 19,05:24:43.965,-0.353492,0.612778,0.370017,0.602191,-0.967315,0.098148,-0.118656,-18.615723,-1.037598,-22.827148,0,0
4078,2024 10 19,05:24:43.973,-0.353918,0.614008,0.367763,0.602069,-0.98587,0.084964,-0.097171,-16.174316,-1.159668,-25.634766,0,0
4079,2024 10 19,05:24:43.981,-0.353918,0.614008,0.367763,0.602069,-0.98587,0.084964,-0.097171,-16.174316,-1.159668,-25.634766,0,0
4080,2024 10 19,05:24:43.990,-0.354772,0.615178,0.365506,0.601747,-0.979034,0.06006,-0.096194,-11.413574,-2.197266,-29.23584,0,0
4081,2024 10 19,05:24:43.998,-0.356115,0.61618,0.363342,0.601238,-0.974151,0.027833,-0.083987,-6.164551,-3.601074,-31.982422,0,0
4082,2024 10 19,05:24:44.006,-0.357933,0.616884,0.361266,0.600687,-0.974151,0.044435,-0.073244,-1.586914,-7.751465,-32.409668,0,0
4083,2024 10 19,05:24:44.015,-0.360027,0.617272,0.35921,0.60027,-0.93997,0.02295,-0.062502,0.549316,-12.634277,-32.226563,0,0
4084,2024 10 19,05:24:44.023,-0.362283,0.617318,0.357294,0.600008,-0.902371,0.015625,-0.081545,4.882813,-14.404297,-29.907227,0,0
4085,2024 10 19,05:24:44.031,-0.362283,0.617318,0.357294,0.600008,-0.902371,0.015625,-0.081545,4.882813,-14.404297,-29.907227,0,0
4086,2024 10 19,05:24:44.040,-0.364559,0.617187,0.355639,0.599749,-0.871609,-0.004395,-0.092776,7.385254,-14.953613,-27.46582,0,0
4087,2024 10 19,05:24:44.048,-0.366824,0.61693,0.35432,0.599412,-0.899441,0.004395,-0.092288,9.70459,-13.183594,-25.024414,0,0
4088,2024 10 19,05:24:44.056,-0.369181,0.61654,0.353143,0.599061,-0.915555,0.00586,-0.123051,11.962891,-14.526367,-24.597168,0,0
4089,2024 10 19,05:24:44.065,-0.371727,0.616127,0.352095,0.598528,-0.967315,0.016114,-0.113285,14.648438,-12.634277,-26.367188,0,0
4090,2024 10 19,05:24:44.073,-0.374631,0.615768,0.351066,0.59769,-1.047395,0.027833,-0.099124,19.104004,-12.268066,-31.066895,0,0
4091,2024 10 19,05:24:44.081,-0.374631,0.615768,0.351066,0.59769,-1.047395,0.027833,-0.099124,19.104004,-12.268066,-31.066895,0,0
4092,2024 10 19,05:24:44.090,-0.378298,0.615359,0.349913,0.596477,-1.087435,0.046388,-0.08887,26.733398,-14.099121,-39.489746,0,0
4093,2024 10 19,05:24:44.098,-0.382876,0.615037,0.348484,0.594722,-1.156285,0.120121,-0.087405,34.423828,-12.634277,-51.818848,0,0
4094,2024 10 19,05:24:44.106,-0.388408,0.614987,0.346553,0.59231,-1.237831,0.106449,-0.120609,36.682129,-13.61084,-66.650391,0,0
4095,2024 10 19,05:24:44.115,-0.394994,0.61533,0.34392,0.589124,-1.31547,0.144047,-0.133793,38.269043,-12.634277,-84.228516,0,0
4096,2024 10 19,05:24:44.123,-0.402416,0.616143,0.340099,0.585459,-1.303751,0.188971,-0.129398,36.682129,-14.892578,-102.844238,0,0
4097,2024 10 19,05:24:44.131,-0.402416,0.616143,0.340099,0.585459,-1.303751,0.188971,-0.129398,36.682129,-14.892578,-102.844238,0,0
4098,2024 10 19,05:24:44.140,-0.410079,0.617653,0.335006,0.581473,-1.279824,0.176763,-0.084964,24.780273,-14.282227,-115.905762,0,0
4099,2024 10 19,05:24:44.148,-0.417605,0.619933,0.328533,0.577369,-1.502976,0.208502,-0.158208,13.183594,-14.099121,-130.67627,0,0
4100,2024 10 19,05:24:44.156,-0.426082,0.622777,0.320472,0.572626,-1.57329,0.224616,-0.084964,8.239746,-20.263672,-155.029297,0,0
4101,2024 10 19,05:24:44.165,-0.435358,0.626087,0.310189,0.567681,-1.67925,0.243171,0.011719,-1.464844,-28.015137,-179.443359,0,0
4102,2024 10 19,05:24:44.173,-0.445504,0.629996,0.297674,0.562158,-1.803766,0.292489,0.049318,-11.71875,-37.475586,-207.641602,0,0
4103,2024 10 19,05:24:44.181,-0.456703,0.634209,0.2821,0.556436,-1.966369,0.338389,0.097659,-24.108887,-53.039551,-241.333008,0,0
4104,2024 10 19,05:24:44.190,-0.456703,0.634209,0.2821,0.556436,-1.966369,0.338389,0.097659,-24.108887,-53.039551,-241.333008,0,0
4105,2024 10 19,05:24:44.198,-0.469345,0.638868,0.263338,0.549742,-2.182195,0.428724,0.15186,-32.104492,-64.51416,-283.081055,0,0
4106,2024 10 19,05:24:44.206,-0.48427,0.643858,0.241251,0.541042,-2.681234,0.637715,-0.124516,-28.625488,-72.387695,-339.294434,0,0
4107,2024 10 19,05:24:44.215,-0.502655,0.648214,0.214396,0.530273,-3.298929,0.878445,0.07178,-24.658203,-101.989746,-412.658691,0,0
4108,2024 10 19,05:24:44.223,-0.524218,0.651706,0.181055,0.51739,-3.847774,0.73928,-0.095218,-30.944824,-137.756348,-495.605469,0,0
4109,2024 10 19,05:24:44.231,-0.548851,0.653694,0.141037,0.501553,-3.965453,0.528336,-0.096683,-36.682129,-170.715332,-577.514648,0,0
4110,2024 10 19,05:24:44.240,-0.548851,0.653694,0.141037,0.501553,-3.965453,0.528336,-0.096683,-36.682129,-170.715332,-577.514648,0,0
4111,2024 10 19,05:24:44.248,-0.573007,0.655127,0.096059,0.482954,-4.142704,-0.084475,-0.520524,-62.927246,-175.354004,-617.1875,0,0
4112,2024 10 19,05:24:44.256,-0.59627,0.653721,0.049211,0.463344,-3.443953,-0.409192,-0.029298,-46.813965,-198.608398,-619.506836,0,1
4113,2024 10 19,05:24:44.265,-0.617594,0.650081,0.005922,0.442647,-3.801386,-0.021973,0.026368,-35.949707,-165.95459,-580.383301,0,0
4114,2024 10 19,05:24:44.273,-0.637981,0.642935,-0.035089,0.422354,-3.137791,1.156774,0.979522,9.155273,-187.683105,-565.673828,0,0
4115,2024 10 19,05:24:44.281,-0.656443,0.634319,-0.07309,0.401722,-2.264229,1.714896,1.321818,10.620117,-153.564453,-533.081055,0,0
4116,2024 10 19,05:24:44.290,-0.656443,0.634319,-0.07309,0.401722,-2.264229,1.714896,1.321818,10.620117,-153.564453,-533.081055,0,0
4117,2024 10 19,05:24:44.298,-0.67322,0.626356,-0.106426,0.37832,-1.733451,1.048372,1.203162,14.282227,-87.95166,-513.793945,0,0
4118,2024 10 19,05:24:44.306,-0.694051,0.616051,-0.133957,0.347604,-1.354534,0.519059,0.976592,107.36084,6.652832,-565.979004,0,0
4119,2024 10 19,05:24:44.315,-0.717089,0.601851,-0.151973,0.316958,0.77102,0.76516,0.591327,185.241699,66.833496,-430.419922,0,0
4120,2024 10 19,05:24:44.323,-0.734933,0.588792,-0.14798,0.302158,1.577197,2.739341,1.841853,220.214844,128.845215,-82.580566,0,0
4121,2024 10 19,05:24:44.331,-0.738318,0.58537,-0.128722,0.309287,-0.865261,2.199286,-0.487319,83.007813,102.294922,247.253418,0,0
4122,2024 10 19,05:24:44.340,-0.738318,0.58537,-0.128722,0.309287,-0.865261,2.199286,-0.48732,83.007813,102.294922,247.253418,0,0
4123,2024 10 19,05:24:44.348,-0.733242,0.584826,-0.105142,0.330575,-1.647023,1.798883,0.539567,82.519531,20.324707,367.248535,0,0
4124,2024 10 19,05:24:44.356,-0.722783,0.586249,-0.084798,0.355958,-0.920438,0.951201,0.329112,23.55957,-7.507324,377.624512,0,0
4125,2024 10 19,05:24:44.365,-0.712575,0.587758,-0.065916,0.377402,-0.277352,0.694845,0.838893,9.765625,11.352539,329.284668,0,0
4126,2024 10 19,05:24:44.373,-0.703567,0.590495,-0.04752,0.392493,0.133793,0.481948,0.959502,12.451172,69.335938,273.31543,0,0
4127,2024 10 19,05:24:44.381,-0.695629,0.594992,-0.027041,0.401689,0.12598,0.50734,0.677267,11.779785,131.591797,245.361328,0,0
4128,2024 10 19,05:24:44.390,-0.695629,0.594992,-0.027041,0.401689,0.12598,0.50734,0.677267,11.779785,131.591797,245.361328,0,0
4129,2024 10 19,05:24:44.398,-0.687863,0.600848,-0.003506,0.407204,-0.201178,0.7051,0.552263,11.230469,186.096191,241.821289,0,0
4130,2024 10 19,05:24:44.406,-0.678721,0.607914,0.022802,0.411411,-0.675314,0.864772,0.447768,2.441406,213.867188,259.155273,0,0
4131,2024 10 19,05:24:44.415,-0.667308,0.615149,0.050029,0.41688,-0.921903,0.89114,0.292489,-11.962891,204.345703,284.912109,0,0
4132,2024 10 19,05:24:44.423,-0.653428,0.621926,0.076767,0.424672,-0.952666,0.803735,0.196783,-31.188965,183.410645,309.509277,0,0
4133,2024 10 19,05:24:44.431,-0.637428,0.628356,0.10305,0.43386,-0.952178,0.674337,0.161626,-46.264648,173.278809,325.195313,0,0
4134,2024 10 19,05:24:44.440,-0.637428,0.628356,0.10305,0.43386,-0.952178,0.674337,0.161626,-46.264648,173.278809,325.195313,0,0
4135,2024 10 19,05:24:44.448,-0.619806,0.634603,0.129196,0.443201,-0.91702,0.579608,0.136723,-55.297852,175.842285,332.092285,0,0
4136,2024 10 19,05:24:44.456,-0.600933,0.640782,0.155617,0.451732,-0.937529,0.514176,0.109867,-60.60791,187.011719,334.594727,0,0
4137,2024 10 19,05:24:44.465,-0.580873,0.646844,0.182711,0.459124,-1.072298,0.463393,0.066408,-61.828613,202.148438,339.050293,0,0
4138,2024 10 19,05:24:44.473,-0.559699,0.652301,0.210581,0.465721,-1.292032,0.444838,0.021973,-60.119629,210.632324,347.53418,0,0
4139,2024 10 19,05:24:44.481,-0.537589,0.65647,0.23884,0.472229,-1.502487,0.426283,-0.023438,-55.175781,205.688477,358.032227,0,0
4140,2024 10 19,05:24:44.490,-0.537589,0.65647,0.23884,0.472229,-1.502487,0.426283,-0.023438,-55.175781,205.688477,358.032227,0,0
4141,2024 10 19,05:24:44.498,-0.514972,0.658751,0.267253,0.478985,-1.722221,0.353038,-0.079592,-47.241211,195.3125,368.164063,0,0
4142,2024 10 19,05:24:44.506,-0.49242,0.658661,0.295275,0.486313,-1.792047,0.295907,-0.079104,-35.766602,174.255371,375.0,0,0
4143,2024 10 19,05:24:44.515,-0.469856,0.656698,0.323188,0.49349,-1.489792,-0.050783,-0.213874,-26.000977,172.180176,381.530762,0,0
4144,2024 10 19,05:24:44.523,-0.447617,0.652577,0.351204,0.500438,-1.743706,0.302744,-0.119144,-10.803223,159.973145,389.160156,0,0
4145,2024 10 19,05:24:44.531,-0.424527,0.64702,0.380121,0.506607,-1.904355,0.404309,-0.157231,-0.976563,166.320801,402.893066,0,0
4146,2024 10 19,05:24:44.540,-0.424527,0.64702,0.380121,0.506607,-1.904355,0.404309,-0.157231,-0.976563,166.320801,402.893066,0,0
4147,2024 10 19,05:24:44.548,-0.400377,0.639808,0.409454,0.512534,-2.194403,0.457045,-0.177252,0.854492,162.963867,417.785645,0,0
4148,2024 10 19,05:24:44.556,-0.375416,0.630787,0.438375,0.51865,-2.491287,0.41554,-0.192877,-0.366211,152.099609,428.039551,0,0
4149,2024 10 19,05:24:44.565,-0.350228,0.6199,0.466509,0.524818,-2.700278,0.26661,-0.146977,2.624512,138.61084,433.959961,0,0
4150,2024 10 19,05:24:44.573,-0.324924,0.607099,0.494307,0.53058,-2.800378,-0.095218,0.017579,10.131836,131.04248,444.885254,0,0
4151,2024 10 19,05:24:44.581,-0.299534,0.592077,0.521824,0.53612,-3.087497,-0.644063,0.104984,16.723633,112.915039,457.458496,0,0
4152,2024 10 19,05:24:44.590,-0.275556,0.575241,0.547511,0.541662,-2.937101,-1.297891,0.098636,21.30127,92.651367,444.152832,0,0
4153,2024 10 19,05:24:44.598,-0.275556,0.575241,0.547511,0.541662,-2.937101,-1.297891,0.098636,21.30127,92.651367,444.152832,0,0
4154,2024 10 19,05:24:44.606,-0.252366,0.559809,0.57109,0.544777,-2.979095,-1.863826,-0.016602,17.822266,111.633301,408.203125,0,0
4155,2024 10 19,05:24:44.615,-0.230531,0.54661,0.590942,0.546681,-2.775964,-2.274483,-0.119633,1.342773,111.999512,357.299805,0,0
4156,2024 10 19,05:24:44.623,-0.209334,0.537438,0.606133,0.54767,-2.537187,-2.787194,-0.571306,-32.836914,130.065918,293.395996,0,0
4157,2024 10 19,05:24:44.631,-0.18814,0.53356,0.615911,0.548243,-2.174383,-3.287698,-1.319376,-78.430176,158.935547,222.839355,0,0
4158,2024 10 19,05:24:44.640,-0.16797,0.535099,0.619963,0.548726,-2.028382,-4.063601,-1.960509,-116.394043,168.579102,141.113281,0,0
4159,2024 10 19,05:24:44.648,-0.16797,0.535099,0.619963,0.548726,-2.028382,-4.063601,-1.960509,-116.394043,168.579102,141.113281,0,0
4160,2024 10 19,05:24:44.656,-0.150524,0.540874,0.618825,0.549411,-3.356548,-5.352703,-2.469802,-129.211426,163.757324,72.08252,0,0
4161,2024 10 19,05:24:44.665,-0.142929,0.54542,0.613926,0.552434,-3.683706,-5.478683,-2.122623,-104.980469,28.076172,7.080078,0,0
4162,2024 10 19,05:24:44.673,-0.149745,0.545559,0.606267,0.558912,-7.925046,-3.165136,-0.342296,-27.099609,-98.754883,-74.035645,0,0
4163,2024 10 19,05:24:44.681,-0.179797,0.566964,0.592006,0.543832,0.0459,-1.730522,-5.675954,59.143066,-261.59668,-445.19043,0,0
4164,2024 10 19,05:24:44.690,-0.238571,0.561366,0.568165,0.552395,1.992248,3.699332,4.883938,189.880371,-425.048828,-472.717285,1,0
4165,2024 10 19,05:24:44.698,-0.238571,0.561366,0.568165,0.552395,1.992248,3.699332,4.883938,189.880371,-425.048828,-472.717285,0,0
4166,2024 10 19,05:24:44.706,-0.251744,0.588282,0.549578,0.537134,-2.509354,1.039094,-2.134831,-12.145996,185.546875,-444.274902,0,0
4167,2024 10 19,05:24:44.715,-0.273567,0.605869,0.519319,0.53702,-2.618244,-1.015656,0.333018,-203.796387,-191.345215,-433.044434,0,0
