frame,date,time,quaternion_x,quaternion_y,quaternion_z,quaternion_w,accel_x,accel_y,accel_z,gyro_x,gyro_y,gyro_z,HS,TO
3246,2024 10 19,05:24:37.040,0.581662,0.626103,-0.151935,0.496569,-0.366222,1.485397,-0.776879,11.901855,-21.362305,-13.061523,0,0
3247,2024 10 19,05:24:37.048,0.579678,0.628985,-0.153157,0.494868,-0.258797,1.507859,-1.014679,24.536133,-44.433594,0.061035,0,0
3248,2024 10 19,05:24:37.057,0.575825,0.633734,-0.157159,0.492044,-0.41554,1.566942,-0.78225,31.12793,-85.083008,21.972656,0,0
3249,2024 10 19,05:24:37.065,0.570352,0.639234,-0.163554,0.489212,-0.5674,1.531297,-0.751488,34.057617,-104.492188,46.630859,0,0
3250,2024 10 19,05:24:37.073,0.570352,0.639234,-0.163554,0.489212,-0.5674,1.531297,-0.751488,34.057617,-104.492188,46.630859,0,0
3251,2024 10 19,05:24:37.082,0.563522,0.645075,-0.172231,0.486475,-0.713889,1.436079,-0.63039,32.592773,-122.924805,70.373535,0,0
3252,2024 10 19,05:24:37.090,0.55581,0.650606,-0.182875,0.48409,-0.806177,1.332072,-0.560076,25.512695,-131.286621,92.163086,0,0
3253,2024 10 19,05:24:37.098,0.547512,0.655608,-0.195569,0.481832,-0.910672,1.259316,-0.457533,14.343262,-143.005371,112.304688,0,0
3254,2024 10 19,05:24:37.107,0.538821,0.659786,-0.210275,0.479728,-1.017609,1.22074,-0.363292,1.342773,-150.024414,132.568359,0,0
3255,2024 10 19,05:24:37.115,0.529716,0.663096,-0.226893,0.477729,-1.156285,1.199744,-0.209967,-10.192871,-158.203125,151.611328,0,0
3256,2024 10 19,05:24:37.123,0.529716,0.663096,-0.226893,0.477729,-1.156285,1.199744,-0.209967,-10.192871,-158.203125,151.611328,0,0
3257,2024 10 19,05:24:37.132,0.520091,0.665474,-0.245125,0.475986,-1.315958,1.155309,-0.066408,-19.165039,-161.682129,170.532227,0,0
3258,2024 10 19,05:24:37.140,0.509807,0.666778,-0.264565,0.474879,-1.458541,1.094272,0.079592,-23.498535,-159.973145,189.880371,0,0
3259,2024 10 19,05:24:37.148,0.498776,0.666979,-0.284732,0.474646,-1.603565,1.016144,0.221198,-24.291992,-152.893066,207.702637,0,0
3260,2024 10 19,05:24:37.157,0.486978,0.666123,-0.305034,0.475487,-1.699271,0.883328,0.317392,-21.179199,-142.822266,221.984863,0,0
3261,2024 10 19,05:24:37.165,0.474447,0.664355,-0.325095,0.477331,-1.765191,0.727073,0.350597,-15.258789,-131.896973,232.849121,0,0
3262,2024 10 19,05:24:37.173,0.474447,0.664355,-0.325095,0.477331,-1.765191,0.727073,0.350597,-15.258789,-131.896973,232.849121,0,0
3263,2024 10 19,05:24:37.182,0.46115,0.661876,-0.34466,0.480074,-1.79693,0.5674,0.369152,-6.469727,-122.253418,241.455078,0,0
3264,2024 10 19,05:24:37.190,0.44695,0.658895,-0.363588,0.483628,-1.840876,0.387707,0.396008,4.760742,-113.769531,248.596191,0,0
3265,2024 10 19,05:24:37.198,0.431886,0.655492,-0.38165,0.488004,-1.857967,0.209967,0.397961,18.066406,-104.858398,253.479004,0,0
3266,2024 10 19,05:24:37.207,0.415935,0.651912,-0.398619,0.493063,-1.876034,0.016602,0.405286,33.447266,-97.65625,254.638672,0,0
3267,2024 10 19,05:24:37.215,0.399277,0.648326,-0.414141,0.498737,-1.877499,-0.190924,0.376965,49.987793,-89.172363,251.159668,0,0
3268,2024 10 19,05:24:37.223,0.3821,0.644909,-0.428027,0.504862,-1.850154,-0.412122,0.325205,65.979004,-82.519531,243.95752,0,0
3269,2024 10 19,05:24:37.232,0.3821,0.644909,-0.428027,0.504862,-1.850154,-0.412122,0.325205,65.979004,-82.519531,243.95752,0,0
3270,2024 10 19,05:24:37.240,0.364636,0.641781,-0.440211,0.511245,-1.803766,-0.688498,0.241707,79.956055,-75.683594,233.581543,0,0
3271,2024 10 19,05:24:37.248,0.34726,0.638956,-0.450674,0.517725,-1.735404,-1.038118,0.145512,90.759277,-68.908691,220.64209,0,0
3272,2024 10 19,05:24:37.257,0.330464,0.636486,-0.459481,0.523982,-1.603565,-1.514695,0.077639,95.275879,-62.561035,203.735352,0,0
3273,2024 10 19,05:24:37.265,0.314978,0.634269,-0.466848,0.529665,-1.476119,-2.044496,0.018067,90.576172,-54.931641,184.082031,0,0
3274,2024 10 19,05:24:37.273,0.300926,0.63297,-0.473235,0.533705,-1.3726,-2.517167,0.007324,80.383301,-69.091797,158.38623,0,0
3275,2024 10 19,05:24:37.282,0.300926,0.63297,-0.473235,0.533705,-1.3726,-2.517167,0.007324,80.383301,-69.091797,158.38623,0,0
3276,2024 10 19,05:24:37.290,0.288905,0.633038,-0.478414,0.535646,-1.366253,-2.841395,0.31251,65.856934,-67.871094,122.436523,0,0
3277,2024 10 19,05:24:37.298,0.280284,0.633734,-0.481739,0.536423,-1.182165,-2.998138,0.316904,48.217773,-61.462402,81.726074,0,0
3278,2024 10 19,05:24:37.307,0.27423,0.635579,-0.483876,0.535445,-1.193396,-3.061129,0.584979,30.822754,-59.814453,48.339844,0,0
3279,2024 10 19,05:24:37.315,0.271538,0.637294,-0.485048,0.533716,-4.881985,-3.079684,-1.171911,3.173828,-45.10498,18.310547,0,0
3280,2024 10 19,05:24:37.323,0.276334,0.647633,-0.481261,0.52211,-2.597247,-3.147069,3.108493,-54.443359,-71.777344,-153.320313,0,0
3281,2024 10 19,05:24:37.332,0.276334,0.647633,-0.481261,0.52211,-2.597247,-3.147069,3.108493,-54.443359,-71.777344,-153.320313,0,0
3282,2024 10 19,05:24:37.340,0.296314,0.651882,-0.4679,0.517993,-1.202185,-3.969848,1.883847,-62.744141,114.990234,-258.300781,0,0
3283,2024 10 19,05:24:37.348,0.323489,0.652649,-0.451268,0.515521,-0.510758,0.391125,-0.443373,-140.441895,179.748535,-285.827637,1,0
3284,2024 10 19,05:24:37.357,0.340631,0.65876,-0.437775,0.50829,-1.497116,1.529832,0.180181,-50.354004,-1.342773,-258.483887,0,0
3285,2024 10 19,05:24:37.365,0.350859,0.668422,-0.425859,0.498752,-2.199286,-0.428724,0.518571,-15.319824,-18.310547,-236.694336,0,0
3286,2024 10 19,05:24:37.373,0.364765,0.671536,-0.410469,0.497494,-1.673879,-0.594256,0.490738,-11.962891,135.925293,-203.491211,0,0
3287,2024 10 19,05:24:37.382,0.364765,0.671536,-0.410469,0.497494,-1.673879,-0.594256,0.490738,-11.962891,135.925293,-203.491211,0,0
3288,2024 10 19,05:24:37.390,0.378411,0.670037,-0.396573,0.500585,-1.124058,-0.297861,-0.568377,-16.723633,135.864258,-148.376465,0,0
3289,2024 10 19,05:24:37.398,0.386172,0.670144,-0.387385,0.501707,-1.466842,0.031251,-0.052736,6.713867,82.702637,-101.135254,0,0
3290,2024 10 19,05:24:37.407,0.391477,0.668189,-0.375925,0.508871,-1.297891,-0.126957,-0.195807,62.011719,159.179688,-71.655273,0,0
3291,2024 10 19,05:24:37.415,0.394726,0.665127,-0.364104,0.51887,-0.881863,-0.442885,-0.076174,69.763184,152.34375,-45.715332,0,0
3292,2024 10 19,05:24:37.423,0.397272,0.662567,-0.355703,0.52598,-1.012238,-0.164068,0.212409,44.433594,109.25293,-31.738281,0,0
3293,2024 10 19,05:24:37.432,0.397272,0.662567,-0.355703,0.52598,-1.012238,-0.164068,0.212409,44.433594,109.25293,-31.738281,0,0
3294,2024 10 19,05:24:37.440,0.398976,0.659735,-0.348462,0.53305,-1.16654,-0.031251,-0.204596,49.377441,111.328125,-18.737793,0,0
3295,2024 10 19,05:24:37.448,0.399275,0.656877,-0.340768,0.541266,-1.11478,-0.094241,0.035646,70.007324,118.041992,-10.009766,0,0
3296,2024 10 19,05:24:37.457,0.399196,0.653671,-0.332818,0.550082,-0.895535,-0.256355,0.198737,66.711426,120.422363,-5.493164,0,0
3297,2024 10 19,05:24:37.465,0.39954,0.651076,-0.326302,0.556772,-0.836451,-0.031739,0.047365,46.264648,85.693359,-12.023926,0,0
3298,2024 10 19,05:24:37.473,0.399024,0.650042,-0.321075,0.56137,-1.053255,-0.161626,0.120609,52.307129,58.532715,-10.314941,0,0
3299,2024 10 19,05:24:37.482,0.399024,0.650042,-0.321075,0.56137,-1.053255,-0.161626,0.120609,52.307129,58.532715,-10.314941,0,0
3300,2024 10 19,05:24:37.490,0.398792,0.648696,-0.316111,0.565891,-0.891629,-0.182134,0.146489,40.100098,64.025879,-9.94873,0,0
3301,2024 10 19,05:24:37.498,0.399146,0.647712,-0.31243,0.568805,-0.864284,-0.125004,0.047853,22.460938,36.437988,-14.038086,0,0
3302,2024 10 19,05:24:37.507,0.399564,0.647745,-0.310145,0.569724,-1.003449,-0.143559,0.171392,14.282227,14.953613,-16.113281,0,0
3303,2024 10 19,05:24:37.515,0.400473,0.647559,-0.308128,0.570391,-0.931181,-0.118656,0.097659,5.79834,17.883301,-17.944336,0,0
3304,2024 10 19,05:24:37.523,0.401549,0.647739,-0.306707,0.570196,-0.961455,-0.109867,0.083499,0.488281,2.685547,-19.897461,0,0
3305,2024 10 19,05:24:37.532,0.401549,0.647739,-0.306707,0.570196,-0.961455,-0.109867,0.083499,0.488281,2.685547,-19.897461,0,0
3306,2024 10 19,05:24:37.540,0.40271,0.648241,-0.30571,0.569341,-0.976104,-0.093265,0.177252,-3.112793,-1.831055,-21.179199,0,0
3307,2024 10 19,05:24:37.548,0.403875,0.648705,-0.304784,0.568483,-0.972686,-0.099124,0.079104,-4.272461,-3.234863,-20.507813,0,0
3308,2024 10 19,05:24:37.557,0.404972,0.64944,-0.304201,0.567174,-1.030793,-0.112796,0.094729,-6.04248,-9.765625,-20.568848,0,0
3309,2024 10 19,05:24:37.565,0.406154,0.650104,-0.303653,0.565861,-1.036653,-0.10596,0.097171,-6.469727,-7.324219,-20.629883,0,0
3310,2024 10 19,05:24:37.573,0.407344,0.650632,-0.30299,0.564753,-1.034211,-0.122562,0.057619,-5.859375,-4.882813,-20.019531,0,0
3311,2024 10 19,05:24:37.582,0.407344,0.650632,-0.30299,0.564753,-1.034211,-0.122562,0.057619,-5.859375,-4.882813,-20.019531,0,0
3312,2024 10 19,05:24:37.590,0.408555,0.651071,-0.302352,0.563713,-1.011261,-0.114261,0.0918,-6.347656,-3.662109,-19.104004,0,0
3313,2024 10 19,05:24:37.598,0.409666,0.651411,-0.301677,0.562874,-1.00589,-0.114261,0.106937,-4.699707,-1.708984,-17.272949,0,0
3314,2024 10 19,05:24:37.607,0.410633,0.651668,-0.300949,0.562263,-1.001984,-0.116214,0.097171,-2.990723,0.183105,-15.563965,0,0
3315,2024 10 19,05:24:37.615,0.411467,0.651888,-0.30017,0.561814,-0.989776,-0.119144,0.110355,-1.037598,0.976563,-14.282227,0,0
3316,2024 10 19,05:24:37.623,0.412202,0.652132,-0.299353,0.561428,-0.990265,-0.113285,0.112308,0.061035,1.159668,-13.916016,0,0
3317,2024 10 19,05:24:37.632,0.41287,0.652432,-0.298512,0.561036,-0.983917,-0.107913,0.123051,0.854492,0.305176,-13.977051,0,0
3318,2024 10 19,05:24:37.640,0.41287,0.652432,-0.298512,0.561036,-0.983917,-0.107913,0.123051,0.854492,0.305176,-13.977051,0,0
3319,2024 10 19,05:24:37.648,0.413399,0.652856,-0.297598,0.560639,-1.014191,-0.112796,0.106449,3.356934,-0.427246,-14.160156,0,0
3320,2024 10 19,05:24:37.657,0.413895,0.653325,-0.296555,0.560279,-1.003449,-0.100589,0.114261,4.455566,0.183105,-15.136719,0,0
3321,2024 10 19,05:24:37.665,0.414279,0.653942,-0.29537,0.559901,-1.006867,-0.115726,0.111332,7.080078,-0.915527,-16.052246,0,0
3322,2024 10 19,05:24:37.673,0.414606,0.65465,-0.294076,0.559512,-1.001007,-0.100589,0.152837,8.972168,-1.098633,-16.967773,0,0
3323,2024 10 19,05:24:37.682,0.414848,0.65546,-0.292564,0.559178,-1.020539,-0.139164,0.075198,10.437012,-0.366211,-18.310547,0,0
3324,2024 10 19,05:24:37.690,0.414848,0.65546,-0.292564,0.559178,-1.020539,-0.139164,0.075198,10.437012,-0.366211,-18.310547,0,0
3325,2024 10 19,05:24:37.698,0.415253,0.656246,-0.291024,0.558758,-1.011261,-0.138676,0.099612,8.972168,-0.427246,-19.592285,0,0
3326,2024 10 19,05:24:37.707,0.415752,0.657081,-0.28947,0.558212,-1.041536,-0.15479,0.066408,7.995605,-1.098633,-21.118164,0,0
3327,2024 10 19,05:24:37.715,0.416507,0.657796,-0.287939,0.5576,-1.019562,-0.147954,0.097171,5.493164,0.427246,-22.338867,0,0
3328,2024 10 19,05:24:37.723,0.417337,0.658494,-0.28632,0.556989,-1.042512,-0.145512,0.116214,5.432129,0.671387,-23.803711,0,0
3329,2024 10 19,05:24:37.732,0.418351,0.659038,-0.284506,0.556514,-1.041536,-0.19483,0.101566,4.089355,5.371094,-25.146484,0,0
3330,2024 10 19,05:24:37.740,0.418351,0.659038,-0.284506,0.556514,-1.041536,-0.19483,0.101566,4.089355,5.371094,-25.146484,0,0
3331,2024 10 19,05:24:37.748,0.419839,0.659445,-0.282727,0.555817,-1.046907,-0.162603,0.122562,-1.342773,3.845215,-28.991699,0,0
3332,2024 10 19,05:24:37.757,0.421675,0.659786,-0.280866,0.554966,-1.056673,-0.170904,0.109378,-4.150391,6.530762,-32.348633,0,0
3333,2024 10 19,05:24:37.765,0.423908,0.659995,-0.278876,0.554019,-1.043977,-0.166997,0.093265,-6.408691,6.896973,-35.888672,0,0
3334,2024 10 19,05:24:37.773,0.426372,0.660331,-0.276859,0.552738,-1.058626,-0.183599,0.117679,-8.666992,5.187988,-39.855957,0,0
3335,2024 10 19,05:24:37.782,0.429198,0.660582,-0.274674,0.551338,-1.081576,-0.159185,0.110355,-11.169434,6.652832,-43.701172,0,0
3336,2024 10 19,05:24:37.790,0.429198,0.660582,-0.274674,0.551338,-1.081576,-0.159185,0.110355,-11.169434,6.652832,-43.701172,0,0
3337,2024 10 19,05:24:37.798,0.432274,0.660888,-0.272261,0.549764,-1.09769,-0.167974,0.119144,-11.474609,7.324219,-48.461914,0,0
3338,2024 10 19,05:24:37.807,0.435598,0.661262,-0.269493,0.548051,-1.133824,-0.163091,0.132817,-10.253906,7.873535,-53.771973,0,0
3339,2024 10 19,05:24:37.815,0.439265,0.661683,-0.266263,0.546192,-1.168004,-0.164556,0.106937,-10.986328,10.864258,-60.60791,0,0
3340,2024 10 19,05:24:37.823,0.443282,0.662204,-0.262564,0.544102,-1.216346,-0.176275,0.106449,-10.986328,10.559082,-68.481445,0,0
3341,2024 10 19,05:24:37.832,0.447741,0.662864,-0.258394,0.541638,-1.290567,-0.203131,0.052248,-11.962891,11.779785,-77.514648,0,0
3342,2024 10 19,05:24:37.840,0.447741,0.662864,-0.258394,0.541638,-1.290567,-0.203131,0.052248,-11.962891,11.779785,-77.514648,0,0
3343,2024 10 19,05:24:37.848,0.452937,0.663484,-0.253599,0.538818,-1.348674,-0.19776,0.058107,-15.319824,15.014648,-89.416504,0,0
3344,2024 10 19,05:24:37.857,0.458794,0.663994,-0.247907,0.535875,-1.354045,-0.226569,0.028809,-14.587402,22.949219,-100.219727,0,0
3345,2024 10 19,05:24:37.865,0.465171,0.664379,-0.24116,0.532971,-1.452193,-0.140629,0.135746,-11.657715,30.212402,-110.595703,0,0
3346,2024 10 19,05:24:37.873,0.472032,0.664962,-0.233075,0.5298,-1.538133,-0.084475,0.204108,-8.178711,35.400391,-129.272461,0,0
3347,2024 10 19,05:24:37.882,0.479514,0.665679,-0.223286,0.526385,-1.506882,-0.072268,0.219245,0.061035,43.212891,-147.949219,0,0
3348,2024 10 19,05:24:37.890,0.479514,0.665679,-0.223286,0.526385,-1.506882,-0.072268,0.219245,0.061035,43.212891,-147.949219,0,0
3349,2024 10 19,05:24:37.898,0.487359,0.666921,-0.211852,0.522319,-1.568896,-0.038575,0.278329,7.93457,42.663574,-168.640137,0,0
3350,2024 10 19,05:24:37.907,0.495708,0.668685,-0.198601,0.51739,-1.695364,-0.018555,0.259285,15.563965,47.485352,-192.382813,0,0
3351,2024 10 19,05:24:37.915,0.504998,0.670242,-0.183164,0.512059,-1.850642,-0.106937,0.049318,16.418457,60.180664,-218.688965,0,0
3352,2024 10 19,05:24:37.923,0.515841,0.6717,-0.165855,0.505192,-2.01178,-0.071291,-0.013184,11.962891,63.293457,-252.624512,0,0
3353,2024 10 19,05:24:37.932,0.528238,0.672421,-0.145911,0.497517,-2.240791,-0.082034,-0.153325,7.93457,84.899902,-286.682129,0,0
3354,2024 10 19,05:24:37.940,0.528238,0.672421,-0.145911,0.497517,-2.240791,-0.082034,-0.153325,7.93457,84.899902,-286.682129,0,0
3355,2024 10 19,05:24:37.948,0.542448,0.672015,-0.123041,0.488884,-2.535722,-0.005371,-0.122074,2.746582,104.125977,-325.927734,0,0
3356,2024 10 19,05:24:37.957,0.558394,0.670144,-0.096604,0.479343,-2.870205,0.02295,-0.012207,-0.244141,133.666992,-369.689941,0,0
3357,2024 10 19,05:24:37.965,0.576026,0.666252,-0.065811,0.469011,-3.05771,-0.121586,-0.032228,-4.211426,168.884277,-418.09082,0,0
3358,2024 10 19,05:24:37.973,0.594948,0.660496,-0.030956,0.456972,-3.32725,-0.265145,0.103519,-3.662109,191.040039,-466.186523,0,0
3359,2024 10 19,05:24:37.982,0.613777,0.653448,0.00707,0.442982,-3.377544,-0.618671,0.029298,8.605957,196.777344,-499.938965,0,0
3360,2024 10 19,05:24:37.990,0.613777,0.653448,0.00707,0.442982,-3.377544,-0.618671,0.029298,8.605957,196.777344,-499.938965,0,0
3361,2024 10 19,05:24:37.998,0.632013,0.64532,0.046555,0.426562,-3.391705,-0.624531,-0.113773,4.577637,201.782227,-523.498535,0,0
3362,2024 10 19,05:24:38.007,0.649853,0.635563,0.086502,0.40776,-3.082125,-0.324717,-0.302744,0.183105,187.62207,-541.564941,0,0
3363,2024 10 19,05:24:38.015,0.667156,0.62454,0.124809,0.386361,-2.803797,0.047365,-0.473159,-15.136719,160.705566,-544.494629,0,1
3364,2024 10 19,05:24:38.023,0.683968,0.612524,0.16034,0.362343,-2.369701,0.663106,-0.797876,-33.935547,127.441406,-543.945313,0,0
3365,2024 10 19,05:24:38.032,0.699263,0.600556,0.191487,0.337188,-2.099185,0.572771,-0.875027,-22.644043,75.683594,-502.624512,0,0
3366,2024 10 19,05:24:38.040,0.699263,0.600556,0.191487,0.337188,-2.099185,0.572771,-0.875027,-22.644043,75.683594,-502.624512,0,0
3367,2024 10 19,05:24:38.048,0.713665,0.588389,0.217329,0.311847,-1.368694,1.041047,-0.908231,-52.55127,46.264648,-462.463379,0,0
3368,2024 10 19,05:24:38.057,0.726667,0.576676,0.236717,0.28873,-1.157262,0.711447,-1.06888,-69.458008,-3.601074,-382.202148,0,0
3369,2024 10 19,05:24:38.065,0.738015,0.565598,0.247748,0.272126,1.471236,1.311075,0.087893,-88.745117,2.685547,-228.027344,0,0
3370,2024 10 19,05:24:38.073,0.742122,0.559987,0.248084,0.272256,0.690939,2.327219,-0.728538,-47.424316,-10.437012,46.875,0,0
3371,2024 10 19,05:24:38.082,0.738168,0.565239,0.236,0.282695,-0.379406,1.343791,0.338389,10.131836,-33.813477,237.792969,0,0
3372,2024 10 19,05:24:38.090,0.727924,0.573752,0.221224,0.303306,-0.865261,1.11771,-0.422864,51.696777,11.71875,343.62793,0,0
3373,2024 10 19,05:24:38.098,0.727924,0.573752,0.221224,0.303306,-0.865261,1.11771,-0.422864,51.696777,11.71875,343.62793,0,0
3374,2024 10 19,05:24:38.107,0.714602,0.586209,0.203363,0.323027,-1.149449,0.68215,-0.337413,82.336426,-37.04834,352.600098,0,0
3375,2024 10 19,05:24:38.115,0.700836,0.598482,0.185735,0.340808,-0.857936,0.419446,-0.787622,84.04541,-38.024902,331.665039,0,0
3376,2024 10 19,05:24:38.123,0.687843,0.61032,0.167624,0.355365,-0.691427,0.182134,-0.690451,75.744629,-71.044922,306.82373,0,0
3377,2024 10 19,05:24:38.132,0.676096,0.620861,0.14878,0.367818,-0.625996,0.096683,-0.708029,55.664063,-82.15332,291.320801,0,0
3378,2024 10 19,05:24:38.140,0.665443,0.629947,0.1287,0.379194,-0.570818,0.121097,-0.63332,32.775879,-97.65625,288.208008,0,0
3379,2024 10 19,05:24:38.148,0.665443,0.629947,0.1287,0.379194,-0.570818,0.121097,-0.63332,32.775879,-97.65625,288.208008,0,0
3380,2024 10 19,05:24:38.157,0.65564,0.637708,0.106496,0.39003,-0.587909,0.203131,-0.585467,8.422852,-111.51123,296.75293,0,0
3381,2024 10 19,05:24:38.165,0.646213,0.644007,0.081959,0.401181,-0.614277,0.237312,-0.54445,-15.74707,-120.239258,314.27002,0,0
3382,2024 10 19,05:24:38.173,0.63685,0.648964,0.054864,0.412623,-0.713889,0.232429,-0.444838,-37.231445,-131.103516,333.557129,0,0
3383,2024 10 19,05:24:38.182,0.627462,0.6526,0.025377,0.423981,-0.780786,0.230476,-0.367199,-56.82373,-144.165039,348.327637,0,0
3384,2024 10 19,05:24:38.190,0.617979,0.655135,-0.006384,0.43458,-0.85696,0.212409,-0.296884,-73.974609,-161.437988,358.764648,0,0
3385,2024 10 19,05:24:38.198,0.617979,0.655135,-0.006384,0.43458,-0.85696,0.212409,-0.296884,-73.974609,-161.437988,358.764648,0,0
3386,2024 10 19,05:24:38.207,0.608311,0.656714,-0.04023,0.443921,-0.970244,0.229499,-0.248543,-88.439941,-182.250977,365.478516,0,0
3387,2024 10 19,05:24:38.215,0.598263,0.657555,-0.07595,0.45159,-1.153844,0.286142,-0.132817,-99.853516,-203.857422,368.713379,0,0
3388,2024 10 19,05:24:38.223,0.587655,0.657709,-0.112824,0.457549,-1.344279,0.353038,-0.005371,-106.201172,-221.008301,367.370605,0,0
3389,2024 10 19,05:24:38.232,0.576197,0.657225,-0.150082,0.46209,-1.538621,0.396496,0.136723,-105.712891,-229.797363,365.234375,0,0
3390,2024 10 19,05:24:38.240,0.563671,0.655995,-0.186936,0.465833,-1.691458,0.4214,0.231452,-100.280762,-230.224609,363.769531,0,0
3391,2024 10 19,05:24:38.248,0.563671,0.655995,-0.186936,0.465833,-1.691458,0.4214,0.231452,-100.280762,-230.224609,363.769531,0,0
3392,2024 10 19,05:24:38.257,0.549815,0.654047,-0.223006,0.469249,-1.807184,0.44142,0.328135,-89.96582,-226.318359,364.929199,0,0
3393,2024 10 19,05:24:38.265,0.534364,0.651499,-0.258111,0.472634,-1.88873,0.492691,0.424818,-75.500488,-222.229004,367.675781,0,0
3394,2024 10 19,05:24:38.273,0.517111,0.648607,-0.291874,0.476144,-2.004456,0.50734,0.466323,-55.114746,-216.918945,368.530273,0,0
3395,2024 10 19,05:24:38.282,0.497908,0.645794,-0.324031,0.479626,-2.159734,0.480972,0.500992,-30.883789,-216.552734,366.577148,0,0
3396,2024 10 19,05:24:38.290,0.476666,0.643144,-0.354538,0.483174,-2.323801,0.457533,0.482925,-5.67627,-215.087891,366.699219,0,0
3397,2024 10 19,05:24:38.298,0.476666,0.643144,-0.354538,0.483174,-2.323801,0.457533,0.482925,-5.67627,-215.087891,366.699219,0,0
3398,2024 10 19,05:24:38.307,0.453289,0.640535,-0.383464,0.487031,-2.518143,0.345714,0.447279,20.324707,-213.623047,369.689941,0,0
3399,2024 10 19,05:24:38.315,0.427882,0.637741,-0.410819,0.491356,-2.700278,0.106937,0.410169,44.189453,-209.228516,374.572754,0,0
3400,2024 10 19,05:24:38.323,0.400893,0.634401,-0.436565,0.496217,-2.861904,-0.178716,0.34962,63.537598,-201.782227,378.356934,0,0
3401,2024 10 19,05:24:38.332,0.372953,0.630475,-0.460475,0.501368,-2.899991,-0.625507,0.297372,78.308105,-192.565918,375.366211,0,0
3402,2024 10 19,05:24:38.340,0.344889,0.626248,-0.482451,0.50607,-2.864345,-1.309122,0.192877,85.632324,-188.598633,363.220215,0,0
3403,2024 10 19,05:24:38.348,0.344889,0.626248,-0.482451,0.50607,-2.864345,-1.309122,0.192877,85.632324,-188.598633,363.220215,0,0
3404,2024 10 19,05:24:38.357,0.317442,0.622443,-0.502372,0.50933,-2.923429,-2.153874,0.180181,85.998535,-190.185547,337.646484,0,0
3405,2024 10 19,05:24:38.365,0.292513,0.619454,-0.519545,0.510672,-2.766686,-2.930753,0.231452,74.34082,-181.70166,291.687012,0,0
3406,2024 10 19,05:24:38.373,0.271608,0.617935,-0.53357,0.509597,-2.21247,-3.400983,0.441908,54.321289,-175.78125,229.187012,0,0
3407,2024 10 19,05:24:38.382,0.254215,0.61921,-0.544879,0.505035,-1.585009,-3.555773,0.999054,34.057617,-194.274902,162.780762,0,0
3408,2024 10 19,05:24:38.390,0.238851,0.624227,-0.553846,0.496532,-1.357952,-3.676382,1.70513,21.54541,-228.69873,100.952148,0,0
3409,2024 10 19,05:24:38.398,0.238851,0.624227,-0.553846,0.496532,-1.357952,-3.676382,1.70513,21.54541,-228.69873,100.952148,0,0
3410,2024 10 19,05:24:38.407,0.22464,0.632241,-0.560536,0.485393,-2.061098,-4.258431,2.229072,20.202637,-248.840332,58.532715,0,0
3411,2024 10 19,05:24:38.415,0.214449,0.639237,-0.564985,0.475583,-2.901944,-4.888333,2.379467,6.225586,-176.208496,39.001465,0,0
3412,2024 10 19,05:24:38.423,0.214839,0.639798,-0.566778,0.472509,-2.62508,-4.86343,2.188543,-34.118652,2.929688,21.66748,0,0
3413,2024 10 19,05:24:38.432,0.226225,0.634771,-0.565925,0.474992,-1.565966,-4.110477,1.322306,-74.584961,126.159668,-13.73291,0,0
3414,2024 10 19,05:24:38.440,0.244837,0.637463,-0.56768,0.45982,-11.106296,1.491745,16.0,-368.103027,-139.770508,-219.787598,0,0
3415,2024 10 19,05:24:38.448,0.244837,0.637463,-0.56768,0.45982,-11.106296,1.491745,16.0,-368.103027,-139.770508,-219.787598,0,0
3416,2024 10 19,05:24:38.457,0.300417,0.62268,-0.546009,0.473171,-0.698751,1.921934,-3.564562,-550.720215,682.739258,-331.848145,1,0
3417,2024 10 19,05:24:38.465,0.333929,0.621045,-0.528537,0.472697,-0.17188,2.009339,-1.44145,4.02832,74.09668,-291.564941,0,0
3418,2024 10 19,05:24:38.473,0.348929,0.632608,-0.511429,0.465292,-1.649464,-0.104495,0.648457,-27.34375,177.67334,-318.664551,0,0
3419,2024 10 19,05:24:38.482,0.366724,0.640927,-0.487324,0.466092,-1.589892,-0.721213,1.494186,88.562012,65.856934,-303.649902,0,0
3420,2024 10 19,05:24:38.490,0.37838,0.649414,-0.465902,0.466933,-1.592822,-0.540056,0.335948,35.217285,150.32959,-240.539551,0,0
3421,2024 10 19,05:24:38.498,0.37838,0.649414,-0.465902,0.466933,-1.592822,-0.540056,0.335948,35.217285,150.32959,-240.539551,0,0
3422,2024 10 19,05:24:38.507,0.391111,0.651189,-0.450717,0.468871,-1.59331,-0.588885,0.718284,-10.070801,135.986328,-161.92627,0,0
3423,2024 10 19,05:24:38.515,0.404599,0.647639,-0.437385,0.474929,-1.157262,0.034181,-0.724143,4.943848,197.814941,-110.900879,0,0
3424,2024 10 19,05:24:38.523,0.409372,0.64646,-0.425352,0.483301,-1.205603,-0.28663,-0.30665,80.13916,133.178711,-59.326172,0,0
3425,2024 10 19,05:24:38.532,0.411151,0.644876,-0.414639,0.493116,-1.137242,-0.379406,0.230964,84.106445,151.123047,-28.503418,0,0
3426,2024 10 19,05:24:38.540,0.41471,0.640636,-0.40492,0.503628,-0.89407,-0.156743,-0.210456,49.987793,157.836914,-20.080566,0,0
3427,2024 10 19,05:24:38.548,0.416969,0.637393,-0.397164,0.511984,-1.081088,0.001953,-0.13477,54.870605,120.727539,-13.061523,0,0
3428,2024 10 19,05:24:38.557,0.416969,0.637393,-0.397164,0.511984,-1.081088,0.001953,-0.13477,54.870605,120.727539,-13.061523,0,0
3429,2024 10 19,05:24:38.565,0.417503,0.634651,-0.389646,0.520658,-0.844264,-0.193854,0.205573,67.993164,115.783691,-2.441406,0,0
3430,2024 10 19,05:24:38.573,0.418167,0.632185,-0.383744,0.527465,-0.735374,-0.110355,0.194342,40.95459,83.618164,-4.272461,0,0
3431,2024 10 19,05:24:38.582,0.418703,0.63075,-0.379943,0.531494,-0.990265,-0.044435,0.030274,29.846191,51.086426,-4.760742,0,0
3432,2024 10 19,05:24:38.590,0.418654,0.629822,-0.376713,0.534921,-0.978545,-0.066897,0.028809,28.320313,43.395996,-2.624512,0,0
3433,2024 10 19,05:24:38.598,0.418832,0.629099,-0.374184,0.537402,-0.892117,-0.082522,0.118656,18.371582,30.578613,-5.493164,0,0
3434,2024 10 19,05:24:38.607,0.418832,0.629099,-0.374184,0.537402,-0.892117,-0.082522,0.118656,18.371582,30.578613,-5.493164,0,0
3435,2024 10 19,05:24:38.615,0.419108,0.628953,-0.372529,0.538507,-0.995148,-0.061037,0.021485,12.268066,13.183594,-8.239746,0,0
3436,2024 10 19,05:24:38.623,0.41947,0.629101,-0.37117,0.538989,-1.066439,-0.046388,-0.015625,6.713867,10.498047,-11.779785,0,0
3437,2024 10 19,05:24:38.632,0.420258,0.629113,-0.36972,0.539358,-1.125034,-0.074709,-0.076662,4.943848,13.73291,-14.892578,0,0
3438,2024 10 19,05:24:38.640,0.421525,0.628791,-0.368053,0.539885,-1.093783,-0.033692,-0.037599,0.732422,20.996094,-16.845703,0,0
3439,2024 10 19,05:24:38.648,0.422956,0.628241,-0.366111,0.540726,-1.053743,-0.039064,-0.003906,2.319336,25.57373,-17.211914,0,0
3440,2024 10 19,05:24:38.657,0.422956,0.628241,-0.366111,0.540726,-1.053743,-0.039064,-0.003906,2.319336,25.57373,-17.211914,0,0
3441,2024 10 19,05:24:38.665,0.424358,0.627636,-0.363998,0.541755,-1.046419,-0.039064,0.030274,5.92041,27.526855,-16.723633,0,0
3442,2024 10 19,05:24:38.673,0.425715,0.626976,-0.361584,0.543069,-1.018586,-0.080569,0.038087,8.178711,31.37207,-17.700195,0,0
3443,2024 10 19,05:24:38.682,0.427306,0.626275,-0.359207,0.544205,-0.923368,-0.057131,0.07178,4.089355,28.869629,-18.981934,0,0
3444,2024 10 19,05:24:38.690,0.428657,0.62593,-0.357234,0.544838,-0.952666,-0.072268,0.078616,3.112793,18.920898,-18.554688,0,0
3445,2024 10 19,05:24:38.698,0.429913,0.625768,-0.355493,0.545174,-0.978057,-0.066408,0.04883,2.685547,16.540527,-18.615723,0,0
3446,2024 10 19,05:24:38.707,0.429913,0.625768,-0.355493,0.545174,-0.978057,-0.066408,0.04883,2.685547,16.540527,-18.615723,0,0
3447,2024 10 19,05:24:38.715,0.431141,0.625596,-0.353794,0.545506,-0.991729,-0.060549,0.062502,2.380371,16.113281,-17.63916,0,0
3448,2024 10 19,05:24:38.723,0.432318,0.62545,-0.35209,0.545845,-1.012726,-0.069338,0.077151,2.685547,15.991211,-17.822266,0,0
3449,2024 10 19,05:24:38.732,0.433446,0.625296,-0.350281,0.54629,-1.006378,-0.055666,0.077151,4.943848,17.883301,-17.883301,0,0
3450,2024 10 19,05:24:38.740,0.434562,0.625063,-0.348288,0.546944,-0.979522,-0.062014,0.096683,6.469727,20.141602,-17.51709,0,0
3451,2024 10 19,05:24:38.748,0.435584,0.624895,-0.346223,0.547633,-0.979034,-0.098636,0.134281,7.263184,19.104004,-17.822266,0,0
3452,2024 10 19,05:24:38.757,0.435584,0.624895,-0.346223,0.547633,-0.979034,-0.098636,0.134281,7.263184,19.104004,-17.822266,0,0
3453,2024 10 19,05:24:38.765,0.436479,0.624874,-0.344188,0.548228,-0.986847,-0.083987,0.084964,8.605957,16.784668,-17.578125,0,0
3454,2024 10 19,05:24:38.773,0.437354,0.624979,-0.342283,0.548603,-0.991241,-0.094729,0.107425,9.155273,14.343262,-18.066406,0,0
3455,2024 10 19,05:24:38.782,0.438248,0.625156,-0.340393,0.548864,-1.029328,-0.113773,0.056154,7.568359,12.390137,-19.226074,0,0
3456,2024 10 19,05:24:38.790,0.439225,0.625409,-0.338585,0.548913,-1.040559,-0.094241,0.120609,6.835938,10.620117,-20.568848,0,0
3457,2024 10 19,05:24:38.798,0.440274,0.625707,-0.336652,0.548921,-1.09476,-0.096194,0.04004,6.591797,12.084961,-22.277832,0,0
3458,2024 10 19,05:24:38.807,0.440274,0.625707,-0.336652,0.548921,-1.09476,-0.096194,0.04004,6.591797,12.084961,-22.277832,0,0
3459,2024 10 19,05:24:38.815,0.441553,0.625887,-0.334507,0.549001,-1.05472,-0.10889,0.071291,4.699707,15.686035,-25.024414,0,0
3460,2024 10 19,05:24:38.823,0.443071,0.626052,-0.332304,0.548927,-1.076693,-0.095218,0.144536,4.02832,13.427734,-27.954102,0,0
3461,2024 10 19,05:24:38.832,0.444856,0.62644,-0.329942,0.548466,-1.239784,-0.086428,0.090823,3.051758,12.634277,-34.118652,0,0
3462,2024 10 19,05:24:38.840,0.447342,0.626925,-0.327291,0.547477,-1.262734,-0.108402,0.111332,0.061035,13.73291,-44.98291,0,0
3463,2024 10 19,05:24:38.848,0.45056,0.627437,-0.323992,0.546212,-1.267128,-0.089358,0.134281,-4.760742,16.052246,-55.664063,0,0
3464,2024 10 19,05:24:38.857,0.45056,0.627437,-0.323992,0.546212,-1.267128,-0.089358,0.134281,-4.760742,16.052246,-55.664063,0,0
3465,2024 10 19,05:24:38.865,0.4545,0.628277,-0.32032,0.544144,-1.30668,-0.073244,0.130863,-10.925293,11.535645,-68.969727,0,0
3466,2024 10 19,05:24:38.873,0.459167,0.62924,-0.316035,0.541613,-1.351604,-0.112308,0.06299,-13.061523,15.686035,-80.993652,0,0
3467,2024 10 19,05:24:38.882,0.464863,0.630199,-0.31114,0.538465,-1.422895,-0.075198,0.092288,-18.127441,17.39502,-95.88623,0,0
3468,2024 10 19,05:24:38.890,0.471492,0.63124,-0.305442,0.534731,-1.458052,-0.097171,0.118168,-21.179199,21.911621,-111.26709,0,0
3469,2024 10 19,05:24:38.898,0.47904,0.632186,-0.298643,0.530729,-1.435591,-0.069826,0.106449,-21.42334,29.602051,-125.793457,0,0
3470,2024 10 19,05:24:38.907,0.47904,0.632186,-0.298643,0.530729,-1.435591,-0.069826,0.106449,-21.42334,29.602051,-125.793457,0,0
3471,2024 10 19,05:24:38.915,0.486999,0.633411,-0.290593,0.526477,-1.367229,-0.024903,0.186529,-13.977051,33.26416,-139.526367,0,0
3472,2024 10 19,05:24:38.923,0.494724,0.635167,-0.281131,0.52228,-1.333537,-0.006348,0.250984,1.403809,37.536621,-148.620605,0,0
3473,2024 10 19,05:24:38.932,0.502129,0.637875,-0.270454,0.51753,-1.506394,0.06592,0.299814,12.756348,30.639648,-164.978027,0,0
3474,2024 10 19,05:24:38.940,0.50964,0.641367,-0.258073,0.512166,-1.651418,0.036622,0.34669,25.20752,35.400391,-185.546875,0,0
3475,2024 10 19,05:24:38.948,0.518006,0.645051,-0.243638,0.506181,-1.960997,0.001465,0.076663,29.052734,44.311523,-211.791992,0,0
3476,2024 10 19,05:24:38.957,0.518006,0.645051,-0.243638,0.506181,-1.960997,0.001465,0.076662,29.052734,44.311523,-211.791992,0,0
3477,2024 10 19,05:24:38.965,0.527764,0.648576,-0.226926,0.499318,-2.248604,-0.077151,-0.111332,24.902344,60.72998,-243.652344,0,0
3478,2024 10 19,05:24:38.973,0.539773,0.650898,-0.20742,0.491888,-2.490799,-0.112308,-0.370617,14.404297,90.454102,-279.11377,0,0
3479,2024 10 19,05:24:38.982,0.55407,0.65155,-0.184657,0.48414,-2.639729,-0.048341,-0.440443,2.685547,124.572754,-316.162109,0,0
3480,2024 10 19,05:24:38.990,0.570629,0.650418,-0.158545,0.475608,-2.803797,-0.008301,-0.354991,-6.347656,154.23584,-356.933594,0,0
3481,2024 10 19,05:24:38.998,0.589151,0.647426,-0.128605,0.466049,-3.099704,-0.032716,-0.315439,-18.188477,183.71582,-402.34375,0,0
3482,2024 10 19,05:24:39.007,0.609522,0.642196,-0.094756,0.45507,-3.52208,-0.233894,-0.087405,-23.803711,219.238281,-449.401855,0,0
3483,2024 10 19,05:24:39.015,0.609522,0.642196,-0.094756,0.45507,-3.52208,-0.233894,-0.087405,-23.803711,219.238281,-449.401855,0,0
3484,2024 10 19,05:24:39.023,0.630871,0.634142,-0.056591,0.443468,-3.737907,-0.40968,-0.02588,-27.893066,257.141113,-485.900879,0,0
3485,2024 10 19,05:24:39.032,0.651798,0.62505,-0.016278,0.429192,-3.631947,-0.458998,-0.353038,-20.751953,240.356445,-518.493652,0,0
3486,2024 10 19,05:24:39.040,0.671828,0.61495,0.024519,0.412168,-3.393658,-0.007324,-0.402356,-28.808594,247.558594,-535.461426,0,0
3487,2024 10 19,05:24:39.048,0.690954,0.60304,0.065367,0.393259,-2.800867,0.370617,-0.793481,-33.447266,230.46875,-545.043945,0,1
3488,2024 10 19,05:24:39.057,0.708872,0.590528,0.10373,0.371507,-2.771081,0.732933,-0.771508,-37.231445,190.307617,-542.724609,0,0
3489,2024 10 19,05:24:39.065,0.708872,0.590528,0.10373,0.371507,-2.771081,0.732933,-0.771508,-37.231445,190.307617,-542.724609,0,0
3490,2024 10 19,05:24:39.073,0.725746,0.577186,0.138748,0.347705,-2.243232,0.833522,-1.147008,-41.748047,150.512695,-524.780273,0,0
3491,2024 10 19,05:24:39.082,0.741162,0.5645,0.168592,0.321861,-1.498093,1.238319,-1.033235,-64.147949,99.731445,-498.657227,0,0
3492,2024 10 19,05:24:39.090,0.755512,0.550936,0.191955,0.298033,-0.381848,1.321329,-2.01178,-90.026855,53.833008,-414.245605,0,0
3493,2024 10 19,05:24:39.098,0.766454,0.541145,0.204834,0.278842,2.003479,1.195349,-0.143071,-54.626465,-9.82666,-257.324219,0,0
3494,2024 10 19,05:24:39.107,0.770672,0.535925,0.205697,0.276654,0.489761,2.520097,-0.387707,-49.133301,-1.342773,31.738281,0,0
3495,2024 10 19,05:24:39.115,0.770672,0.535925,0.205697,0.276654,0.489761,2.520097,-0.387707,-49.133301,-1.342773,31.738281,0,0
3496,2024 10 19,05:24:39.123,0.764634,0.541535,0.195759,0.289401,-0.67922,1.524461,0.050783,30.883789,-12.268066,251.708984,0,0
3497,2024 10 19,05:24:39.132,0.752217,0.550857,0.18285,0.311919,-1.063021,0.983428,-0.422864,83.068848,32.348633,353.942871,0,0
3498,2024 10 19,05:24:39.140,0.736963,0.562847,0.168509,0.334205,-1.088412,0.566912,-0.646016,104.675293,1.586914,351.745605,0,0
3499,2024 10 19,05:24:39.148,0.721946,0.575158,0.153951,0.352543,-0.612812,0.350108,-0.872097,106.079102,-32.165527,314.941406,0,0
3500,2024 10 19,05:24:39.157,0.708424,0.587759,0.137643,0.36569,-0.417005,0.194342,-0.837428,96.862793,-87.036133,283.630371,0,0
3501,2024 10 19,05:24:39.165,0.708424,0.587759,0.137643,0.36569,-0.417005,0.194342,-0.837428,96.862793,-87.036133,283.630371,0,0
3502,2024 10 19,05:24:39.173,0.696143,0.600236,0.118681,0.375521,-0.5215,0.216803,-0.713401,80.932617,-127.624512,275.817871,0,0
3503,2024 10 19,05:24:39.182,0.684282,0.611989,0.097121,0.384442,-0.688986,0.317392,-0.523453,62.927246,-146.789551,287.109375,0,0
3504,2024 10 19,05:24:39.190,0.672197,0.622589,0.073313,0.393902,-0.873562,0.382824,-0.41847,46.630859,-152.34375,307.373047,0,0
3505,2024 10 19,05:24:39.198,0.659543,0.631695,0.047803,0.404573,-0.952666,0.357433,-0.284677,31.25,-147.338867,329.345703,0,0
3506,2024 10 19,05:24:39.207,0.646271,0.639151,0.020938,0.416391,-0.955596,0.319834,-0.271493,16.601563,-142.76123,348.632813,0,0
3507,2024 10 19,05:24:39.215,0.646271,0.639151,0.020938,0.416391,-0.955596,0.319834,-0.271493,16.601563,-142.76123,348.632813,0,0
3508,2024 10 19,05:24:39.223,0.63258,0.645204,-0.007604,0.428364,-0.938994,0.269539,-0.221686,1.281738,-149.780273,362.792969,0,0
3509,2024 10 19,05:24:39.232,0.618706,0.650009,-0.037918,0.439605,-0.936552,0.254891,-0.211921,-15.319824,-164.18457,369.750977,0,0
3510,2024 10 19,05:24:39.240,0.604863,0.653899,-0.070024,0.449057,-1.006378,0.216803,-0.178228,-31.860352,-187.866211,369.07959,0,0
3511,2024 10 19,05:24:39.248,0.591141,0.657068,-0.103801,0.456113,-1.212439,0.25782,-0.069826,-47.790527,-213.317871,363.891602,0,0
3512,2024 10 19,05:24:39.257,0.577456,0.659274,-0.138514,0.461211,-1.480026,0.307138,0.081545,-60.546875,-226.074219,357.60498,0,0
3513,2024 10 19,05:24:39.265,0.577456,0.659274,-0.138514,0.461211,-1.480026,0.307138,0.081545,-60.546875,-226.074219,357.60498,0,0
3514,2024 10 19,05:24:39.273,0.563702,0.660062,-0.173182,0.465367,-1.695853,0.354991,0.247078,-69.030762,-221.801758,353.820801,0,0
3515,2024 10 19,05:24:39.282,0.5497,0.658996,-0.20714,0.46973,-1.785211,0.384777,0.325205,-73.547363,-204.528809,355.957031,0,0
3516,2024 10 19,05:24:39.290,0.535196,0.656128,-0.240382,0.474634,-1.815485,0.385266,0.349132,-75.012207,-189.27002,361.633301,0,0
3517,2024 10 19,05:24:39.298,0.519936,0.651879,-0.273135,0.479705,-1.826716,0.365246,0.362804,-74.09668,-182.128906,367.06543,0,0
3518,2024 10 19,05:24:39.307,0.50373,0.64684,-0.305429,0.484321,-1.900937,0.382824,0.379894,-69.885254,-184.020996,367.736816,0,0
3519,2024 10 19,05:24:39.315,0.50373,0.64684,-0.305429,0.484321,-1.900937,0.382824,0.379894,-69.885254,-184.020996,367.736816,0,0
3520,2024 10 19,05:24:39.323,0.486403,0.641566,-0.337025,0.488078,-2.093814,0.372082,0.399426,-61.340332,-189.758301,363.891602,0,0
3521,2024 10 19,05:24:39.332,0.46796,0.636241,-0.367378,0.491167,-2.275948,0.363292,0.477065,-48.217773,-190.673828,357.23877,0,0
3522,2024 10 19,05:24:39.340,0.448403,0.630885,-0.39609,0.493996,-2.445875,0.331065,0.512711,-30.883789,-189.086914,351.318359,0,0
3523,2024 10 19,05:24:39.348,0.427559,0.625637,-0.422889,0.496928,-2.677328,0.22071,0.597186,-8.483887,-184.631348,345.336914,0,0
3524,2024 10 19,05:24:39.357,0.405576,0.620434,-0.447292,0.500499,-2.905362,0.032716,0.598163,16.967773,-173.034668,338.806152,0,0
3525,2024 10 19,05:24:39.365,0.405576,0.620434,-0.447292,0.500499,-2.905362,0.032716,0.598163,16.967773,-173.034668,338.806152,0,0
3526,2024 10 19,05:24:39.373,0.382734,0.615004,-0.469091,0.505211,-3.06357,-0.305185,0.53029,42.785645,-155.090332,334.350586,0,0
3527,2024 10 19,05:24:39.382,0.359479,0.609022,-0.488468,0.511143,-2.921476,-0.903348,0.358898,62.133789,-135.498047,331.298828,0,0
3528,2024 10 19,05:24:39.390,0.33578,0.603079,-0.506361,0.516862,-2.671468,-1.668508,0.180181,71.044922,-139.587402,325.439453,0,0
3529,2024 10 19,05:24:39.398,0.311955,0.598282,-0.52307,0.520711,-2.478591,-2.551836,0.176275,71.350098,-156.188965,304.260254,0,0
3530,2024 10 19,05:24:39.407,0.289414,0.59575,-0.537842,0.521581,-2.187567,-3.268166,0.40968,63.720703,-177.246094,257.019043,0,0
3531,2024 10 19,05:24:39.415,0.289414,0.59575,-0.537842,0.521581,-2.187567,-3.268166,0.40968,63.720703,-177.246094,257.019043,0,0
3532,2024 10 19,05:24:39.423,0.269421,0.596775,-0.5497,0.51875,-1.679739,-3.648061,0.995148,53.527832,-199.34082,185.60791,0,0
3533,2024 10 19,05:24:39.432,0.25219,0.601822,-0.558299,0.512359,-1.268105,-3.910764,1.772027,44.799805,-224.060059,112.731934,0,0
3534,2024 10 19,05:24:39.440,0.236566,0.610233,-0.56432,0.503185,-1.759819,-4.300912,2.607013,42.114258,-246.09375,64.208984,0,0
3535,2024 10 19,05:24:39.448,0.224544,0.618118,-0.56785,0.495032,-2.740806,-4.690573,3.017182,34.851074,-182.922363,39.550781,0,0
3536,2024 10 19,05:24:39.457,0.222308,0.620116,-0.567844,0.493547,-2.633869,-4.608539,2.69979,9.521484,-10.192871,15.869141,0,0
3537,2024 10 19,05:24:39.465,0.230195,0.616544,-0.564649,0.498051,-1.433149,-3.867794,1.8399,-17.51709,117.553711,-16.601563,0,0
3538,2024 10 19,05:24:39.473,0.230195,0.616544,-0.564649,0.498051,-1.433149,-3.867794,1.8399,-17.51709,117.553711,-16.601563,0,0
3539,2024 10 19,05:24:39.482,0.245436,0.624872,-0.560159,0.485302,-2.223212,-4.872219,7.217017,-186.218262,-147.155762,-305.847168,0,0
3540,2024 10 19,05:24:39.490,0.308046,0.617503,-0.545542,0.475583,-1.718314,2.155828,-4.569963,-681.091309,498.413086,-441.711426,1,0
3541,2024 10 19,05:24:39.498,0.338265,0.622109,-0.527627,0.469219,-1.643605,0.447767,-0.479507,-68.725586,53.771973,-320.556641,0,0
3542,2024 10 19,05:24:39.507,0.36761,0.626638,-0.509079,0.461547,-1.254433,0.450697,0.249519,-128.417969,264.404297,-349.304199,0,0
3543,2024 10 19,05:24:39.515,0.385036,0.635089,-0.486302,0.460348,-2.09479,-0.742698,0.926786,58.532715,98.266602,-293.518066,0,0
3544,2024 10 19,05:24:39.523,0.385036,0.635089,-0.486302,0.460348,-2.09479,-0.742698,0.926786,58.532715,98.266602,-293.518066,0,0
3545,2024 10 19,05:24:39.532,0.398614,0.639284,-0.467793,0.46216,-1.810602,-0.884793,-0.162114,20.751953,138.916016,-192.626953,0,0
3546,2024 10 19,05:24:39.540,0.410623,0.637913,-0.454025,0.467243,-1.556688,-0.296884,0.293466,5.065918,191.223145,-111.816406,0,0
3547,2024 10 19,05:24:39.548,0.418883,0.633981,-0.440554,0.478034,-0.930204,0.001953,-0.5215,69.885254,193.29834,-59.936523,0,0
3548,2024 10 19,05:24:39.557,0.420391,0.632761,-0.428902,0.488803,-1.034211,-0.281259,0.204596,102.905273,144.042969,-29.296875,0,0
3549,2024 10 19,05:24:39.565,0.422487,0.629893,-0.418114,0.499921,-0.89407,-0.249031,-0.159673,79.711914,159.057617,-19.958496,0,0
3550,2024 10 19,05:24:39.573,0.422487,0.629893,-0.418114,0.499921,-0.89407,-0.249031,-0.159673,79.711914,159.057617,-19.958496,0,0
3551,2024 10 19,05:24:39.582,0.424663,0.62699,-0.409431,0.508833,-0.95999,-0.084964,-0.163579,60.119629,123.352051,-16.784668,0,0
3552,2024 10 19,05:24:39.590,0.425287,0.624856,-0.401979,0.516816,-0.963408,-0.171392,0.066897,67.443848,107.48291,-5.67627,0,0
3553,2024 10 19,05:24:39.598,0.425593,0.622733,-0.395814,0.523837,-0.736351,-0.156743,0.296884,51.513672,85.510254,-1.464844,0,0
3554,2024 10 19,05:24:39.607,0.426153,0.621119,-0.391454,0.528553,-0.902371,-0.054689,0.080081,33.325195,60.60791,-4.821777,0,0
3555,2024 10 19,05:24:39.615,0.426395,0.620035,-0.38817,0.532041,-0.963408,-0.074221,-0.020508,26.672363,43.029785,-2.929688,0,0
3556,2024 10 19,05:24:39.623,0.426395,0.620035,-0.38817,0.532041,-0.963408,-0.074221,-0.020508,26.672363,43.029785,-2.929688,0,0
3557,2024 10 19,05:24:39.632,0.426554,0.619352,-0.385878,0.53437,-0.902371,-0.04297,0.115726,15.075684,28.808594,-3.78418,0,0
3558,2024 10 19,05:24:39.640,0.427087,0.619026,-0.384363,0.535415,-0.956572,-0.036134,0.059572,7.93457,14.648438,-9.338379,0,0
3559,2024 10 19,05:24:39.648,0.427779,0.619372,-0.383227,0.535277,-1.062044,-0.024903,-0.001953,2.990723,2.685547,-16.662598,0,0
3560,2024 10 19,05:24:39.657,0.428851,0.619923,-0.382016,0.534647,-1.083041,-0.032228,-0.04297,-1.464844,2.746582,-22.644043,0,0
3561,2024 10 19,05:24:39.665,0.430318,0.62042,-0.380619,0.533887,-1.147496,-0.051271,-0.102054,-3.723145,5.737305,-26.184082,0,0
3562,2024 10 19,05:24:39.673,0.430318,0.62042,-0.380619,0.533887,-1.147496,-0.051271,-0.102054,-3.723145,5.737305,-26.184082,0,0
3563,2024 10 19,05:24:39.682,0.432127,0.620604,-0.378848,0.53347,-1.167516,-0.021485,-0.061037,-1.525879,15.563965,-27.282715,0,0
3564,2024 10 19,05:24:39.690,0.434025,0.620312,-0.376291,0.534079,-1.071322,-0.01709,0.004883,4.821777,30.273438,-25.756836,0,0
3565,2024 10 19,05:24:39.698,0.435716,0.619902,-0.373271,0.535296,-0.993194,-0.047365,0.055177,9.521484,32.958984,-24.475098,0,0
3566,2024 10 19,05:24:39.707,0.437157,0.61968,-0.370317,0.536429,-0.998566,-0.052736,0.070315,12.939453,28.808594,-23.376465,0,0
3567,2024 10 19,05:24:39.715,0.43836,0.619581,-0.367302,0.537633,-0.941435,-0.118656,0.062502,14.282227,28.869629,-22.399902,0,0
3568,2024 10 19,05:24:39.723,0.43836,0.619581,-0.367302,0.537633,-0.941435,-0.118656,0.062502,14.282227,28.869629,-22.399902,0,0
3569,2024 10 19,05:24:39.732,0.439549,0.619623,-0.364796,0.538319,-0.921415,-0.06592,0.060549,9.58252,18.310547,-22.094727,0,0
3570,2024 10 19,05:24:39.740,0.440374,0.620176,-0.362614,0.538483,-0.996612,-0.061037,0.077639,10.498047,10.375977,-23.132324,0,0
3571,2024 10 19,05:24:39.748,0.44118,0.620859,-0.360355,0.538553,-0.971709,-0.036134,0.130863,12.512207,9.94873,-24.475098,0,0
3572,2024 10 19,05:24:39.757,0.441637,0.621945,-0.357957,0.538524,-0.966826,-0.074709,0.096194,18.127441,4.821777,-25.32959,0,0
3573,2024 10 19,05:24:39.765,0.441893,0.623331,-0.355574,0.53829,-0.998077,-0.058596,0.104007,20.385742,1.708984,-26.000977,0,0
3574,2024 10 19,05:24:39.773,0.441893,0.623331,-0.355574,0.53829,-0.998077,-0.058596,0.104007,20.385742,1.708984,-26.000977,0,0
3575,2024 10 19,05:24:39.782,0.441914,0.624892,-0.353052,0.538123,-1.00296,-0.073733,0.122074,23.010254,1.098633,-26.062012,0,0
3576,2024 10 19,05:24:39.790,0.441859,0.626501,-0.350366,0.538052,-1.003937,-0.132817,0.059572,25.085449,2.929688,-26.367188,0,0
3577,2024 10 19,05:24:39.798,0.441983,0.627861,-0.347681,0.538107,-0.999054,-0.103519,0.067873,22.888184,6.04248,-25.20752,0,0
3578,2024 10 19,05:24:39.807,0.442208,0.628994,-0.34501,0.538318,-0.980987,-0.131352,0.069826,19.165039,9.033203,-24.658203,0,0
3579,2024 10 19,05:24:39.815,0.442643,0.62989,-0.342496,0.538519,-0.998566,-0.153813,0.072268,17.76123,9.94873,-23.31543,0,0
3580,2024 10 19,05:24:39.823,0.442643,0.62989,-0.342496,0.538519,-0.998566,-0.153813,0.072268,17.76123,9.94873,-23.31543,0,0
3581,2024 10 19,05:24:39.832,0.443261,0.630682,-0.340164,0.538561,-0.988311,-0.10889,0.067873,13.427734,8.850098,-23.742676,0,0
3582,2024 10 19,05:24:39.840,0.444011,0.631327,-0.337888,0.538621,-1.037629,-0.120121,0.067873,10.375977,10.070801,-24.658203,0,0
3583,2024 10 19,05:24:39.848,0.445116,0.631821,-0.335604,0.538558,-1.071322,-0.142094,0.041017,8.056641,12.756348,-26.367188,0,0
3584,2024 10 19,05:24:39.857,0.446562,0.632332,-0.333344,0.538164,-1.121128,-0.147465,0.016114,5.79834,11.047363,-30.395508,0,0
3585,2024 10 19,05:24:39.865,0.44858,0.632879,-0.331012,0.537281,-1.149937,-0.162114,0.064943,-3.295898,9.216309,-38.574219,0,0
3586,2024 10 19,05:24:39.873,0.451361,0.633266,-0.32848,0.53605,-1.137242,-0.115726,0.06006,-11.59668,11.230469,-46.203613,0,0
3587,2024 10 19,05:24:39.882,0.451361,0.633266,-0.32848,0.53605,-1.137242,-0.115726,0.06006,-11.59668,11.230469,-46.203613,0,0
3588,2024 10 19,05:24:39.890,0.454882,0.633786,-0.3259,0.534029,-1.230018,-0.130863,0.032716,-16.723633,6.225586,-56.45752,0,0
3589,2024 10 19,05:24:39.898,0.45919,0.634566,-0.32317,0.531067,-1.279824,-0.12598,0.078127,-20.996094,4.272461,-68.054199,0,0
3590,2024 10 19,05:24:39.907,0.464273,0.635442,-0.319874,0.527584,-1.320841,-0.083987,0.121586,-24.841309,4.943848,-80.810547,0,0
3591,2024 10 19,05:24:39.915,0.469846,0.636731,-0.315731,0.523577,-1.44731,-0.075686,0.110355,-23.071289,5.187988,-95.214844,0,0
3592,2024 10 19,05:24:39.923,0.476186,0.638198,-0.310459,0.519198,-1.444868,-0.104495,0.097659,-21.972656,11.657715,-111.38916,0,0
3593,2024 10 19,05:24:39.932,0.476186,0.638198,-0.310459,0.519198,-1.444868,-0.104495,0.097659,-21.972656,11.657715,-111.38916,0,0
3594,2024 10 19,05:24:39.940,0.483226,0.639866,-0.303985,0.514449,-1.43852,-0.038575,0.143559,-19.287109,15.563965,-126.77002,0,0
3595,2024 10 19,05:24:39.948,0.490198,0.64205,-0.296138,0.509686,-1.495651,-0.0459,0.192389,-5.310059,20.507813,-137.145996,0,0
3596,2024 10 19,05:24:39.957,0.497365,0.644949,-0.286776,0.50441,-1.835505,-0.015625,0.109867,1.342773,20.568848,-159.240723,0,0
3597,2024 10 19,05:24:39.965,0.505688,0.648006,-0.275113,0.498679,-1.99469,-0.029786,0.005371,5.67627,38.391113,-188.049316,0,0
3598,2024 10 19,05:24:39.973,0.515526,0.651144,-0.260903,0.492112,-2.199286,0.018067,-0.062014,6.591797,48.828125,-222.961426,0,0
3599,2024 10 19,05:24:39.982,0.515526,0.651144,-0.260903,0.492112,-2.199286,0.018067,-0.062014,6.591797,48.828125,-222.961426,0,0
3600,2024 10 19,05:24:39.990,0.527194,0.654397,-0.243894,0.484094,-2.398999,0.107425,0.015137,2.502441,61.279297,-266.662598,0,0
3601,2024 10 19,05:24:39.998,0.541018,0.657346,-0.223343,0.474672,-2.742759,0.249031,0.035157,1.342773,80.810547,-315.307617,0,0
3602,2024 10 19,05:24:40.007,0.556875,0.659495,-0.198092,0.464453,-3.03476,0.368664,-0.006348,4.394531,119.628906,-368.896484,0,0
3603,2024 10 19,05:24:40.015,0.574541,0.66111,-0.16795,0.452358,-3.366314,0.324717,0.066408,14.404297,137.329102,-429.260254,0,0
3604,2024 10 19,05:24:40.023,0.593885,0.661538,-0.132641,0.438262,-3.579211,0.197272,-0.013672,11.291504,171.569824,-489.379883,0,0
3605,2024 10 19,05:24:40.032,0.593885,0.661538,-0.132641,0.438262,-3.579211,0.197272,-0.013672,11.291504,171.569824,-489.379883,0,0
3606,2024 10 19,05:24:40.040,0.614164,0.66035,-0.092567,0.422105,-3.672475,-0.244636,-0.104495,14.953613,192.993164,-539.245605,0,0
3607,2024 10 19,05:24:40.048,0.634076,0.658346,-0.050129,0.40251,-4.027955,-0.249519,-0.261727,17.76123,183.532715,-576.11084,0,0
3608,2024 10 19,05:24:40.057,0.653354,0.653663,-0.00593,0.381862,-3.741813,-0.055177,-0.452162,7.568359,205.688477,-591.674805,0,0
3609,2024 10 19,05:24:40.065,0.671989,0.645857,0.038641,0.360286,-3.337016,0.324717,-0.549333,-13.061523,210.693359,-592.712402,0,1
3610,2024 10 19,05:24:40.073,0.689458,0.635654,0.081826,0.337485,-3.0665,0.755882,-0.908231,-28.564453,197.143555,-589.172363,0,0
3611,2024 10 19,05:24:40.082,0.689458,0.635654,0.081826,0.337485,-3.0665,0.755882,-0.908231,-28.564453,197.143555,-589.172363,0,0
3612,2024 10 19,05:24:40.090,0.705549,0.624036,0.121831,0.312947,-2.394116,1.199744,-1.127964,-35.522461,162.841797,-565.612793,0,0
3613,2024 10 19,05:24:40.098,0.718655,0.614086,0.155252,0.286932,-2.397046,0.790063,-1.343303,-25.756836,79.956055,-513.793945,0,0
3614,2024 10 19,05:24:40.107,0.732212,0.60085,0.181814,0.264176,1.019562,1.549852,-2.829188,-107.788086,102.355957,-418.640137,0,0
3615,2024 10 19,05:24:40.115,0.740866,0.588218,0.200093,0.255106,3.233985,1.368206,-1.454634,-99.975586,63.110352,-187.438965,0,0
3616,2024 10 19,05:24:40.123,0.750646,0.580669,0.190068,0.251453,-0.482925,1.710501,0.592792,-176.513672,-106.689453,66.650391,0,0
3617,2024 10 19,05:24:40.132,0.750646,0.580669,0.190068,0.251453,-0.482925,1.710501,0.592792,-176.513672,-106.689453,66.650391,0,0
3618,2024 10 19,05:24:40.140,0.752732,0.576857,0.173593,0.265512,-0.829615,1.961486,-0.814478,-115.722656,-47.668457,246.337891,0,0
3619,2024 10 19,05:24:40.148,0.749818,0.578958,0.152003,0.281914,-1.5103,1.125034,0.315928,-42.541504,-65.734863,298.950195,0,0
3620,2024 10 19,05:24:40.157,0.743811,0.581233,0.135836,0.30077,-1.235389,0.602557,-0.714866,-14.465332,-2.319336,276.306152,0,0
3621,2024 10 19,05:24:40.165,0.73711,0.585198,0.121018,0.315541,-0.857448,0.380871,-0.306162,4.943848,-33.02002,239.135742,0,0
3622,2024 10 19,05:24:40.173,0.730203,0.588738,0.108066,0.329413,-0.240242,0.413587,-0.740257,9.094238,-17.272949,229.553223,0,0
3623,2024 10 19,05:24:40.182,0.730203,0.588738,0.108066,0.329413,-0.240242,0.413587,-0.740257,9.094238,-17.272949,229.553223,0,0
3624,2024 10 19,05:24:40.190,0.722578,0.593511,0.09288,0.342053,-0.307627,0.48732,-0.457533,17.578125,-59.875488,246.520996,0,0
3625,2024 10 19,05:24:40.198,0.713919,0.598826,0.075419,0.355021,-0.467299,0.490738,-0.520035,19.165039,-67.749023,268.676758,0,0
3626,2024 10 19,05:24:40.207,0.704193,0.604429,0.055716,0.368337,-0.583514,0.476089,-0.427259,19.042969,-88.562012,290.95459,0,0
3627,2024 10 19,05:24:40.215,0.693274,0.609951,0.034017,0.382326,-0.624043,0.443861,-0.400891,17.51709,-92.773438,314.880371,0,0
3628,2024 10 19,05:24:40.223,0.68112,0.615132,0.010496,0.39696,-0.701682,0.385754,-0.356456,15.625,-105.041504,337.463379,0,0
3629,2024 10 19,05:24:40.232,0.68112,0.615132,0.010496,0.39696,-0.701682,0.385754,-0.356456,15.625,-105.041504,337.463379,0,0
3630,2024 10 19,05:24:40.240,0.667839,0.619973,-0.015013,0.411581,-0.798364,0.366222,-0.302744,11.230469,-117.248535,354.431152,0,0
3631,2024 10 19,05:24:40.248,0.653611,0.624268,-0.04214,0.425801,-0.827174,0.36671,-0.308603,6.103516,-131.835938,366.149902,0,0
3632,2024 10 19,05:24:40.257,0.63839,0.628264,-0.071013,0.438976,-0.997101,0.34376,-0.235847,2.319336,-151.855469,374.755859,0,0
3633,2024 10 19,05:24:40.265,0.622233,0.631778,-0.101109,0.451066,-1.198767,0.322275,-0.155766,-0.976563,-165.100098,379.211426,0,0
3634,2024 10 19,05:24:40.273,0.605168,0.634584,-0.131814,0.462276,-1.319865,0.324229,-0.074221,-2.746582,-171.875,382.324219,0,0
3635,2024 10 19,05:24:40.282,0.605168,0.634584,-0.131814,0.462276,-1.319865,0.324229,-0.074221,-2.746582,-171.875,382.324219,0,0
3636,2024 10 19,05:24:40.290,0.587103,0.636524,-0.162795,0.472911,-1.382366,0.326182,-0.023927,-3.112793,-174.438477,387.573242,0,0
3637,2024 10 19,05:24:40.298,0.567874,0.637565,-0.194099,0.483069,-1.482467,0.333018,0.000977,-3.295898,-178.283691,395.019531,0,0
3638,2024 10 19,05:24:40.307,0.547369,0.637902,-0.225712,0.492465,-1.643117,0.314951,0.033692,-1.708984,-185.791016,400.390625,0,0
3639,2024 10 19,05:24:40.315,0.52566,0.63755,-0.257443,0.500933,-1.81109,0.343272,0.111332,0.366211,-192.504883,403.930664,0,0
3640,2024 10 19,05:24:40.323,0.502603,0.636444,-0.289034,0.508712,-1.996155,0.377453,0.1377,4.943848,-196.533203,408.996582,0,0
3641,2024 10 19,05:24:40.332,0.478058,0.634568,-0.32018,0.516011,-2.280831,0.316416,0.162603,13.122559,-196.533203,414.306641,0,0
3642,2024 10 19,05:24:40.340,0.478058,0.634568,-0.32018,0.516011,-2.280831,0.316416,0.162603,13.122559,-196.533203,414.306641,0,0
3643,2024 10 19,05:24:40.348,0.452382,0.63162,-0.350369,0.523114,-2.552812,0.202155,0.122074,20.019531,-190.185547,416.931152,0,0
3644,2024 10 19,05:24:40.357,0.425866,0.627493,-0.379669,0.52985,-2.781335,-0.001953,0.019044,22.521973,-184.753418,420.349121,0,0
3645,2024 10 19,05:24:40.365,0.398638,0.621923,-0.408417,0.536186,-3.01767,-0.361827,-0.096683,20.874023,-179.199219,428.039551,0,0
3646,2024 10 19,05:24:40.373,0.371327,0.614679,-0.436666,0.541856,-3.052828,-1.039094,-0.198248,12.207031,-171.936035,431.335449,0,0
3647,2024 10 19,05:24:40.382,0.344571,0.606908,-0.464311,0.545297,-3.04355,-1.840876,-0.241218,-1.77002,-184.875488,416.992188,0,0
3648,2024 10 19,05:24:40.390,0.344571,0.606908,-0.464311,0.545297,-3.04355,-1.840876,-0.241218,-1.77002,-184.875488,416.992188,0,0
3649,2024 10 19,05:24:40.398,0.318952,0.600123,-0.490717,0.54527,-3.035249,-2.443434,-0.055177,-15.014648,-205.688477,382.019043,0,0
3650,2024 10 19,05:24:40.407,0.295137,0.595549,-0.514216,0.542032,-2.98349,-2.964934,0.335948,-14.648438,-220.031738,324.829102,0,0
3651,2024 10 19,05:24:40.415,0.273981,0.594196,-0.533085,0.536363,-2.526444,-3.355083,0.924833,-4.699707,-226.928711,248.10791,0,0
3652,2024 10 19,05:24:40.423,0.255211,0.596954,-0.546993,0.528499,-1.852107,-3.530869,1.649953,10.986328,-243.408203,170.10498,0,0
3653,2024 10 19,05:24:40.432,0.237204,0.603844,-0.556595,0.51895,-1.875057,-3.89465,2.387768,34.973145,-264.343262,110.229492,0,0
3654,2024 10 19,05:24:40.440,0.237204,0.603844,-0.556595,0.51895,-1.875057,-3.89465,2.387768,34.973145,-264.343262,110.229492,0,0
3655,2024 10 19,05:24:40.448,0.220847,0.612393,-0.56193,0.51033,-2.640706,-4.450331,2.846766,59.387207,-232.48291,69.580078,0,0
3656,2024 10 19,05:24:40.457,0.210511,0.617971,-0.562528,0.507305,-2.978606,-5.177892,2.687582,69.702148,-102.416992,40.527344,0,0
3657,2024 10 19,05:24:40.465,0.210714,0.61758,-0.558973,0.511608,-1.891171,-5.009919,2.148503,44.98291,62.62207,5.92041,0,0
3658,2024 10 19,05:24:40.473,0.216272,0.616886,-0.553191,0.516389,-1.236854,-3.906857,1.402875,27.648926,60.48584,-46.081543,0,0
3659,2024 10 19,05:24:40.482,0.228856,0.63136,-0.546246,0.500624,-2.018128,-1.896542,8.001709,-165.039063,-192.016602,-360.656738,0,0
3660,2024 10 19,05:24:40.490,0.228856,0.63136,-0.546246,0.500624,-2.018128,-1.896542,8.001709,-165.039063,-192.016602,-360.656738,0,0
3661,2024 10 19,05:24:40.498,0.287509,0.621969,-0.527194,0.502551,-1.264687,4.049439,-2.655354,-513.000488,533.935547,-428.344727,1,0
3662,2024 10 19,05:24:40.507,0.309944,0.630493,-0.505088,0.501298,-1.57036,0.302744,-1.040071,2.990723,1.403809,-334.594727,0,0
3663,2024 10 19,05:24:40.515,0.332911,0.641601,-0.483484,0.493722,-2.030824,-1.11185,0.893582,-10.375977,196.350098,-379.272461,0,0
3664,2024 10 19,05:24:40.523,0.353316,0.648849,-0.456015,0.496198,-1.675832,-0.996124,0.128422,78.369141,148.4375,-322.631836,0,0
3665,2024 10 19,05:24:40.532,0.368287,0.652949,-0.435734,0.498154,-2.095279,-1.050813,0.380871,9.70459,172.668457,-216.85791,0,0
3666,2024 10 19,05:24:40.540,0.368287,0.652949,-0.435734,0.498154,-2.095279,-1.050813,0.380871,9.70459,172.668457,-216.85791,0,0
3667,2024 10 19,05:24:40.548,0.383116,0.649385,-0.419312,0.505666,-1.213416,-0.124027,-0.630879,25.20752,210.266113,-133.239746,0,0
3668,2024 10 19,05:24:40.557,0.387468,0.648655,-0.405788,0.51425,-1.26664,-0.248054,0.020997,98.815918,135.986328,-69.274902,0,0
3669,2024 10 19,05:24:40.565,0.38774,0.64728,-0.393531,0.525185,-0.952666,-0.390149,0.17481,112.487793,149.658203,-29.602051,0,0
3670,2024 10 19,05:24:40.573,0.389207,0.64431,-0.383503,0.535078,-0.846706,-0.238777,-0.24366,70.800781,133.361816,-24.169922,0,0
3671,2024 10 19,05:24:40.582,0.390085,0.642026,-0.376252,0.542283,-1.156285,-0.098148,-0.22364,61.523438,97.412109,-12.084961,0,0
3672,2024 10 19,05:24:40.590,0.390085,0.642026,-0.376252,0.542283,-1.156285,-0.098148,-0.22364,61.523438,97.412109,-12.084961,0,0
3673,2024 10 19,05:24:40.598,0.389505,0.639609,-0.369495,0.550145,-0.905789,-0.166997,0.255379,69.274902,103.027344,1.89209,0,0
3674,2024 10 19,05:24:40.607,0.389625,0.63691,-0.363984,0.556824,-0.729514,-0.109867,0.043458,41.687012,79.589844,-0.854492,0,0
3675,2024 10 19,05:24:40.615,0.389257,0.635903,-0.360695,0.560362,-0.970733,-0.159185,0.097659,33.996582,37.109375,-0.671387,0,0
3676,2024 10 19,05:24:40.623,0.388883,0.634986,-0.358081,0.56333,-0.96292,-0.088382,0.105472,28.076172,38.269043,0.671387,0,0
3677,2024 10 19,05:24:40.632,0.388977,0.634164,-0.356,0.565507,-0.91702,-0.037111,0.012696,14.770508,24.536133,-4.272461,0,0
3678,2024 10 19,05:24:40.640,0.388977,0.634164,-0.356,0.565507,-0.91702,-0.037111,0.012696,14.770508,24.536133,-4.272461,0,0
3679,2024 10 19,05:24:40.648,0.388999,0.634318,-0.354753,0.566101,-1.009308,-0.045412,0.123539,10.253906,5.249023,-8.483887,0,0
3680,2024 10 19,05:24:40.657,0.389473,0.634667,-0.353572,0.566124,-1.075716,0.006836,-0.015137,6.164551,4.089355,-14.953613,0,0
3681,2024 10 19,05:24:40.665,0.390266,0.635189,-0.352226,0.56583,-1.113315,-0.012207,-0.08594,0.854492,3.540039,-20.324707,0,0
3682,2024 10 19,05:24:40.673,0.391493,0.635482,-0.350771,0.565558,-1.076693,-0.028809,-0.033692,-1.098633,9.094238,-21.911621,0,0
3683,2024 10 19,05:24:40.682,0.392985,0.635454,-0.349139,0.565564,-1.054231,-0.049806,-0.053713,-0.793457,14.099121,-21.911621,0,0
3684,2024 10 19,05:24:40.690,0.392985,0.635454,-0.349139,0.565564,-1.054231,-0.049806,-0.053713,-0.793457,14.099121,-21.911621,0,0
3685,2024 10 19,05:24:40.698,0.394546,0.635362,-0.347393,0.565656,-1.05179,-0.063478,-0.010743,0.488281,15.991211,-22.644043,0,0
3686,2024 10 19,05:24:40.707,0.396388,0.635037,-0.345407,0.565949,-0.985382,-0.038087,0.058596,-0.305176,21.484375,-24.414063,0,0
3687,2024 10 19,05:24:40.715,0.39817,0.634725,-0.343272,0.566348,-0.925321,-0.067385,0.052248,1.342773,20.324707,-24.414063,0,0
3688,2024 10 19,05:24:40.723,0.399792,0.634714,-0.341447,0.56632,-0.910672,-0.059572,0.087893,-0.854492,11.474609,-24.169922,0,0
3689,2024 10 19,05:24:40.732,0.401271,0.635017,-0.339984,0.565814,-0.946806,-0.068361,0.092776,-1.708984,5.065918,-24.169922,0,0
3690,2024 10 19,05:24:40.740,0.401271,0.635017,-0.339984,0.565814,-0.946806,-0.068361,0.092776,-1.708984,5.065918,-24.169922,0,0
3691,2024 10 19,05:24:40.748,0.402648,0.635455,-0.338576,0.565189,-0.963408,-0.06592,0.054201,-1.525879,2.685547,-24.353027,0,0
3692,2024 10 19,05:24:40.757,0.403798,0.636127,-0.33726,0.564398,-0.971709,-0.075198,0.104495,0.488281,-0.610352,-23.376465,0,0
3693,2024 10 19,05:24:40.765,0.404826,0.63675,-0.335878,0.563784,-0.979034,-0.069826,0.084475,2.868652,2.075195,-21.66748,0,0
3694,2024 10 19,05:24:40.773,0.405592,0.637328,-0.33435,0.563488,-0.999542,-0.101077,0.043947,6.469727,3.601074,-19.65332,0,0
3695,2024 10 19,05:24:40.782,0.406356,0.637734,-0.332812,0.563388,-1.009308,-0.081057,0.079592,5.67627,7.263184,-18.127441,0,0
3696,2024 10 19,05:24:40.790,0.407079,0.637902,-0.331163,0.563648,-1.007355,-0.10889,0.028809,7.141113,11.84082,-16.052246,0,0
3697,2024 10 19,05:24:40.798,0.407079,0.637902,-0.331163,0.563648,-1.007355,-0.10889,0.028809,7.141113,11.84082,-16.052246,0,0
3698,2024 10 19,05:24:40.807,0.407966,0.637791,-0.32958,0.564059,-0.983428,-0.10596,0.068361,3.662109,14.526367,-15.075684,0,0
3699,2024 10 19,05:24:40.815,0.408758,0.637625,-0.328029,0.564578,-1.028352,-0.095706,0.054201,5.371094,14.404297,-13.427734,0,0
3700,2024 10 19,05:24:40.823,0.409658,0.637393,-0.326532,0.565055,-1.016144,-0.119633,0.066897,3.90625,15.075684,-14.282227,0,0
3701,2024 10 19,05:24:40.832,0.410698,0.637131,-0.32496,0.565501,-1.048372,-0.094729,0.063967,2.502441,15.686035,-16.174316,0,0
3702,2024 10 19,05:24:40.840,0.412079,0.636911,-0.323287,0.565704,-1.104038,-0.051759,0.049318,0.671387,15.625,-20.751953,0,0
3703,2024 10 19,05:24:40.848,0.412079,0.636911,-0.323287,0.565704,-1.104038,-0.051759,0.049318,0.671387,15.625,-20.751953,0,0
3704,2024 10 19,05:24:40.857,0.413679,0.636846,-0.321373,0.5657,-1.106479,-0.028321,0.143559,1.098633,14.404297,-26.428223,0,0
3705,2024 10 19,05:24:40.865,0.415513,0.636983,-0.318993,0.565548,-1.13773,-0.078127,0.126469,0.915527,15.319824,-33.569336,0,0
3706,2024 10 19,05:24:40.873,0.417952,0.637438,-0.316323,0.564738,-1.270058,-0.06299,0.061037,-3.662109,9.521484,-45.471191,0,0
3707,2024 10 19,05:24:40.882,0.421302,0.638265,-0.31318,0.563064,-1.403363,-0.096194,0.043458,-8.544922,9.338379,-60.72998,0,0
3708,2024 10 19,05:24:40.890,0.425986,0.639289,-0.309449,0.560434,-1.406293,-0.107425,0.07178,-13.793945,8.300781,-79.467773,0,0
3709,2024 10 19,05:24:40.898,0.425986,0.639289,-0.309449,0.560434,-1.406293,-0.107425,0.07178,-13.793945,8.300781,-79.467773,0,0
3710,2024 10 19,05:24:40.907,0.431801,0.64079,-0.30501,0.556691,-1.506394,-0.029786,0.091311,-20.141602,3.295898,-99.853516,0,0
3711,2024 10 19,05:24:40.915,0.438445,0.642724,-0.299365,0.552316,-1.57915,-0.011231,0.120121,-19.714355,7.507324,-119.20166,0,0
3712,2024 10 19,05:24:40.923,0.446061,0.644791,-0.292289,0.547578,-1.515183,-0.004883,0.183599,-14.221191,14.892578,-137.817383,0,0
3713,2024 10 19,05:24:40.932,0.453963,0.647238,-0.283632,0.542728,-1.569872,0.00586,0.113773,-4.516602,19.53125,-151.855469,0,0
3714,2024 10 19,05:24:40.940,0.462116,0.650154,-0.273339,0.53762,-1.843318,0.006348,0.06885,2.197266,25.512695,-171.75293,0,0
3715,2024 10 19,05:24:40.948,0.462116,0.650154,-0.273339,0.53762,-1.843318,0.006348,0.06885,2.197266,25.512695,-171.75293,0,0
3716,2024 10 19,05:24:40.957,0.471532,0.652984,-0.260815,0.532208,-1.970275,0.023927,0.000488,7.141113,42.297363,-199.645996,0,0
3717,2024 10 19,05:24:40.965,0.482304,0.655789,-0.24563,0.526298,-2.179754,0.116214,0.007324,10.864258,55.419922,-232.727051,0,0
3718,2024 10 19,05:24:40.973,0.494742,0.658722,-0.227694,0.519107,-2.423414,0.15479,-0.026368,8.850098,65.734863,-274.108887,0,0
3719,2024 10 19,05:24:40.982,0.509525,0.661024,-0.206347,0.510737,-2.674398,0.393078,0.271981,6.04248,90.698242,-321.228027,0,0
3720,2024 10 19,05:24:40.990,0.526402,0.662111,-0.180377,0.501971,-2.908292,0.39845,-0.089358,9.521484,124.572754,-371.826172,0,0
3721,2024 10 19,05:24:40.998,0.526402,0.662111,-0.180377,0.501971,-2.908292,0.39845,-0.089358,9.521484,124.572754,-371.826172,0,0
3722,2024 10 19,05:24:41.007,0.545026,0.662718,-0.150147,0.491129,-3.283303,0.311045,-0.045412,13.000488,142.39502,-428.283691,0,0
3723,2024 10 19,05:24:41.015,0.565603,0.6617,-0.115296,0.478491,-3.50499,0.15479,-0.146489,11.047363,172.119141,-483.398438,0,0
3724,2024 10 19,05:24:41.023,0.587149,0.659456,-0.076256,0.463205,-3.731071,-0.15186,0.094729,18.127441,184.204102,-534.790039,0,0
3725,2024 10 19,05:24:41.032,0.608367,0.655952,-0.034262,0.445469,-3.935179,-0.278817,-0.114261,25.756836,187.438965,-566.894531,0,0
3726,2024 10 19,05:24:41.040,0.628903,0.649903,0.008944,0.426646,-3.493759,-0.050295,-0.451674,12.634277,203.674316,-577.880859,0,1
3727,2024 10 19,05:24:41.048,0.628903,0.649903,0.008944,0.426646,-3.493759,-0.050295,-0.451674,12.634277,203.674316,-577.880859,0,0
3728,2024 10 19,05:24:41.057,0.64898,0.641051,0.051501,0.406479,-3.050386,0.476577,-0.540056,-10.742188,198.974609,-575.012207,0,0
3729,2024 10 19,05:24:41.065,0.667775,0.630636,0.092065,0.384576,-3.053316,0.736839,-0.738792,-14.343262,172.424316,-570.617676,0,0
3730,2024 10 19,05:24:41.073,0.685227,0.619231,0.129112,0.361037,-2.233955,0.956084,-1.152867,-25.20752,138.427734,-540.466309,0,0
3731,2024 10 19,05:24:41.082,0.699954,0.609166,0.160677,0.336398,-1.95172,0.863796,-0.780297,-24.169922,86.120605,-498.535156,0,0
3732,2024 10 19,05:24:41.090,0.715537,0.596759,0.185086,0.312454,0.603046,1.047395,-2.77694,-100.891113,39.245605,-430.480957,0,0
3733,2024 10 19,05:24:41.098,0.715537,0.596759,0.185086,0.312454,0.603046,1.047395,-2.77694,-100.891113,39.245605,-430.480957,0,0
3734,2024 10 19,05:24:41.107,0.728747,0.585222,0.196437,0.296403,2.777917,1.231971,-1.086947,-123.840332,-44.494629,-209.228516,0,0
3735,2024 10 19,05:24:41.115,0.738683,0.577486,0.186817,0.293184,-0.657735,1.919981,0.10889,-154.541016,-73.730469,60.119629,0,0
3736,2024 10 19,05:24:41.123,0.740182,0.574188,0.170819,0.305385,-1.169469,1.896542,-0.167974,-116.271973,-56.335449,222.900391,0,0
3737,2024 10 19,05:24:41.132,0.735802,0.575103,0.153017,0.323169,-1.472213,1.247597,0.302255,-43.334961,-1.831055,287.414551,0,0
3738,2024 10 19,05:24:41.140,0.728018,0.576381,0.139857,0.343823,-0.929228,0.862331,-0.612812,-10.009766,33.569336,280.029297,0,0
3739,2024 10 19,05:24:41.148,0.728018,0.576381,0.139857,0.343823,-0.929228,0.862331,-0.612812,-10.009766,33.569336,280.029297,0,0
3740,2024 10 19,05:24:41.157,0.719214,0.580031,0.127239,0.360702,-0.559099,0.594745,-0.463393,14.648438,4.577637,252.990723,0,0
3741,2024 10 19,05:24:41.165,0.710399,0.58432,0.114923,0.375094,-0.152837,0.501968,-0.847682,21.30127,-19.836426,237.670898,0,0
3742,2024 10 19,05:24:41.173,0.701588,0.590255,0.099692,0.386568,-0.205084,0.484878,-0.604999,23.010254,-70.43457,241.638184,0,0
3743,2024 10 19,05:24:41.182,0.692558,0.596784,0.081454,0.396961,-0.357433,0.509781,-0.622089,17.028809,-101.623535,256.652832,0,0
3744,2024 10 19,05:24:41.190,0.682899,0.603765,0.060049,0.40683,-0.568377,0.521989,-0.449721,11.108398,-128.78418,277.832031,0,0
3745,2024 10 19,05:24:41.198,0.672273,0.610332,0.036364,0.417399,-0.703635,0.500504,-0.398938,3.967285,-134.70459,303.039551,0,0
3746,2024 10 19,05:24:41.207,0.672273,0.610332,0.036364,0.417399,-0.703635,0.500504,-0.398938,3.967285,-134.70459,303.039551,0,0
3747,2024 10 19,05:24:41.215,0.660545,0.616215,0.01071,0.428772,-0.813501,0.469741,-0.315439,-2.685547,-141.357422,326.721191,0,0
3748,2024 10 19,05:24:41.223,0.647854,0.621295,-0.016756,0.440451,-0.843776,0.463393,-0.245613,-11.413574,-149.353027,344.421387,0,0
3749,2024 10 19,05:24:41.232,0.634345,0.62569,-0.045963,0.451671,-0.914579,0.484878,-0.221686,-18.798828,-164.18457,356.201172,0,0
3750,2024 10 19,05:24:41.240,0.619923,0.629645,-0.076635,0.46192,-1.099155,0.454604,-0.12598,-23.010254,-179.382324,362.976074,0,0
3751,2024 10 19,05:24:41.248,0.604753,0.632879,-0.10807,0.471232,-1.272988,0.429701,-0.036622,-26.428223,-186.462402,364.685059,0,0
3752,2024 10 19,05:24:41.257,0.604753,0.632879,-0.10807,0.471232,-1.272988,0.429701,-0.036622,-26.428223,-186.462402,364.685059,0,0
3753,2024 10 19,05:24:41.265,0.588936,0.635193,-0.139764,0.47974,-1.35258,0.408704,0.025391,-30.639648,-189.39209,365.600586,0,0
3754,2024 10 19,05:24:41.273,0.572346,0.636439,-0.17168,0.487741,-1.398968,0.409192,0.059084,-33.935547,-190.002441,371.09375,0,0
3755,2024 10 19,05:24:41.282,0.554773,0.636681,-0.2039,0.495266,-1.522507,0.401379,0.117679,-35.766602,-192.810059,377.685547,0,0
3756,2024 10 19,05:24:41.290,0.536227,0.636012,-0.236294,0.50211,-1.710501,0.394543,0.169927,-36.193848,-196.228027,381.469727,0,0
3757,2024 10 19,05:24:41.298,0.516729,0.63441,-0.268507,0.508349,-1.885311,0.43263,0.252449,-34.973145,-196.228027,384.643555,0,0
3758,2024 10 19,05:24:41.307,0.516729,0.63441,-0.268507,0.508349,-1.885311,0.43263,0.252449,-34.973145,-196.228027,384.643555,0,0
3759,2024 10 19,05:24:41.315,0.496129,0.63179,-0.300204,0.514368,-2.029847,0.437025,0.331553,-29.785156,-191.772461,389.404297,0,0
3760,2024 10 19,05:24:41.323,0.474463,0.628082,-0.331013,0.520412,-2.167058,0.388195,0.293466,-22.277832,-184.326172,393.310547,0,0
3761,2024 10 19,05:24:41.332,0.451652,0.623655,-0.361033,0.526042,-2.368236,0.346202,0.28956,-15.258789,-184.814453,395.080566,0,0
3762,2024 10 19,05:24:41.340,0.427915,0.618466,-0.390202,0.531159,-2.596759,0.218268,0.241218,-10.803223,-183.105469,395.629883,0,0
3763,2024 10 19,05:24:41.348,0.40338,0.612595,-0.418399,0.535681,-2.867275,0.0459,0.232917,-5.371094,-182.189941,395.263672,0,0
3764,2024 10 19,05:24:41.357,0.40338,0.612595,-0.418399,0.535681,-2.867275,0.0459,0.232917,-5.371094,-182.189941,395.263672,0,0
3765,2024 10 19,05:24:41.365,0.378565,0.605664,-0.445308,0.539963,-3.06357,-0.211432,0.141118,-1.89209,-171.325684,393.188477,0,0
3766,2024 10 19,05:24:41.373,0.353742,0.597999,-0.47079,0.54371,-3.122654,-0.719748,0.107425,0.793457,-165.466309,385.986328,0,0
3767,2024 10 19,05:24:41.382,0.329464,0.590297,-0.494635,0.546205,-2.95468,-1.419965,0.053713,0.244141,-168.151855,367.30957,0,0
3768,2024 10 19,05:24:41.390,0.305651,0.584271,-0.516806,0.546001,-2.896085,-2.208564,0.182623,-0.061035,-191.772461,334.594727,0,0
3769,2024 10 19,05:24:41.398,0.28339,0.580521,-0.536437,0.543066,-2.625568,-2.832606,0.396496,-2.563477,-204.650879,284.729004,0,0
3770,2024 10 19,05:24:41.407,0.28339,0.580521,-0.536437,0.543066,-2.625568,-2.832606,0.396496,-2.563477,-204.650879,284.729004,0,0
3771,2024 10 19,05:24:41.415,0.263373,0.579983,-0.552887,0.537187,-2.130924,-3.191504,0.93704,-3.845215,-223.388672,219.665527,0,0
3772,2024 10 19,05:24:41.423,0.245469,0.583327,-0.565714,0.528623,-1.710013,-3.434187,1.672414,0.488281,-243.591309,150.45166,0,0
3773,2024 10 19,05:24:41.432,0.228981,0.590227,-0.574957,0.518289,-1.883358,-3.889767,2.567461,12.878418,-258.056641,96.313477,0,0
3774,2024 10 19,05:24:41.440,0.214713,0.59745,-0.581288,0.508975,-2.73397,-4.378063,2.984954,21.911621,-218.139648,73.791504,0,0
3775,2024 10 19,05:24:41.448,0.207316,0.600355,-0.583925,0.505595,-3.250099,-5.089023,2.870205,22.094727,-73.608398,53.771973,0,0
3776,2024 10 19,05:24:41.457,0.207316,0.600355,-0.583925,0.505595,-3.250099,-5.089023,2.870205,22.094727,-73.608398,53.771973,0,0
3777,2024 10 19,05:24:41.465,0.211964,0.597532,-0.582092,0.509113,-2.009827,-4.606098,1.981017,-6.896973,93.261719,1.525879,0,0
3778,2024 10 19,05:24:41.473,0.226953,0.606094,-0.578226,0.496786,-3.94055,-3.777459,9.726859,-207.885742,-150.024414,-304.748535,0,0
3779,2024 10 19,05:24:41.482,0.28447,0.601101,-0.558905,0.495356,-0.83108,1.660207,-2.218329,-568.908691,526.672363,-439.51416,1,0
3780,2024 10 19,05:24:41.490,0.317393,0.604598,-0.53854,0.493657,-0.978057,0.915555,-1.495163,-19.65332,97.595215,-337.341309,0,0
3781,2024 10 19,05:24:41.498,0.340538,0.614777,-0.519916,0.485562,-2.193915,0.273934,0.510758,-41.870117,200.439453,-356.079102,0,0
3782,2024 10 19,05:24:41.507,0.340538,0.614777,-0.519916,0.485562,-2.193915,0.273934,0.510758,-41.870117,200.439453,-356.079102,0,0
3783,2024 10 19,05:24:41.515,0.36212,0.623268,-0.494579,0.485589,-1.737358,-0.27784,1.573779,58.349609,115.41748,-340.209961,0,0
3784,2024 10 19,05:24:41.523,0.376534,0.631691,-0.472569,0.485662,-1.630909,-0.945341,0.454604,27.832031,119.628906,-256.835938,0,0
3785,2024 10 19,05:24:41.532,0.391177,0.632734,-0.458615,0.486108,-1.720267,-0.296884,0.291513,-33.325195,154.052734,-162.536621,0,0
3786,2024 10 19,05:24:41.540,0.402697,0.629542,-0.445104,0.493349,-1.217811,0.070315,-1.010773,44.067383,187.62207,-97.595215,0,0
3787,2024 10 19,05:24:41.548,0.405085,0.629191,-0.432111,0.503293,-1.190954,-0.335948,0.216315,115.234375,142.51709,-48.156738,0,0
3788,2024 10 19,05:24:41.557,0.405085,0.629191,-0.432111,0.503293,-1.190954,-0.335948,0.216315,115.234375,142.51709,-48.156738,0,0
3789,2024 10 19,05:24:41.565,0.407014,0.6265,-0.419625,0.515511,-0.927274,-0.401868,0.009278,97.412109,176.574707,-26.367188,0,0
3790,2024 10 19,05:24:41.573,0.409914,0.622895,-0.409851,0.525351,-0.918485,-0.087893,-0.284188,62.255859,136.779785,-21.057129,0,0
3791,2024 10 19,05:24:41.582,0.409955,0.620816,-0.40216,0.533659,-1.100131,-0.132817,0.0918,79.956055,106.506348,-1.464844,0,0
3792,2024 10 19,05:24:41.590,0.4099,0.618029,-0.394896,0.542291,-0.684103,-0.201666,0.226569,64.63623,108.581543,1.708984,0,0
3793,2024 10 19,05:24:41.598,0.41052,0.616082,-0.390244,0.547382,-0.853053,-0.042482,0.039552,32.653809,57.861328,-4.272461,0,0
3794,2024 10 19,05:24:41.607,0.41052,0.616082,-0.390244,0.547382,-0.853053,-0.042482,0.039552,32.653809,57.861328,-4.272461,0,0
3795,2024 10 19,05:24:41.615,0.410272,0.615286,-0.38705,0.55072,-0.998077,-0.117191,0.097659,33.874512,41.442871,-1.098633,0,0
3796,2024 10 19,05:24:41.623,0.410532,0.614263,-0.384342,0.553557,-0.875515,-0.0459,0.077151,20.507813,36.499023,-4.089355,0,0
3797,2024 10 19,05:24:41.632,0.41077,0.614049,-0.382619,0.55481,-0.932157,0.011719,0.089846,11.169434,12.634277,-8.117676,0,0
3798,2024 10 19,05:24:41.640,0.410923,0.614562,-0.381413,0.55496,-1.049837,0.02588,0.035157,8.178711,1.586914,-13.000488,0,0
3799,2024 10 19,05:24:41.648,0.411376,0.615285,-0.3801,0.554724,-1.070833,-0.026368,-0.016114,6.225586,1.708984,-18.066406,0,0
3800,2024 10 19,05:24:41.657,0.412159,0.615994,-0.378767,0.554267,-1.053743,-0.080081,-0.052736,3.90625,1.708984,-20.019531,0,0
3801,2024 10 19,05:24:41.665,0.412159,0.615994,-0.378767,0.554267,-1.053743,-0.080081,-0.052736,3.90625,1.708984,-20.019531,0,0
3802,2024 10 19,05:24:41.673,0.4132,0.616527,-0.377564,0.55372,-1.07767,-0.054201,-0.075198,-0.244141,3.601074,-20.080566,0,0
3803,2024 10 19,05:24:41.682,0.414482,0.616765,-0.376286,0.553367,-1.080111,-0.061037,-0.063478,-1.953125,9.338379,-20.263672,0,0
3804,2024 10 19,05:24:41.690,0.416056,0.616651,-0.374821,0.553307,-1.014679,-0.02295,0.038087,-2.258301,15.136719,-20.446777,0,0
3805,2024 10 19,05:24:41.698,0.417544,0.616502,-0.373083,0.553526,-0.974151,-0.020508,0.078616,1.77002,16.662598,-20.507813,0,0
3806,2024 10 19,05:24:41.707,0.418851,0.616477,-0.371092,0.553905,-0.980499,-0.032716,0.056642,5.615234,17.63916,-21.118164,0,0
3807,2024 10 19,05:24:41.715,0.418851,0.616477,-0.371092,0.553905,-0.980499,-0.032716,0.056642,5.615234,17.63916,-21.118164,0,0
3808,2024 10 19,05:24:41.723,0.420077,0.616589,-0.369041,0.554222,-0.969756,-0.0459,0.053713,5.79834,15.014648,-21.911621,0,0
3809,2024 10 19,05:24:41.732,0.421129,0.617031,-0.367073,0.554239,-0.996612,-0.06299,0.04883,7.568359,9.399414,-23.010254,0,0
3810,2024 10 19,05:24:41.740,0.422118,0.617693,-0.365144,0.554023,-1.001495,-0.020997,0.093753,7.69043,6.713867,-24.536133,0,0
3811,2024 10 19,05:24:41.748,0.422922,0.618458,-0.362986,0.553975,-0.980499,-0.065432,0.079592,11.413574,8.850098,-24.169922,0,0
3812,2024 10 19,05:24:41.757,0.423639,0.619183,-0.360772,0.554063,-0.969268,-0.086917,0.064455,13.61084,8.850098,-22.644043,0,0
3813,2024 10 19,05:24:41.765,0.423639,0.619183,-0.360772,0.554063,-0.969268,-0.086917,0.064455,13.61084,8.850098,-22.644043,0,0
3814,2024 10 19,05:24:41.773,0.424161,0.619921,-0.358668,0.554205,-1.003449,-0.075686,0.110355,15.319824,8.605957,-20.080566,0,0
3815,2024 10 19,05:24:41.782,0.424628,0.620406,-0.356371,0.554785,-1.049348,-0.101077,0.0,16.296387,15.441895,-18.371582,0,0
3816,2024 10 19,05:24:41.790,0.425269,0.620433,-0.354057,0.555745,-0.990265,-0.137211,0.039552,13.61084,21.728516,-15.197754,0,0
3817,2024 10 19,05:24:41.798,0.425983,0.620123,-0.351845,0.556948,-1.014679,-0.098636,0.02002,12.207031,24.719238,-12.756348,0,0
3818,2024 10 19,05:24:41.807,0.426839,0.619484,-0.349649,0.558384,-1.019562,-0.067873,0.006836,9.277344,29.418945,-11.84082,0,0
3819,2024 10 19,05:24:41.815,0.426839,0.619484,-0.349649,0.558384,-1.019562,-0.067873,0.006836,9.277344,29.418945,-11.84082,0,0
3820,2024 10 19,05:24:41.823,0.427939,0.61859,-0.347464,0.559896,-1.013703,-0.091311,0.07178,7.385254,31.12793,-12.268066,0,0
3821,2024 10 19,05:24:41.832,0.429133,0.617862,-0.345308,0.561119,-1.026887,-0.095706,0.155766,7.263184,27.099609,-14.953613,0,0
3822,2024 10 19,05:24:41.840,0.430366,0.617358,-0.343088,0.56209,-1.049837,-0.073244,0.110355,6.835938,24.658203,-18.188477,0,0
3823,2024 10 19,05:24:41.848,0.431802,0.617055,-0.34076,0.562737,-1.149449,-0.057619,0.068361,6.164551,22.949219,-22.888184,0,0
3824,2024 10 19,05:24:41.857,0.433757,0.616903,-0.33829,0.56289,-1.174841,-0.071291,0.119144,1.586914,21.057129,-31.738281,0,0
3825,2024 10 19,05:24:41.865,0.433757,0.616903,-0.33829,0.56289,-1.174841,-0.071291,0.119144,1.586914,21.057129,-31.738281,0,0
3826,2024 10 19,05:24:41.873,0.43631,0.617021,-0.335634,0.562378,-1.246132,-0.107913,0.10596,-0.427246,18.493652,-40.893555,0,0
3827,2024 10 19,05:24:41.882,0.439615,0.617479,-0.332515,0.561153,-1.31547,-0.036622,0.070315,-10.437012,13.793945,-56.396484,0,0
3828,2024 10 19,05:24:41.890,0.443781,0.618352,-0.328961,0.559004,-1.389203,-0.104007,0.039064,-10.803223,13.549805,-70.678711,0,0
3829,2024 10 19,05:24:41.898,0.449103,0.619417,-0.324782,0.556009,-1.449263,0.000488,0.169927,-17.456055,12.695313,-88.684082,0,0
3830,2024 10 19,05:24:41.907,0.455374,0.620763,-0.319599,0.552398,-1.52739,-0.016114,0.124027,-18.554688,15.258789,-107.055664,0,0
3831,2024 10 19,05:24:41.915,0.455374,0.620763,-0.319599,0.552398,-1.52739,-0.016114,0.124027,-18.554688,15.258789,-107.055664,0,0
3832,2024 10 19,05:24:41.923,0.462609,0.622555,-0.313386,0.547912,-1.563036,-0.031739,0.090335,-17.700195,15.808105,-126.098633,0,0
3833,2024 10 19,05:24:41.932,0.47069,0.624677,-0.305795,0.542881,-1.484909,0.058107,0.182134,-15.74707,21.484375,-145.812988,0,0
3834,2024 10 19,05:24:41.940,0.478833,0.627236,-0.296502,0.537942,-1.516648,0.033692,0.195807,-0.915527,27.038574,-158.508301,0,0
3835,2024 10 19,05:24:41.948,0.487197,0.630656,-0.285749,0.532221,-1.722221,0.093265,0.227546,8.728027,24.536133,-180.725098,0,0
3836,2024 10 19,05:24:41.957,0.496175,0.634605,-0.272791,0.525996,-1.85699,0.083987,0.120121,17.76123,35.27832,-206.420898,0,0
3837,2024 10 19,05:24:41.965,0.496175,0.634605,-0.272791,0.525996,-1.85699,0.083987,0.120121,17.76123,35.27832,-206.420898,0,0
3838,2024 10 19,05:24:41.973,0.50634,0.638765,-0.257435,0.518968,-2.179754,0.10889,0.087893,19.470215,45.288086,-239.135742,0,0
3839,2024 10 19,05:24:41.982,0.518796,0.642445,-0.239278,0.510746,-2.502029,0.106937,-0.186529,10.375977,66.894531,-282.287598,0,0
3840,2024 10 19,05:24:41.990,0.53387,0.645035,-0.217568,0.501574,-2.705649,0.296884,-0.118656,4.760742,96.130371,-328.24707,0,0
3841,2024 10 19,05:24:41.998,0.551016,0.646764,-0.19176,0.491229,-2.986907,0.359386,-0.154302,5.92041,124.145508,-379.150391,0,0
3842,2024 10 19,05:24:42.007,0.57024,0.647197,-0.161281,0.479531,-3.254005,0.317392,-0.267098,6.835938,155.029297,-433.654785,0,0
3843,2024 10 19,05:24:42.015,0.57024,0.647197,-0.161281,0.479531,-3.254005,0.317392,-0.267098,6.835938,155.029297,-433.654785,0,0
3844,2024 10 19,05:24:42.023,0.591256,0.646008,-0.125954,0.466076,-3.535753,0.163091,-0.041993,5.249023,192.260742,-489.440918,0,0
3845,2024 10 19,05:24:42.032,0.613374,0.643013,-0.086426,0.450374,-3.876583,-0.047365,0.182134,8.605957,200.98877,-537.536621,0,0
3846,2024 10 19,05:24:42.040,0.634936,0.638456,-0.043526,0.432822,-3.98645,-0.411634,-0.283212,11.962891,223.266602,-568.054199,0,0
3847,2024 10 19,05:24:42.048,0.655773,0.631517,0.000733,0.413699,-3.540147,-0.301279,-0.669942,-0.305176,233.093262,-581.298828,0,1
3848,2024 10 19,05:24:42.057,0.675523,0.621898,0.043918,0.393678,-3.176367,-0.070315,-0.903836,-20.812988,228.69873,-568.725586,0,0
3849,2024 10 19,05:24:42.065,0.675523,0.621898,0.043918,0.393678,-3.176367,-0.070315,-0.903836,-20.812988,228.69873,-568.725586,0,0
3850,2024 10 19,05:24:42.073,0.694173,0.610085,0.084013,0.372641,-3.146092,0.294443,-1.097201,-38.024902,199.34082,-550.231934,0,0
3851,2024 10 19,05:24:42.082,0.711653,0.596662,0.119436,0.351112,-2.094302,0.826685,-1.554247,-60.668945,164.733887,-505.67627,0,0
3852,2024 10 19,05:24:42.090,0.726301,0.58492,0.147795,0.329411,-1.552293,0.640156,-1.425825,-66.955566,103.45459,-443.908691,0,0
3853,2024 10 19,05:24:42.098,0.741209,0.57077,0.168122,0.310751,1.13773,0.143071,-4.351695,-136.962891,57.800293,-349.42627,0,0
3854,2024 10 19,05:24:42.107,0.759137,0.556152,0.16656,0.294387,1.823786,1.066927,-0.191412,-252.319336,-153.564453,-146.42334,0,0
3855,2024 10 19,05:24:42.115,0.772162,0.542788,0.149981,0.294369,-1.046907,1.575243,-1.283242,-240.41748,-114.624023,89.599609,0,0
3856,2024 10 19,05:24:42.123,0.772162,0.542788,0.149981,0.294369,-1.046907,1.575243,-1.283242,-240.41748,-114.624023,89.599609,0,0
3857,2024 10 19,05:24:42.132,0.779482,0.534526,0.127102,0.300889,-1.802789,1.663625,0.380871,-189.086914,-143.981934,166.259766,0,0
3858,2024 10 19,05:24:42.140,0.782106,0.528771,0.109488,0.311005,-1.377483,1.407269,0.00293,-122.070313,-55.603027,168.579102,0,0
3859,2024 10 19,05:24:42.148,0.781127,0.526804,0.097194,0.320735,-0.688498,0.962432,-0.288583,-50.231934,-37.902832,151.794434,0,0
3860,2024 10 19,05:24:42.157,0.777681,0.528344,0.086787,0.329443,-0.126469,0.966826,-0.485366,0.610352,-45.898438,153.869629,0,0
3861,2024 10 19,05:24:42.165,0.771672,0.533893,0.075025,0.337419,-0.056154,1.004425,-0.431654,43.640137,-78.369141,175.231934,0,0
3862,2024 10 19,05:24:42.173,0.771672,0.533893,0.075025,0.337419,-0.056154,1.004425,-0.431654,43.640137,-78.369141,175.231934,0,0
3863,2024 10 19,05:24:42.182,0.763009,0.542646,0.060792,0.345915,-0.187506,0.957549,-0.554704,74.951172,-107.36084,211.242676,0,0
3864,2024 10 19,05:24:42.190,0.751661,0.553836,0.043318,0.355521,-0.401868,0.837428,-0.489761,96.496582,-134.033203,253.417969,0,0
3865,2024 10 19,05:24:42.198,0.73787,0.566139,0.023329,0.36673,-0.532243,0.689474,-0.456069,108.215332,-144.592285,291.137695,0,0
3866,2024 10 19,05:24:42.207,0.722173,0.578687,0.001257,0.378927,-0.655293,0.558123,-0.467788,110.961914,-157.958984,317.626953,0,0
3867,2024 10 19,05:24:42.215,0.705136,0.590964,-0.022759,0.391186,-0.794946,0.452162,-0.43263,107.666016,-171.203613,334.289551,0,0
3868,2024 10 19,05:24:42.223,0.705136,0.590964,-0.022759,0.391186,-0.794946,0.452162,-0.43263,107.666016,-171.203613,334.289551,0,0
3869,2024 10 19,05:24:42.232,0.687266,0.602343,-0.04828,0.403135,-0.850612,0.412122,-0.358409,98.144531,-181.213379,344.116211,0,0
3870,2024 10 19,05:24:42.240,0.668769,0.612688,-0.075212,0.414372,-1.001984,0.391125,-0.253426,87.463379,-193.17627,350.769043,0,0
3871,2024 10 19,05:24:42.248,0.649772,0.621828,-0.103181,0.42483,-1.151891,0.349132,-0.106937,76.049805,-199.890137,354.187012,0,0
3872,2024 10 19,05:24:42.257,0.630469,0.629455,-0.131817,0.434648,-1.214393,0.336924,-0.028809,63.110352,-202.880859,357.48291,0,0
3873,2024 10 19,05:24:42.265,0.610695,0.635736,-0.161463,0.443645,-1.319865,0.353526,0.08594,51.147461,-211.608887,364.013672,0,0
3874,2024 10 19,05:24:42.273,0.610695,0.635736,-0.161463,0.443645,-1.319865,0.353526,0.08594,51.147461,-211.608887,364.013672,0,0
3875,2024 10 19,05:24:42.282,0.590368,0.64053,-0.191924,0.452054,-1.491256,0.356456,0.160649,40.527344,-213.806152,370.97168,0,0
3876,2024 10 19,05:24:42.290,0.569512,0.643837,-0.222768,0.459895,-1.737358,0.343272,0.292001,31.311035,-214.233398,374.572754,0,0
3877,2024 10 19,05:24:42.298,0.548471,0.645337,-0.253241,0.467535,-1.90289,0.333506,0.385266,22.888184,-200.561523,375.488281,0,0
3878,2024 10 19,05:24:42.307,0.52747,0.644702,-0.282799,0.475562,-1.990783,0.311045,0.404309,15.625,-180.786133,377.990723,0,0
3879,2024 10 19,05:24:42.315,0.506485,0.641932,-0.311626,0.484031,-2.063051,0.26075,0.396496,7.446289,-161.865234,383.361816,0,0
3880,2024 10 19,05:24:42.323,0.506485,0.641932,-0.311626,0.484031,-2.063051,0.26075,0.396496,7.446289,-161.865234,383.361816,0,0
3881,2024 10 19,05:24:42.332,0.485532,0.636999,-0.339963,0.492866,-2.118717,0.199713,0.292001,-2.197266,-145.996094,390.625,0,0
3882,2024 10 19,05:24:42.340,0.464498,0.63019,-0.368285,0.501467,-2.21247,0.120121,0.181158,-13.793945,-138.85498,397.766113,0,0
3883,2024 10 19,05:24:42.348,0.443308,0.621688,-0.396735,0.509492,-2.382397,0.002441,0.001953,-24.475098,-134.94873,404.663086,0,0
3884,2024 10 19,05:24:42.357,0.422106,0.611595,-0.425038,0.516837,-2.583575,-0.15479,-0.098148,-34.118652,-127.01416,407.775879,0,0
3885,2024 10 19,05:24:42.365,0.401221,0.600043,-0.452689,0.523491,-2.595294,-0.331065,-0.227058,-43.029785,-121.276855,405.151367,0,0
3886,2024 10 19,05:24:42.373,0.401221,0.600043,-0.452689,0.523491,-2.595294,-0.331065,-0.227058,-43.029785,-121.276855,405.151367,0,0
3887,2024 10 19,05:24:42.382,0.380142,0.588202,-0.479798,0.528492,-2.551836,-0.567888,-0.299814,-47.058105,-133.239746,397.399902,0,0
3888,2024 10 19,05:24:42.390,0.358223,0.577316,-0.506622,0.53077,-2.530839,-0.976592,-0.333018,-49.560547,-166.137695,383.911133,0,0
3889,2024 10 19,05:24:42.398,0.335238,0.568756,-0.532716,0.529477,-2.662679,-1.70806,-0.238777,-47.851563,-208.92334,356.933594,0,0
3890,2024 10 19,05:24:42.407,0.312307,0.56339,-0.5569,0.524327,-2.738853,-2.417066,0.023927,-47.546387,-244.628906,309.143066,0,0
3891,2024 10 19,05:24:42.415,0.290839,0.561682,-0.578071,0.515519,-2.571368,-2.878017,0.591815,-47.424316,-269.897461,244.567871,0,0
3892,2024 10 19,05:24:42.423,0.290839,0.561682,-0.578071,0.515519,-2.571368,-2.878017,0.591815,-47.424316,-269.897461,244.567871,0,0
3893,2024 10 19,05:24:42.432,0.271041,0.563899,-0.595369,0.504074,-2.49617,-3.188086,1.472213,-35.644531,-287.658691,177.185059,0,0
3894,2024 10 19,05:24:42.440,0.253009,0.569038,-0.607969,0.492499,-2.509354,-3.442,2.483963,-7.995605,-273.620605,121.520996,0,0
3895,2024 10 19,05:24:42.448,0.237624,0.574443,-0.615482,0.484491,-2.672933,-3.799432,3.113865,31.921387,-210.388184,88.500977,0,0
3896,2024 10 19,05:24:42.457,0.227448,0.57754,-0.61729,0.483392,-2.725181,-4.680319,2.964934,68.847656,-88.195801,58.227539,0,0
3897,2024 10 19,05:24:42.465,0.225528,0.578195,-0.614135,0.48751,-1.915097,-5.07828,2.17243,62.5,22.155762,8.728027,0,0
3898,2024 10 19,05:24:42.473,0.225528,0.578195,-0.614135,0.48751,-1.915097,-5.07828,2.17243,62.5,22.155762,8.728027,0,0
3899,2024 10 19,05:24:42.482,0.22891,0.580199,-0.608652,0.490419,-1.593799,-4.105594,1.802301,35.217285,29.174805,-50.78125,0,0
3900,2024 10 19,05:24:42.490,0.234573,0.584216,-0.601306,0.492035,-1.890683,-2.750084,2.179754,31.494141,43.518066,-92.956543,0,0
3901,2024 10 19,05:24:42.498,0.253574,0.596691,-0.593718,0.476612,-1.581103,1.884823,7.516343,-272.277832,-82.336426,-402.893066,0,0
3902,2024 10 19,05:24:42.507,0.312839,0.585508,-0.568763,0.485612,0.577654,5.398602,-3.61681,-412.29248,599.487305,-417.724609,0,0
3903,2024 10 19,05:24:42.515,0.328187,0.603276,-0.546614,0.479129,-3.337992,1.931211,7.355694,70.739746,-107.971191,-384.70459,0,0
3904,2024 10 19,05:24:42.523,0.328187,0.603276,-0.546614,0.479129,-3.337992,1.931211,7.355693,70.739746,-107.971191,-384.70459,0,0
3905,2024 10 19,05:24:42.532,0.358704,0.612508,-0.513585,0.482074,-0.387707,0.745628,0.637715,-35.888672,365.722656,-448.425293,1,0
3906,2024 10 19,05:24:42.540,0.372119,0.627094,-0.484684,0.483076,-3.082614,-1.84283,2.293527,125.976563,60.119629,-326.049805,0,0
3907,2024 10 19,05:24:42.548,0.395238,0.624373,-0.464582,0.487963,-1.840388,-0.108402,-0.452162,-40.95459,288.146973,-204.040527,0,0
3908,2024 10 19,05:24:42.557,0.407918,0.620541,-0.446359,0.499295,-1.130894,0.031251,-0.271493,71.044922,234.863281,-112.548828,0,0
3909,2024 10 19,05:24:42.565,0.410177,0.619508,-0.429865,0.513012,-0.915555,-0.535661,0.123051,161.92627,183.654785,-45.227051,0,0
3910,2024 10 19,05:24:42.573,0.410493,0.617963,-0.416435,0.525547,-0.762719,-0.528825,0.043458,111.755371,154.174805,-26.062012,0,0
3911,2024 10 19,05:24:42.582,0.410493,0.617963,-0.416435,0.525547,-0.762719,-0.528825,0.043458,111.755371,154.174805,-26.062012,0,0
3912,2024 10 19,05:24:42.590,0.412709,0.615206,-0.407451,0.53402,-0.887722,-0.102542,-0.150884,56.091309,119.628906,-19.287109,0,0
3913,2024 10 19,05:24:42.598,0.4126,0.613249,-0.400424,0.541615,-1.123569,-0.251473,-0.13184,77.453613,95.76416,1.647949,0,0
3914,2024 10 19,05:24:42.607,0.413162,0.610665,-0.394756,0.548227,-0.638203,-0.096683,0.350108,35.827637,86.608887,-1.708984,0,0
3915,2024 10 19,05:24:42.615,0.413933,0.608918,-0.3911,0.552195,-0.882351,-0.093265,0.078127,28.869629,49.194336,-3.234863,0,0
3916,2024 10 19,05:24:42.623,0.414065,0.608066,-0.388638,0.554767,-0.947783,-0.085452,0.046876,19.53125,31.921387,-1.708984,0,0
3917,2024 10 19,05:24:42.632,0.414065,0.608066,-0.388638,0.554767,-0.947783,-0.085452,0.046876,19.53125,31.921387,-1.708984,0,0
3918,2024 10 19,05:24:42.640,0.414391,0.607469,-0.387072,0.55627,-0.903836,-0.024903,0.10889,9.033203,18.798828,-4.150391,0,0
3919,2024 10 19,05:24:42.648,0.414651,0.607509,-0.386188,0.556648,-0.960967,-0.026856,0.050783,4.02832,3.051758,-7.751465,0,0
3920,2024 10 19,05:24:42.657,0.415017,0.60809,-0.385765,0.556033,-1.026887,-0.023438,0.078616,-0.366211,-6.591797,-12.634277,0,0
3921,2024 10 19,05:24:42.665,0.415805,0.608887,-0.385244,0.554932,-1.127964,-0.032716,-0.078616,-3.295898,-7.324219,-19.287109,0,0
3922,2024 10 19,05:24:42.673,0.417147,0.609643,-0.384529,0.553589,-1.112339,-0.042482,-0.107425,-8.911133,-3.601074,-24.780273,0,0
3923,2024 10 19,05:24:42.682,0.417147,0.609643,-0.384529,0.553589,-1.112339,-0.042482,-0.107425,-8.911133,-3.601074,-24.780273,0,0
3924,2024 10 19,05:24:42.690,0.418977,0.610146,-0.383694,0.552231,-1.100131,-0.060549,-0.078616,-11.779785,0.793457,-26.794434,0,0
3925,2024 10 19,05:24:42.698,0.421118,0.610335,-0.382692,0.551087,-1.096713,-0.043458,-0.089358,-13.122559,6.530762,-27.34375,0,0
3926,2024 10 19,05:24:42.707,0.423434,0.610315,-0.38146,0.550188,-1.063509,-0.009278,0.011231,-11.779785,11.230469,-28.015137,0,0
3927,2024 10 19,05:24:42.715,0.42561,0.610246,-0.379797,0.549736,-0.978057,-0.018555,0.084475,-4.882813,15.136719,-27.34375,0,0
3928,2024 10 19,05:24:42.723,0.427413,0.610348,-0.377946,0.5495,-0.926298,-0.049806,0.058107,-2.01416,12.695313,-26.306152,0,0
3929,2024 10 19,05:24:42.732,0.427413,0.610348,-0.377946,0.5495,-0.926298,-0.049806,0.058107,-2.01416,12.695313,-26.306152,0,0
3930,2024 10 19,05:24:42.740,0.428865,0.610728,-0.376276,0.549092,-0.969268,-0.081057,0.037599,1.403809,7.8125,-24.414063,0,0
3931,2024 10 19,05:24:42.748,0.430168,0.611198,-0.374578,0.548711,-1.008332,-0.049806,0.058107,3.112793,7.93457,-24.353027,0,0
3932,2024 10 19,05:24:42.757,0.431131,0.611929,-0.372654,0.548451,-0.977081,-0.049806,0.072268,9.521484,5.79834,-24.414063,0,0
3933,2024 10 19,05:24:42.765,0.431898,0.612795,-0.370641,0.548244,-0.995636,-0.01709,0.125492,9.521484,5.615234,-24.169922,0,0
3934,2024 10 19,05:24:42.773,0.432471,0.613691,-0.368338,0.548342,-1.039582,-0.054689,0.103519,17.211914,9.521484,-23.620605,0,0
3935,2024 10 19,05:24:42.782,0.432471,0.613691,-0.368338,0.548342,-1.039582,-0.054689,0.103519,17.211914,9.521484,-23.620605,0,0
3936,2024 10 19,05:24:42.790,0.433041,0.61446,-0.365656,0.548826,-0.971221,-0.088382,0.106937,19.226074,14.648438,-23.742676,0,0
3937,2024 10 19,05:24:42.798,0.433566,0.615004,-0.362889,0.549638,-0.96878,-0.077151,0.027833,19.348145,17.333984,-20.812988,0,0
3938,2024 10 19,05:24:42.807,0.434055,0.615542,-0.360357,0.550316,-0.969756,-0.097171,0.115238,17.028809,15.625,-19.958496,0,0
3939,2024 10 19,05:24:42.815,0.434707,0.615894,-0.357896,0.551013,-0.971709,-0.141118,0.047365,14.160156,16.662598,-20.019531,0,0
3940,2024 10 19,05:24:42.823,0.435382,0.616254,-0.355596,0.551566,-1.044954,-0.139164,0.053713,13.183594,14.953613,-19.40918,0,0
3941,2024 10 19,05:24:42.832,0.435382,0.616254,-0.355596,0.551566,-1.044954,-0.139164,0.053713,13.183594,14.953613,-19.40918,0,0
3942,2024 10 19,05:24:42.840,0.436346,0.616366,-0.353251,0.552186,-1.063997,-0.111332,0.01709,10.620117,20.935059,-20.385742,0,0
3943,2024 10 19,05:24:42.848,0.43774,0.616179,-0.350791,0.552859,-1.050813,-0.081545,0.030274,6.225586,23.681641,-22.888184,0,0
3944,2024 10 19,05:24:42.857,0.439453,0.615938,-0.348429,0.553262,-1.043977,-0.155766,0.109378,2.258301,22.827148,-25.878906,0,0
3945,2024 10 19,05:24:42.865,0.441662,0.615684,-0.346141,0.553222,-1.026399,-0.094729,0.16895,-3.295898,19.897461,-30.456543,0,0
3946,2024 10 19,05:24:42.873,0.443897,0.61581,-0.343752,0.552781,-1.083529,-0.051759,0.161138,-4.516602,13.916016,-36.132813,0,0
3947,2024 10 19,05:24:42.882,0.443897,0.61581,-0.343752,0.552781,-1.083529,-0.051759,0.161138,-4.516602,13.916016,-36.132813,0,0
3948,2024 10 19,05:24:42.890,0.446312,0.616262,-0.34111,0.55197,-1.195837,-0.166997,0.046388,0.0,14.770508,-42.114258,0,0
3949,2024 10 19,05:24:42.898,0.449519,0.616903,-0.338295,0.550382,-1.201697,-0.090335,0.064943,-10.192871,9.216309,-54.077148,0,0
3950,2024 10 19,05:24:42.907,0.453383,0.617852,-0.335242,0.548011,-1.360393,-0.113285,0.051271,-14.587402,7.751465,-65.551758,0,0
3951,2024 10 19,05:24:42.915,0.458383,0.618816,-0.331677,0.544924,-1.410199,-0.096194,0.034181,-21.54541,10.559082,-81.176758,0,0
3952,2024 10 19,05:24:42.923,0.464584,0.619676,-0.327344,0.541303,-1.40141,-0.037111,0.119144,-26.672363,16.601563,-97.106934,0,0
3953,2024 10 19,05:24:42.932,0.464584,0.619676,-0.327344,0.541303,-1.40141,-0.037111,0.119144,-26.672363,16.601563,-97.106934,0,0
3954,2024 10 19,05:24:42.940,0.47136,0.620868,-0.322036,0.537248,-1.418012,-0.031251,0.172857,-22.033691,16.601563,-111.083984,0,0
3955,2024 10 19,05:24:42.948,0.478485,0.622574,-0.315592,0.53278,-1.400433,-0.006836,0.15479,-16.174316,19.714355,-125.427246,0,0
3956,2024 10 19,05:24:42.957,0.485617,0.624637,-0.307638,0.528549,-1.431684,-0.008301,0.182623,-3.112793,26.733398,-135.620117,0,0
3957,2024 10 19,05:24:42.965,0.49286,0.627486,-0.298384,0.523752,-1.595752,0.005371,0.195318,6.164551,24.536133,-154.663086,0,0
3958,2024 10 19,05:24:42.973,0.500738,0.630945,-0.287261,0.518316,-1.786676,0.010254,0.073733,14.404297,30.456543,-179.077148,0,0
3959,2024 10 19,05:24:42.982,0.509512,0.63502,-0.274087,0.511883,-2.136296,0.029786,0.016602,17.76123,36.254883,-209.899902,0,0
3960,2024 10 19,05:24:42.990,0.509512,0.63502,-0.274087,0.511883,-2.136296,0.029786,0.016602,17.76123,36.254883,-209.899902,0,0
3961,2024 10 19,05:24:42.998,0.520472,0.638925,-0.258285,0.504155,-2.468825,0.094729,-0.063478,7.8125,53.588867,-252.502441,0,0
3962,2024 10 19,05:24:43.007,0.534105,0.641961,-0.238866,0.495541,-2.748131,0.192877,-0.221198,2.868652,84.594727,-300.109863,0,0
3963,2024 10 19,05:24:43.015,0.550072,0.644345,-0.215313,0.485675,-3.041597,0.358409,-0.037599,5.249023,110.656738,-352.844238,0,0
3964,2024 10 19,05:24:43.023,0.568328,0.645692,-0.18678,0.47455,-3.381451,0.320322,-0.297861,5.249023,146.057129,-411.010742,0,0
3965,2024 10 19,05:24:43.032,0.588478,0.645904,-0.152945,0.461637,-4.13831,0.230964,-0.099612,8.361816,180.297852,-472.473145,0,0
3966,2024 10 19,05:24:43.040,0.588478,0.645904,-0.152945,0.461637,-4.13831,0.230964,-0.099612,8.361816,180.297852,-472.473145,0,0
3967,2024 10 19,05:24:43.048,0.610669,0.643055,-0.112696,0.448177,-4.234993,-0.064943,-0.169439,3.234863,241.333008,-529.785156,0,0
3968,2024 10 19,05:24:43.057,0.632396,0.639299,-0.069,0.431984,-4.49379,-0.572283,-0.41261,18.859863,236.694336,-566.040039,0,0
3969,2024 10 19,05:24:43.065,0.653873,0.632519,-0.023633,0.414501,-4.08948,-0.179205,-0.804712,-6.774902,265.380859,-580.444336,0,1
3970,2024 10 19,05:24:43.073,0.67465,0.622231,0.021583,0.396497,-3.374615,0.465346,-0.956084,-28.137207,268.432617,-574.645996,0,0
3971,2024 10 19,05:24:43.082,0.694629,0.609522,0.064812,0.376526,-3.338481,1.356975,-1.168981,-42.541504,241.577148,-575.744629,0,0
3972,2024 10 19,05:24:43.090,0.694629,0.609522,0.064812,0.376526,-3.338481,1.356975,-1.168981,-42.541504,241.577148,-575.744629,0,0
3973,2024 10 19,05:24:43.098,0.71315,0.595737,0.106217,0.353881,-2.25837,1.848689,-1.704642,-44.677734,217.102051,-574.707031,0,0
3974,2024 10 19,05:24:43.107,0.728871,0.58442,0.142941,0.326752,-1.909726,1.441939,-1.270547,-27.282715,122.375488,-564.27002,0,0
3975,2024 10 19,05:24:43.115,0.745478,0.571504,0.172328,0.296561,-0.364269,1.484909,-2.407788,-79.528809,47.424316,-525.57373,0,0
3976,2024 10 19,05:24:43.123,0.760683,0.559958,0.187903,0.269261,2.814051,1.670461,-1.366253,-106.262207,-67.382813,-354.431152,0,0
3977,2024 10 19,05:24:43.132,0.770843,0.552161,0.183721,0.259165,0.73928,3.14951,0.659688,-126.953125,-93.811035,-8.850098,0,0
3978,2024 10 19,05:24:43.140,0.770843,0.552161,0.183721,0.259165,0.73928,3.14951,0.659688,-126.953125,-93.811035,-8.850098,0,0
3979,2024 10 19,05:24:43.148,0.768955,0.553037,0.169449,0.272296,-0.691427,2.272042,-0.494644,-25.878906,-39.367676,279.11377,0,0
3980,2024 10 19,05:24:43.157,0.758592,0.559632,0.14896,0.298598,-1.712943,1.283242,-0.04297,23.864746,9.82666,431.335449,0,0
3981,2024 10 19,05:24:43.165,0.743272,0.566201,0.130963,0.331377,-1.410688,0.531266,-0.693381,42.053223,62.072754,453.308105,0,0
3982,2024 10 19,05:24:43.173,0.728337,0.57269,0.112185,0.359118,-0.923856,0.312998,-0.792505,34.912109,9.277344,403.808594,0,0
3983,2024 10 19,05:24:43.182,0.71555,0.578589,0.093067,0.380212,-0.245125,0.167974,-1.188513,17.822266,-42.724609,343.017578,0,0
3984,2024 10 19,05:24:43.190,0.71555,0.578589,0.093067,0.380212,-0.245125,0.167974,-1.188513,17.822266,-42.724609,343.017578,0,0
3985,2024 10 19,05:24:43.198,0.705114,0.585075,0.07049,0.394376,-0.141606,0.086428,-0.994171,-1.953125,-126.89209,312.072754,0,0
3986,2024 10 19,05:24:43.207,0.695826,0.591802,0.043211,0.404634,-0.417005,0.336924,-0.78811,-24.902344,-184.936523,313.842773,0,0
3987,2024 10 19,05:24:43.215,0.686179,0.598475,0.011673,0.41334,-0.855495,0.603046,-0.548845,-36.865234,-224.853516,333.984375,0,0
3988,2024 10 19,05:24:43.223,0.674829,0.604492,-0.022318,0.422726,-1.284219,0.720237,-0.296884,-37.902832,-224.060059,363.220215,0,0
3989,2024 10 19,05:24:43.232,0.661379,0.608695,-0.056416,0.434609,-1.432173,0.733421,-0.183599,-35.15625,-195.068359,390.930176,0,0
3990,2024 10 19,05:24:43.240,0.661379,0.608695,-0.056416,0.434609,-1.432173,0.733421,-0.183599,-35.15625,-195.068359,390.930176,0,0
3991,2024 10 19,05:24:43.248,0.646073,0.611136,-0.089991,0.448334,-1.385296,0.617206,-0.106449,-32.409668,-174.316406,408.447266,0,0
3992,2024 10 19,05:24:43.257,0.629528,0.612294,-0.123401,0.462128,-1.264687,0.50148,-0.163579,-33.02002,-173.217773,413.269043,0,0
3993,2024 10 19,05:24:43.265,0.6121,0.613063,-0.157408,0.474036,-1.297891,0.390149,-0.178228,-36.987305,-194.763184,407.714844,0,0
3994,2024 10 19,05:24:43.273,0.594033,0.613768,-0.192196,0.483192,-1.44731,0.373058,-0.172857,-42.419434,-220.64209,396.911621,0,0
3995,2024 10 19,05:24:43.282,0.575274,0.614401,-0.227446,0.489733,-1.717338,0.422376,0.0,-45.043945,-240.844727,386.779785,0,0
3996,2024 10 19,05:24:43.290,0.575274,0.614401,-0.227446,0.489733,-1.717338,0.422376,0.0,-45.043945,-240.844727,386.779785,0,0
3997,2024 10 19,05:24:43.298,0.555613,0.614439,-0.262283,0.494941,-1.989318,0.502457,0.165044,-41.625977,-243.286133,382.93457,0,0
3998,2024 10 19,05:24:43.307,0.534758,0.61337,-0.296039,0.500172,-2.144108,0.586444,0.316904,-31.982422,-230.834961,386.901855,0,0
3999,2024 10 19,05:24:43.315,0.512513,0.611103,-0.328207,0.506127,-2.198309,0.578143,0.354991,-16.784668,-215.942383,392.028809,0,0
4000,2024 10 19,05:24:43.323,0.488721,0.608301,-0.358873,0.512184,-2.263253,0.543474,0.342296,-0.183105,-212.524414,392.39502,0,0
4001,2024 10 19,05:24:43.332,0.463383,0.605701,-0.388121,0.517459,-2.412671,0.504898,0.347667,16.296387,-220.825195,385.253906,0,0
4002,2024 10 19,05:24:43.340,0.463383,0.605701,-0.388121,0.517459,-2.412671,0.504898,0.347667,16.296387,-220.825195,385.253906,0,0
4003,2024 10 19,05:24:43.348,0.436564,0.603681,-0.415972,0.521487,-2.620685,0.418958,0.414563,31.555176,-232.788086,376.159668,0,0
4004,2024 10 19,05:24:43.356,0.408474,0.601836,-0.442419,0.524603,-2.846278,0.158208,0.424329,44.921875,-237.976074,371.459961,0,0
4005,2024 10 19,05:24:43.365,0.37973,0.599382,-0.467177,0.527535,-3.153905,-0.366222,0.37843,54.870605,-226.623535,368.286133,0,0
4006,2024 10 19,05:24:43.373,0.351946,0.595608,-0.489571,0.530759,-3.244728,-0.9888,0.347667,56.70166,-199.584961,356.018066,0,0
4007,2024 10 19,05:24:43.381,0.325848,0.591161,-0.509672,0.533466,-3.21836,-1.648488,0.248054,53.344727,-183.59375,334.228516,0,0
4008,2024 10 19,05:24:43.390,0.325848,0.591161,-0.509672,0.533466,-3.21836,-1.648488,0.248054,53.344727,-183.59375,334.228516,0,0
4009,2024 10 19,05:24:43.398,0.3019,0.586307,-0.527748,0.535334,-2.96054,-2.374096,0.189459,43.395996,-165.83252,310.72998,0,0
4010,2024 10 19,05:24:43.406,0.280277,0.581763,-0.544211,0.535566,-2.417066,-2.959563,0.34962,29.47998,-164.733887,279.11377,0,0
4011,2024 10 19,05:24:43.415,0.260393,0.579776,-0.558858,0.532665,-1.862362,-3.233009,0.920927,20.202637,-192.077637,226.806641,0,0
4012,2024 10 19,05:24:43.423,0.241691,0.582356,-0.5704,0.526394,-1.692434,-3.404889,1.699759,27.404785,-229.187012,156.12793,0,0
4013,2024 10 19,05:24:43.431,0.224431,0.58924,-0.577677,0.518378,-1.899472,-3.843379,2.393628,45.410156,-240.600586,89.904785,0,0
4014,2024 10 19,05:24:43.440,0.209973,0.597318,-0.580907,0.511537,-2.595782,-4.525041,2.54207,59.570313,-199.279785,50.78125,0,0
4015,2024 10 19,05:24:43.448,0.209973,0.597318,-0.580907,0.511537,-2.595782,-4.525041,2.54207,59.570313,-199.279785,50.78125,0,0
4016,2024 10 19,05:24:43.456,0.202589,0.602122,-0.580382,0.509474,-2.811609,-5.171056,2.251045,53.527832,-70.251465,22.155762,0,0
4017,2024 10 19,05:24:43.465,0.206004,0.601775,-0.5765,0.512911,-1.863826,-4.837062,1.575732,19.165039,74.707031,-19.165039,0,0
4018,2024 10 19,05:24:43.473,0.215109,0.600973,-0.571008,0.516246,-1.085482,-3.859981,1.035676,-9.216309,83.740234,-64.51416,0,0
4019,2024 10 19,05:24:43.481,0.224456,0.602291,-0.565333,0.516976,-1.618702,-2.615803,0.768578,-18.371582,63.537598,-86.303711,0,0
4020,2024 10 19,05:24:43.490,0.25025,0.613689,-0.552495,0.50548,0.127445,-4.342418,0.43263,-19.592285,146.911621,-401.794434,0,0
4021,2024 10 19,05:24:43.498,0.25025,0.613689,-0.552495,0.50548,0.127445,-4.342418,0.43263,-19.592285,146.911621,-401.794434,0,0
4022,2024 10 19,05:24:43.506,0.318493,0.600864,-0.534696,0.501622,0.073244,5.3278,-5.574389,-368.713379,528.198242,-455.993652,1,0
4023,2024 10 19,05:24:43.515,0.333302,0.618761,-0.512586,0.493255,-3.630482,1.319864,5.530443,18.920898,-79.162598,-399.230957,0,0
4024,2024 10 19,05:24:43.523,0.360315,0.625342,-0.482383,0.496414,-0.845729,-0.491226,0.766137,28.320313,311.462402,-371.398926,0,0
4025,2024 10 19,05:24:43.531,0.373262,0.633325,-0.459783,0.49817,-2.296457,-0.876003,1.71392,42.175293,84.716797,-241.882324,0,0
4026,2024 10 19,05:24:43.540,0.3897,0.629862,-0.442776,0.505329,-1.496139,-0.695822,-0.650899,9.277344,269.470215,-136.779785,0,0
4027,2024 10 19,05:24:43.548,0.3897,0.629862,-0.442776,0.505329,-1.496139,-0.695822,-0.650899,9.277344,269.470215,-136.779785,0,0
4028,2024 10 19,05:24:43.556,0.398403,0.626004,-0.429775,0.514478,-1.124546,0.125492,-0.08301,54.138184,152.22168,-66.833496,0,0
4029,2024 10 19,05:24:43.565,0.399005,0.624355,-0.417803,0.525753,-1.039094,-0.376476,0.345225,124.389648,161.560059,-20.324707,0,0
4030,2024 10 19,05:24:43.573,0.401041,0.620142,-0.406416,0.537974,-0.773461,-0.35548,-0.416517,84.411621,164.489746,-16.601563,0,0
4031,2024 10 19,05:24:43.581,0.403031,0.61701,-0.398846,0.545698,-1.129429,-0.047365,-0.166509,46.325684,109.436035,-12.268066,0,0
4032,2024 10 19,05:24:43.590,0.403243,0.613666,-0.391587,0.554499,-1.14359,-0.139653,-0.023438,76.293945,125.12207,8.239746,0,0
4033,2024 10 19,05:24:43.598,0.403243,0.613666,-0.391587,0.554499,-1.14359,-0.139653,-0.023438,76.293945,125.12207,8.239746,0,0
4034,2024 10 19,05:24:43.606,0.40391,0.609347,-0.384472,0.563679,-0.640645,-0.127934,0.211432,53.588867,120.788574,5.92041,0,0
4035,2024 10 19,05:24:43.615,0.404284,0.606908,-0.379851,0.569149,-0.853542,-0.06006,0.162114,38.269043,62.561035,1.647949,0,0
4036,2024 10 19,05:24:43.623,0.404099,0.605406,-0.376518,0.573081,-0.983917,-0.058107,0.055177,32.653809,49.865723,2.746582,0,0
4037,2024 10 19,05:24:43.631,0.404244,0.604002,-0.373774,0.576248,-0.882351,-0.023927,0.074221,18.554688,40.161133,-0.366211,0,0
4038,2024 10 19,05:24:43.640,0.404416,0.603417,-0.372101,0.577821,-0.943388,-0.023438,0.099612,12.756348,17.51709,-3.967285,0,0
4039,2024 10 19,05:24:43.648,0.404416,0.603417,-0.372101,0.577821,-0.943388,-0.023438,0.099612,12.756348,17.51709,-3.967285,0,0
4040,2024 10 19,05:24:43.656,0.404772,0.603425,-0.37092,0.578322,-0.999054,0.02002,0.086428,5.79834,7.93457,-10.437012,0,0
4041,2024 10 19,05:24:43.665,0.405465,0.603944,-0.369766,0.578034,-1.095737,0.000488,-0.022462,3.90625,1.342773,-18.493652,0,0
4042,2024 10 19,05:24:43.673,0.406635,0.60457,-0.368413,0.57742,-1.126011,-0.026856,-0.06885,-0.244141,4.272461,-24.230957,0,0
4043,2024 10 19,05:24:43.681,0.408327,0.604925,-0.366861,0.576843,-1.091342,-0.06885,-0.086917,-3.78418,8.972168,-27.160645,0,0
4044,2024 10 19,05:24:43.690,0.410394,0.605131,-0.365481,0.576035,-1.040559,-0.039552,0.000488,-7.873535,8.117676,-28.076172,0,0
4045,2024 10 19,05:24:43.698,0.410394,0.605131,-0.365481,0.576035,-1.040559,-0.039552,0.000488,-7.873535,8.117676,-28.076172,0,0
4046,2024 10 19,05:24:43.706,0.412357,0.605288,-0.364087,0.575351,-0.998566,-0.025391,0.088382,-5.92041,9.521484,-26.184082,0,0
4047,2024 10 19,05:24:43.715,0.414129,0.605406,-0.362483,0.574967,-0.961943,-0.012696,0.114261,-1.281738,10.864258,-25.390625,0,0
4048,2024 10 19,05:24:43.723,0.415535,0.605866,-0.360823,0.574512,-0.963408,-0.071291,0.058107,1.77002,5.371094,-25.20752,0,0
4049,2024 10 19,05:24:43.731,0.416855,0.606564,-0.359308,0.573768,-0.993683,-0.018067,0.102542,3.112793,2.441406,-25.634766,0,0
4050,2024 10 19,05:24:43.740,0.417923,0.607456,-0.357579,0.573127,-1.019562,-0.033204,0.062014,5.371094,2.197266,-26.489258,0,0
4051,2024 10 19,05:24:43.748,0.417923,0.607456,-0.357579,0.573127,-1.019562,-0.033204,0.062014,5.371094,2.197266,-26.489258,0,0
4052,2024 10 19,05:24:43.756,0.418887,0.608334,-0.355714,0.572652,-0.987335,-0.049318,0.051271,7.568359,3.356934,-25.512695,0,0
4053,2024 10 19,05:24:43.765,0.419624,0.609324,-0.35383,0.572227,-1.035676,-0.06299,0.080081,12.084961,2.563477,-23.986816,0,0
4054,2024 10 19,05:24:43.773,0.420387,0.610158,-0.351675,0.572108,-0.998077,-0.058596,0.110843,13.977051,8.605957,-24.108887,0,0
4055,2024 10 19,05:24:43.781,0.421052,0.610769,-0.349247,0.572453,-0.964385,-0.088382,0.063478,15.686035,13.061523,-21.66748,0,0
4056,2024 10 19,05:24:43.790,0.421772,0.611327,-0.347062,0.572656,-0.981964,-0.083987,0.11182,12.390137,10.620117,-21.179199,0,0
4057,2024 10 19,05:24:43.798,0.421772,0.611327,-0.347062,0.572656,-0.981964,-0.083987,0.11182,12.390137,10.620117,-21.179199,0,0
4058,2024 10 19,05:24:43.806,0.422506,0.611872,-0.344975,0.572795,-0.986847,-0.096683,0.127445,11.59668,9.94873,-21.240234,0,0
4059,2024 10 19,05:24:43.815,0.423347,0.612303,-0.342886,0.572967,-1.000031,-0.11182,0.108402,9.70459,11.59668,-21.30127,0,0
4060,2024 10 19,05:24:43.823,0.424261,0.61272,-0.340802,0.573089,-1.046419,-0.10889,0.112308,8.483887,10.742188,-22.338867,0,0
4061,2024 10 19,05:24:43.831,0.425472,0.613093,-0.338719,0.573027,-1.060091,-0.039552,0.103519,4.699707,11.59668,-25.695801,0,0
4062,2024 10 19,05:24:43.840,0.427039,0.613257,-0.336418,0.573041,-1.122593,-0.094729,0.045412,3.051758,16.235352,-28.991699,0,0
4063,2024 10 19,05:24:43.848,0.427039,0.613257,-0.336418,0.573041,-1.122593,-0.094729,0.045412,3.051758,16.235352,-28.991699,0,0
4064,2024 10 19,05:24:43.856,0.429117,0.613339,-0.334046,0.572789,-1.139195,-0.129887,0.01709,0.366211,17.76123,-33.38623,0,0
4065,2024 10 19,05:24:43.865,0.43173,0.61337,-0.331557,0.572238,-1.146031,-0.151372,0.061037,-3.234863,19.287109,-39.001465,0,0
4066,2024 10 19,05:24:43.873,0.4351,0.613307,-0.328929,0.571269,-1.076205,-0.051271,0.143071,-12.023926,18.188477,-47.485352,0,0
4067,2024 10 19,05:24:43.881,0.438566,0.613637,-0.326057,0.569909,-1.171422,-0.074709,0.113773,-9.94873,14.038086,-53.405762,0,0
4068,2024 10 19,05:24:43.890,0.442492,0.614122,-0.322844,0.568178,-1.251015,-0.101077,0.092288,-10.681152,15.808105,-61.645508,0,0
4069,2024 10 19,05:24:43.898,0.44712,0.614704,-0.319162,0.566001,-1.305704,-0.104984,0.06299,-14.526367,16.601563,-72.937012,0,0
4070,2024 10 19,05:24:43.906,0.44712,0.614704,-0.319162,0.566001,-1.305704,-0.104984,0.06299,-14.526367,16.601563,-72.937012,0,0
4071,2024 10 19,05:24:43.915,0.452618,0.615349,-0.314914,0.563304,-1.319865,-0.087893,0.092776,-19.104004,19.165039,-86.120605,0,0
4072,2024 10 19,05:24:43.923,0.458864,0.616059,-0.309931,0.56023,-1.412641,-0.095218,0.075686,-18.371582,22.583008,-98.327637,0,0
4073,2024 10 19,05:24:43.931,0.465781,0.616988,-0.304069,0.556701,-1.423872,-0.044435,0.129887,-18.554688,26.245117,-112.365723,0,0
4074,2024 10 19,05:24:43.940,0.473091,0.618123,-0.296912,0.553129,-1.523972,-0.01709,0.162114,-11.535645,30.944824,-126.647949,0,0
4075,2024 10 19,05:24:43.948,0.481051,0.619691,-0.288347,0.549027,-1.552782,0.02588,0.1919,-4.577637,35.827637,-145.996094,0,0
4076,2024 10 19,05:24:43.956,0.481051,0.619691,-0.288347,0.549027,-1.552782,0.02588,0.1919,-4.577637,35.827637,-145.996094,0,0
4077,2024 10 19,05:24:43.965,0.489336,0.621916,-0.277969,0.544522,-1.531785,0.081057,0.261727,8.605957,37.963867,-165.83252,0,0
4078,2024 10 19,05:24:43.973,0.497821,0.625225,-0.265832,0.539074,-1.723685,0.113285,0.202155,18.920898,33.630371,-190.429688,0,0
4079,2024 10 19,05:24:43.981,0.507009,0.629398,-0.251718,0.532389,-2.130924,0.083987,0.19776,26.245117,35.644531,-221.374512,0,0
4080,2024 10 19,05:24:43.990,0.518276,0.633245,-0.234808,0.524648,-2.51619,0.127445,-0.08301,20.751953,58.654785,-262.756348,0,0
4081,2024 10 19,05:24:43.998,0.531945,0.636489,-0.214414,0.515697,-2.820399,0.206549,-0.208014,18.005371,80.749512,-311.279297,0,0
4082,2024 10 19,05:24:44.006,0.531945,0.636489,-0.214414,0.515697,-2.820399,0.206549,-0.208014,18.005371,80.749512,-311.279297,0,0
4083,2024 10 19,05:24:44.015,0.548027,0.638859,-0.189836,0.505459,-3.240822,0.354503,-0.173833,16.784668,112.854004,-365.356445,0,0
4084,2024 10 19,05:24:44.023,0.566621,0.639553,-0.159812,0.494341,-3.630482,0.3296,-0.218757,18.371582,156.921387,-425.231934,0,0
4085,2024 10 19,05:24:44.031,0.587625,0.637986,-0.124232,0.481909,-3.729118,0.089358,-0.415052,11.413574,204.711914,-486.877441,0,0
4086,2024 10 19,05:24:44.040,0.61,0.635038,-0.084318,0.466387,-4.041627,-0.225593,-0.007813,19.226074,211.608887,-541.992188,0,0
4087,2024 10 19,05:24:44.048,0.632424,0.630238,-0.041043,0.448503,-4.080691,-0.484878,-0.141118,22.094727,222.106934,-576.049805,0,0
4088,2024 10 19,05:24:44.056,0.632424,0.630238,-0.041043,0.448503,-4.080691,-0.484878,-0.141118,22.094727,222.106934,-576.049805,0,0
4089,2024 10 19,05:24:44.065,0.654022,0.622942,0.00319,0.42917,-3.600208,-0.146489,-0.320322,2.197266,235.839844,-582.885742,0,1
4090,2024 10 19,05:24:44.073,0.674223,0.61286,0.046079,0.409514,-3.127048,0.394055,-0.769066,-19.40918,233.093262,-564.575195,0,0
4091,2024 10 19,05:24:44.081,0.693018,0.601024,0.086358,0.388636,-2.883877,0.941923,-1.158727,-31.921387,211.425781,-552.91748,0,0
4092,2024 10 19,05:24:44.090,0.709825,0.588767,0.122353,0.366784,-2.352123,1.087924,-1.308145,-25.939941,159.973145,-511.901855,0,0
4093,2024 10 19,05:24:44.098,0.725071,0.577388,0.151835,0.34328,-1.656789,1.326701,-1.329142,-54.443359,99.79248,-474.54834,0,0
4094,2024 10 19,05:24:44.106,0.725071,0.577388,0.151835,0.34328,-1.656789,1.326701,-1.329142,-54.443359,99.79248,-474.54834,0,0
4095,2024 10 19,05:24:44.115,0.740877,0.564807,0.174174,0.318995,-0.608417,0.452651,-2.446364,-107.421875,27.34375,-431.335449,0,0
4096,2024 10 19,05:24:44.123,0.758647,0.549,0.182118,0.299811,2.651936,1.070833,-1.206092,-205.749512,-43.395996,-237.182617,0,0
4097,2024 10 19,05:24:44.131,0.769638,0.537479,0.172577,0.298315,-0.089358,2.267159,-0.582049,-174.316406,-85.205078,63.232422,0,0
4098,2024 10 19,05:24:44.140,0.772372,0.532138,0.154697,0.310385,-0.992706,1.793023,0.289071,-144.53125,-65.368652,226.623535,0,0
4099,2024 10 19,05:24:44.148,0.769309,0.530847,0.136253,0.328331,-1.50444,1.39555,0.149907,-70.373535,-31.066895,278.930664,0,0
4100,2024 10 19,05:24:44.156,0.769309,0.530847,0.136253,0.328331,-1.50444,1.39555,0.149907,-70.373535,-31.066895,278.930664,0,0
4101,2024 10 19,05:24:44.165,0.763159,0.531875,0.121498,0.346318,-0.965361,1.013703,-0.479507,-20.935059,-11.108398,257.995605,0,0
4102,2024 10 19,05:24:44.173,0.755791,0.535594,0.108717,0.360693,-0.467299,0.672872,-0.645039,13.793945,-32.409668,225.463867,0,0
4103,2024 10 19,05:24:44.181,0.748044,0.541307,0.095689,0.371834,-0.150395,0.456069,-0.704123,30.151367,-66.345215,211.364746,0,0
4104,2024 10 19,05:24:44.190,0.739806,0.548638,0.07996,0.381169,-0.185553,0.526872,-0.609394,34.973145,-108.154297,223.876953,0,0
4105,2024 10 19,05:24:44.198,0.730539,0.557085,0.060767,0.390225,-0.440443,0.591815,-0.556658,36.254883,-140.258789,250.854492,0,0
4106,2024 10 19,05:24:44.206,0.730539,0.557085,0.060767,0.390225,-0.440443,0.591815,-0.556658,36.254883,-140.258789,250.854492,0,0
4107,2024 10 19,05:24:44.215,0.719878,0.566137,0.03859,0.39972,-0.740745,0.567888,-0.413587,36.987305,-159.667969,278.076172,0,0
4108,2024 10 19,05:24:44.223,0.707855,0.57486,0.014737,0.410196,-0.795434,0.520035,-0.321299,34.484863,-161.071777,300.598145,0,0
4109,2024 10 19,05:24:44.231,0.694726,0.583047,-0.010529,0.421073,-0.772973,0.482437,-0.298837,30.700684,-170.898438,316.650391,0,0
4110,2024 10 19,05:24:44.240,0.680635,0.590927,-0.037647,0.431422,-0.839869,0.446303,-0.241707,25.32959,-188.659668,329.040527,0,0
4111,2024 10 19,05:24:44.248,0.665673,0.598231,-0.066668,0.441083,-0.90286,0.427747,-0.195807,16.174316,-205.871582,340.759277,0,0
4112,2024 10 19,05:24:44.256,0.665673,0.598231,-0.066668,0.441083,-0.90286,0.427747,-0.195807,16.174316,-205.871582,340.759277,0,0
4113,2024 10 19,05:24:44.265,0.649893,0.604782,-0.097627,0.44983,-1.035676,0.409192,-0.141606,5.310059,-224.182129,351.074219,0,0
4114,2024 10 19,05:24:44.273,0.633391,0.610449,-0.130353,0.457357,-1.236854,0.386731,-0.077151,-6.835938,-241.699219,357.788086,0,0
4115,2024 10 19,05:24:44.281,0.616254,0.614888,-0.164486,0.463776,-1.412153,0.407239,0.016114,-20.568848,-252.502441,364.501953,0,0
4116,2024 10 19,05:24:44.290,0.598392,0.617736,-0.199647,0.469542,-1.597217,0.476089,0.136235,-32.348633,-255.187988,374.450684,0,0
4117,2024 10 19,05:24:44.298,0.579733,0.618667,-0.235051,0.475301,-1.757378,0.53029,0.245613,-39.306641,-247.131348,383.544922,0,0
4118,2024 10 19,05:24:44.306,0.579733,0.618667,-0.235051,0.475301,-1.757378,0.53029,0.245613,-39.306641,-247.131348,383.544922,0,0
4119,2024 10 19,05:24:44.315,0.560255,0.617911,-0.269899,0.481097,-1.977599,0.54445,0.39259,-40.100098,-236.14502,387.145996,0,0
4120,2024 10 19,05:24:44.323,0.540024,0.615586,-0.303489,0.487157,-2.056215,0.588885,0.497085,-35.400391,-219.543457,388.85498,0,0
4121,2024 10 19,05:24:44.331,0.518708,0.611927,-0.33573,0.493734,-2.059633,0.638691,0.503433,-25.512695,-206.665039,394.897461,0,0
4122,2024 10 19,05:24:44.340,0.495459,0.607449,-0.367247,0.500656,-2.161199,0.67629,0.507828,-10.864258,-206.420898,408.02002,0,0
4123,2024 10 19,05:24:44.348,0.469853,0.602298,-0.398291,0.507779,-2.434645,0.640156,0.46144,5.310059,-208.190918,422.302246,0,0
4124,2024 10 19,05:24:44.356,0.442028,0.596657,-0.428549,0.51474,-2.810144,0.345225,0.358898,21.484375,-213.562012,430.908203,0,0
4125,2024 10 19,05:24:44.365,0.442028,0.596657,-0.428549,0.51474,-2.810144,0.345225,0.358898,21.484375,-213.562012,430.908203,0,0
4126,2024 10 19,05:24:44.373,0.412832,0.590137,-0.457695,0.521367,-3.139256,-0.290536,0.147465,28.137207,-208.190918,436.523438,0,0
4127,2024 10 19,05:24:44.381,0.383573,0.581947,-0.485636,0.527605,-3.296976,-1.049348,0.109867,23.742676,-193.908691,439.331055,0,0
4128,2024 10 19,05:24:44.390,0.35521,0.572666,-0.512073,0.532598,-3.367779,-1.852596,0.227058,15.258789,-187.5,424.560547,0,0
4129,2024 10 19,05:24:44.398,0.32842,0.564009,-0.535934,0.535546,-3.428816,-2.658284,0.403333,14.343262,-186.157227,385.375977,0,0
4130,2024 10 19,05:24:44.406,0.304439,0.557358,-0.555628,0.536606,-3.135838,-3.160253,0.748558,20.263672,-178.588867,319.702148,0,0
4131,2024 10 19,05:24:44.415,0.304439,0.557358,-0.555628,0.536606,-3.135838,-3.160253,0.748558,20.263672,-178.588867,319.702148,0,0
4132,2024 10 19,05:24:44.423,0.283429,0.554691,-0.570104,0.535693,-2.299875,-3.313089,1.251015,37.963867,-185.72998,233.703613,0,0
4133,2024 10 19,05:24:44.431,0.263622,0.557818,-0.579642,0.532314,-1.637745,-3.492782,1.822321,64.880371,-221.252441,151.062012,0,0
4134,2024 10 19,05:24:44.440,0.243834,0.566285,-0.584883,0.527046,-1.734916,-3.89172,2.352611,94.238281,-250.549316,87.768555,0,0
4135,2024 10 19,05:24:44.448,0.225434,0.576836,-0.58641,0.522075,-2.498123,-4.669576,2.451247,112.182617,-228.45459,51.940918,0,0
4136,2024 10 19,05:24:44.456,0.213665,0.583948,-0.584624,0.52112,-2.883877,-5.418622,2.169012,99.487305,-101.013184,30.700684,0,0
4137,2024 10 19,05:24:44.465,0.213665,0.583948,-0.584624,0.52112,-2.883877,-5.418622,2.169012,99.487305,-101.013184,30.700684,0,0
4138,2024 10 19,05:24:44.473,0.21364,0.58513,-0.579958,0.525004,-2.107975,-5.171545,1.652882,49.865723,47.851563,-11.291504,0,0
4139,2024 10 19,05:24:44.481,0.221197,0.585319,-0.573962,0.528244,-1.511277,-3.917112,1.391644,4.455566,73.120117,-65.368652,0,0
4140,2024 10 19,05:24:44.490,0.231009,0.586736,-0.56726,0.52971,-6.940641,-1.180212,-3.59093,-11.84082,77.392578,-96.923828,0,0
4141,2024 10 19,05:24:44.498,0.264146,0.594917,-0.554117,0.518898,0.548357,-1.280801,-1.149937,-70.678711,343.566895,-380.67627,0,0
4142,2024 10 19,05:24:44.506,0.321691,0.58552,-0.537788,0.514261,0.853053,5.49968,-4.739402,-224.42627,370.422363,-421.142578,0,0
4143,2024 10 19,05:24:44.515,0.321691,0.58552,-0.537788,0.514261,0.853053,5.49968,-4.739402,-224.42627,370.422363,-421.142578,0,0
4144,2024 10 19,05:24:44.523,0.338053,0.604996,-0.520223,0.499068,-3.194922,1.204627,5.159825,-45.471191,-77.941895,-427.429199,1,0
4145,2024 10 19,05:24:44.531,0.368615,0.612268,-0.48855,0.500569,-0.83108,-0.285653,0.405774,29.541016,304.626465,-416.381836,0,0
4146,2024 10 19,05:24:44.540,0.38347,0.622378,-0.463067,0.501164,-2.460524,-1.208045,1.360393,57.617188,92.651367,-278.930664,0,0
4147,2024 10 19,05:24:44.548,0.400416,0.620364,-0.444238,0.507412,-1.838923,-0.330576,-0.48439,13.85498,273.55957,-160.27832,0,0
4148,2024 10 19,05:24:44.556,0.409388,0.616704,-0.426869,0.519481,-0.972686,-0.275399,-0.355968,102.294922,197.631836,-80.383301,0,0
4149,2024 10 19,05:24:44.565,0.409388,0.616704,-0.426869,0.519481,-0.972686,-0.275399,-0.355968,102.294922,197.631836,-80.383301,0,0
4150,2024 10 19,05:24:44.573,0.409813,0.61613,-0.413487,0.530534,-0.999054,-0.355968,0.546892,131.774902,143.554688,-31.616211,0,0
4151,2024 10 19,05:24:44.581,0.410765,0.613259,-0.40119,0.542432,-0.782739,-0.423841,-0.272958,104.187012,163.635254,-20.629883,0,0
4152,2024 10 19,05:24:44.590,0.412133,0.610424,-0.392641,0.550783,-1.040559,-0.112796,-0.401868,59.936523,107.666016,-11.71875,0,0
4153,2024 10 19,05:24:44.598,0.411416,0.608382,-0.385999,0.558223,-1.035676,-0.21485,0.355968,72.509766,98.083496,5.92041,0,0
4154,2024 10 19,05:24:44.606,0.412153,0.604775,-0.379738,0.565841,-0.650899,-0.088382,0.095706,45.10498,102.294922,2.685547,0,0
4155,2024 10 19,05:24:44.615,0.412153,0.604775,-0.379738,0.565841,-0.650899,-0.088382,0.095706,45.10498,102.294922,2.685547,0,0
4156,2024 10 19,05:24:44.623,0.411933,0.603241,-0.376097,0.570055,-0.93997,-0.1377,-0.006836,34.851074,40.710449,3.540039,0,0
4157,2024 10 19,05:24:44.631,0.411425,0.602398,-0.373708,0.572878,-0.98294,-0.069338,0.264657,25.939941,36.621094,4.02832,0,0
4158,2024 10 19,05:24:44.640,0.411496,0.601053,-0.371373,0.57575,-0.898953,-0.036622,-0.04004,18.554688,35.400391,1.77002,0,0
4159,2024 10 19,05:24:44.648,0.411236,0.60083,-0.370206,0.576919,-0.96585,-0.059572,0.145512,11.047363,8.300781,-0.854492,0,0
4160,2024 10 19,05:24:44.656,0.411175,0.600866,-0.369373,0.577459,-0.977569,-0.047853,0.105472,8.178711,6.896973,-3.662109,0,0
4161,2024 10 19,05:24:44.665,0.411175,0.600866,-0.369373,0.577459,-0.977569,-0.047853,0.105472,8.178711,6.896973,-3.662109,0,0
4162,2024 10 19,05:24:44.673,0.411342,0.60104,-0.368748,0.577558,-1.014679,-0.069338,-0.044923,2.685547,0.183105,-6.469727,0,0
4163,2024 10 19,05:24:44.681,0.411742,0.601432,-0.368591,0.576965,-1.06888,-0.052736,0.026368,-4.516602,-4.02832,-9.033203,0,0
4164,2024 10 19,05:24:44.690,0.412723,0.601526,-0.368425,0.576272,-1.106479,-0.037111,-0.097171,-9.094238,0.244141,-12.329102,0,0
4165,2024 10 19,05:24:44.698,0.414071,0.601537,-0.36819,0.575444,-1.119175,-0.02002,-0.039064,-11.779785,2.319336,-15.563965,0,0
4166,2024 10 19,05:24:44.706,0.415792,0.601231,-0.36753,0.574943,-1.09183,0.014649,0.013672,-10.192871,11.352539,-18.066406,0,0
4167,2024 10 19,05:24:44.715,0.415792,0.601231,-0.36753,0.574943,-1.09183,0.014649,0.013672,-10.192871,11.352539,-18.066406,0,0
4168,2024 10 19,05:24:44.723,0.417688,0.6008,-0.366218,0.574856,-1.057161,0.012696,0.036622,-5.310059,18.005371,-21.42334,0,0
4169,2024 10 19,05:24:44.731,0.419567,0.600292,-0.364322,0.575224,-0.961455,-0.033204,0.124027,-0.305176,24.108887,-22.094727,0,0
4170,2024 10 19,05:24:44.740,0.42133,0.599779,-0.36226,0.575772,-0.916044,-0.079592,0.059084,1.403809,22.583008,-20.996094,0,0
