frame,date,time,quaternion_x_left,quaternion_y_left,quaternion_z_left,quaternion_w_left,accel_x_left,accel_y_left,accel_z_left,gyro_x_left,gyro_y_left,gyro_z_left,HS_left,TO_left,filtered_quaternion_x_left,filtered_quaternion_y_left,filtered_quaternion_z_left,filtered_quaternion_w_left,filtered_accel_x_left,filtered_accel_y_left,filtered_accel_z_left,filtered_gyro_x_left,filtered_gyro_y_left,filtered_gyro_z_left,quaternion_x_right,quaternion_y_right,quaternion_z_right,quaternion_w_right,accel_x_right,accel_y_right,accel_z_right,gyro_x_right,gyro_y_right,gyro_z_right,HS_right,TO_right,filtered_quaternion_x_right,filtered_quaternion_y_right,filtered_quaternion_z_right,filtered_quaternion_w_right,filtered_accel_x_right,filtered_accel_y_right,filtered_accel_z_right,filtered_gyro_x_right,filtered_gyro_y_right,filtered_gyro_z_right
5848,2024 8 08,15:40:58.136,-0.354661,-0.527465,0.43489,-0.637861,-0.969011,-0.180692,-0.068337,0.538316,-0.547201,-1.585415,0,0,-0.354661,-0.527465,0.43489,-0.637861,-0.969011,-0.180692,-0.068337,0.538316,-0.547201,-1.585415,-0.321735,-0.64666,0.244619,-0.646899,-1.042544,-0.107783,0.049704,0.364255,0.277488,-1.024236,0,0,-0.321735,-0.64666,0.244619,-0.646899,-1.042544,-0.107783,0.049704,0.364255,0.277488,-1.024236
5849,2024 8 08,15:40:58.144,-0.354545,-0.527364,0.434916,-0.637991,-0.968078,-0.179548,-0.067109,0.488851,-0.549292,-1.542874,0,0,-0.3546551999999999,-0.5274599499999999,0.4348913,-0.6378675,-0.9689643499999998,-0.1806347999999999,-0.0682755999999999,0.5358427499999999,-0.5473055499999999,-1.58328795,-0.321798,-0.646663,0.244514,-0.646905,-1.040099,-0.106464,0.04546,-0.116531,0.42554,-0.977105,0,0,-0.3217381499999999,-0.64666015,0.24461375,-0.6468993,-1.04242175,-0.10771705,0.0494917999999999,0.3402157,0.2848906,-1.02187945
5850,2024 8 08,15:40:58.152,-0.35446,-0.527282,0.434947,-0.638086,-0.964522,-0.181269,-0.067313,0.334148,-0.652081,-1.577712,0,0,-0.3546454399999999,-0.5274510524999999,0.434894085,-0.637878425,-0.9687422324999998,-0.1806665099999999,-0.0682274699999999,0.5257580125,-0.5525443224999999,-1.5830091524999998,-0.321845,-0.646665,0.244454,-0.646902,-1.045776,-0.124693,-0.014455,0.056326,0.308368,-0.857744,0,0,-0.3217434924999999,-0.6466603925,0.2446057625,-0.6468994349999999,-1.0425894624999998,-0.1085658474999999,0.0462944599999999,0.326021215,0.2860644699999999,-1.0136726774999998
5851,2024 8 08,15:40:58.161,-0.354381,-0.527193,0.434983,-0.638178,-0.966756,-0.181631,-0.071836,0.205153,-0.670591,-1.535927,0,0,-0.3546322179999999,-0.5274381498749998,0.4348985307499999,-0.63789340375,-0.9686429208749996,-0.1807147344999999,-0.0684078964999999,0.5097277618749999,-0.5584466563749999,-1.5806550448749996,-0.321846,-0.646665,0.244453,-0.646902,-1.045924,-0.107912,0.04785,0.060841,0.305307,-0.854626,0,0,-0.3217486178749998,-0.6466606228749999,0.2445981243749999,-0.6468995632499999,-1.0427561893749997,-0.1085331551249999,0.0463722369999999,0.3127622042499999,0.2870265964999999,-1.0057203436249995
5852,2024 8 08,15:40:58.169,-0.354309,-0.527103,0.435007,-0.638276,-0.9617,-0.183241,-0.073503,0.433611,-0.771056,-1.426722,0,0,-0.3546160570999999,-0.5274213923812497,0.4349039542124999,-0.6379125335625,-0.9682957748312496,-0.1808410477749999,-0.0686626516749999,0.5059219237812499,-0.56907712355625,-1.5729583926312496,-0.321887,-0.646664,0.244369,-0.646915,-1.048697,-0.115754,0.047853,0.406936,0.362835,-1.027456,0,0,-0.3217555369812498,-0.6466607917312498,0.2445866681562499,-0.6469003350874998,-1.0430532299062496,-0.1088941973687499,0.0464462751499999,0.3174708940374999,0.2908170166749999,-1.0068071264437497
5853,2024 8 08,15:40:58.177,-0.354296,-0.527087,0.435011,-0.638294,-0.960563,-0.183575,-0.073717,0.484495,-0.791906,-1.405395,0,0,-0.3546000542449999,-0.5274046727621872,0.4349093065018749,-0.6379316068843749,-0.9679091360896872,-0.18097774538625,-0.0689153690912499,0.5048505775921873,-0.5802185673784375,-1.564580222999687,-0.321937,-0.646655,0.244291,-0.646928,-1.047031,-0.107093,0.049671,0.255414,0.536402,-0.923278,0,0,-0.3217646101321873,-0.6466605021446873,0.2445718847484374,-0.6469017183331247,-1.0432521184109371,-0.1088041375003124,0.0466075113924999,0.3143680493356249,0.3030962658412499,-1.0026306701215622
5854,2024 8 08,15:40:58.186,-0.354238,-0.527012,0.435023,-0.63838,-0.965909,-0.183985,-0.070245,0.391131,-0.890166,-1.452358,0,0,-0.3545819515327499,-0.5273850391240777,0.4349149911767812,-0.6379540265401561,-0.9678091292852028,-0.1811281081169375,-0.0689818506366874,0.4991645987125779,-0.5957159390095155,-1.5589691118497029,-0.321974,-0.646654,0.244201,-0.646944,-1.046469,-0.110981,0.04442,0.469029,0.49226,-0.972157,0,0,-0.3217750796255779,-0.6466601770374529,0.2445533405110155,-0.6469038324164684,-1.0434129624903905,-0.1089129806252968,0.0464981358228749,0.3221010968688437,0.3125544525491874,-1.001106986615484
5855,2024 8 08,15:40:58.194,-0.354167,-0.526919,0.435037,-0.638486,-0.968326,-0.180641,-0.068279,0.368596,-0.9131,-1.415918,0,0,-0.3545612039561124,-0.5273617371678738,0.4349210916179421,-0.6379806252131482,-0.9678349728209426,-0.1811037527110906,-0.0689467081048531,0.492636168776949,-0.6115851420590397,-1.5518165562572177,-0.322014,-0.646659,0.244106,-0.646955,-1.043333,-0.107324,0.045317,0.376052,0.488662,-1.031334,0,0,-0.321787025644299,-0.6466601181855803,0.2445309734854648,-0.6469063907956449,-1.0434089643658708,-0.1088335315940319,0.0464390790317312,0.3247986420254015,0.321359829921728,-1.0026183372847095
5856,2024 8 08,15:40:58.202,-0.354099,-0.526813,0.435064,-0.638593,-0.966848,-0.182431,-0.073565,0.272347,-0.915264,-1.593367,0,0,-0.3545380937583067,-0.52733430030948,0.434928237037045,-0.6380112439524909,-0.9677856241798954,-0.1811701150755361,-0.0691776226996104,0.4816217103381015,-0.6267690849560876,-1.5538940784443565,-0.322035,-0.646679,0.244018,-0.646959,-1.044778,-0.112639,0.044531,0.748215,0.107385,-0.81924,0,0,-0.3217994243620841,-0.6466610622763014,0.2445053248111915,-0.6469090212558627,-1.0434774161475773,-0.1090238050143303,0.0463436750801446,0.3459694599241313,0.3106610884256416,-0.9934494204204742
5857,2024 8 08,15:40:58.211,-0.354033,-0.526701,0.435076,-0.638715,-0.965286,-0.184885,-0.071659,0.293956,-1.101139,-1.548539,0,0,-0.3545128390703914,-0.527302635294006,0.4349356251851927,-0.6380464317548663,-0.9676606429709008,-0.1813558593217593,-0.0693016915646299,0.4722384248211964,-0.6504875807082832,-1.5536263245221384,-0.322037,-0.646681,0.244008,-0.646959,-1.044933,-0.113207,0.044446,0.787996,0.06663,-0.796569,0,0,-0.3218113031439799,-0.6466620591624863,0.2444804585706319,-0.6469115201930695,-1.0435501953401984,-0.1092329647636138,0.0462487913261374,0.3680707869279248,0.2984595340043595,-0.9836053993994504
5858,2024 8 08,15:40:58.219,-0.353959,-0.52659,0.435081,-0.638843,-0.963829,-0.182534,-0.07055,0.486799,-1.151901,-1.574664,0,0,-0.3544851471168718,-0.5272670035293057,0.434942893925933,-0.638086260167123,-0.9674690608223556,-0.1814147663556713,-0.0693641069863984,0.4729664535801366,-0.675558251672869,-1.5546782082960315,-0.322066,-0.646693,0.243953,-0.646953,-1.047915,-0.112851,0.050365,0.157504,0.220585,-0.79387,0,0,-0.3218240379867808,-0.646663606204362,0.2444540856421003,-0.646913594183416,-1.0437684355731884,-0.1094138665254331,0.0464546017598305,0.3575424475815285,0.2945658073041415,-0.974118629429478
5859,2024 8 08,15:40:58.227,-0.353941,-0.526563,0.435082,-0.638875,-0.963469,-0.212851,-0.05012,0.540291,-1.158547,-1.585146,0,0,-0.3544579397610282,-0.5272318033528404,0.4349498492296363,-0.6381256971587669,-0.9672690577812376,-0.1829865780378877,-0.0684019016370784,0.4763326809011298,-0.6997076890892255,-1.55620159788123,-0.322099,-0.646697,0.243872,-0.646963,-1.041621,-0.111551,0.046127,0.33608,0.397411,-0.897964,0,0,-0.3218377860874418,-0.6466652758941439,0.2444249813599953,-0.6469160644742452,-1.043661063794529,-0.1095207231991615,0.046438221671839,0.356469325202452,0.2997080669389344,-0.970310897958004
5860,2024 8 08,15:40:58.236,-0.353892,-0.526474,0.435095,-0.638966,-0.9652,-0.183092,-0.068894,0.414222,-1.11493,-1.542076,0,0,-0.3544296427729768,-0.5271939131851983,0.4349571067681545,-0.6381677123008286,-0.9671656048921756,-0.1829918491359933,-0.0684265065552245,0.4732271468560732,-0.7204688046347643,-1.5554953179871684,-0.322133,-0.6467,0.243798,-0.646971,-1.042786,-0.106831,0.054593,0.206927,0.319539,-0.861262,0,0,-0.3218525467830697,-0.6466670120994367,0.2443936322919955,-0.646918811250533,-1.0436173106048026,-0.1093862370392034,0.046845960588247,0.3489922089423294,0.3006996135919876,-0.9648584530601038
5861,2024 8 08,15:40:58.244,-0.353834,-0.526358,0.435115,-0.639081,-0.964334,-0.184218,-0.070209,0.198302,-1.189309,-1.572559,0,0,-0.3543998606343279,-0.5271521175259384,0.4349650014297468,-0.638213376685787,-0.9670240246475668,-0.1830531566791936,-0.0685156312274633,0.4594808895132696,-0.7439108144030261,-1.55634850208781,-0.322167,-0.646702,0.24373,-0.646978,-1.038489,-0.106919,0.045722,0.187079,0.20586,-0.804766,0,0,-0.3218682694439161,-0.6466687614944647,0.2443604506773957,-0.6469217706880063,-1.0433608950745623,-0.1092628751872432,0.0467897625588347,0.3408965484952129,0.2959576329123882,-0.9568538304070986
5862,2024 8 08,15:40:58.252,-0.353778,-0.526237,0.435125,-0.639205,-0.963627,-0.183818,-0.071045,0.396069,-1.30195,-1.454134,0,0,-0.3543687676026115,-0.5271063616496414,0.4349730013582594,-0.6382629578514977,-0.9668541734151884,-0.1830913988452339,-0.0686420996660901,0.4563102950376061,-0.7718127736828748,-1.5512377769834194,-0.322175,-0.64673,0.243662,-0.646971,-1.045011,-0.107737,0.042656,0.334405,0.036552,-0.745267,0,0,-0.3218836059717203,-0.6466718234197415,0.2443255281435259,-0.646924232153606,-1.0434434003208342,-0.109186581427881,0.0465830744308929,0.3405719710704523,0.2829873512667688,-0.9462744888867436
5863,2024 8 08,15:40:58.261,-0.353727,-0.526129,0.435126,-0.639321,-0.965164,-0.185698,-0.070216,0.47094,-1.249384,-1.284703,0,0,-0.3543366792224809,-0.5270574935671593,0.4349806512903464,-0.6383158599589227,-0.966769664744429,-0.1832217289029722,-0.0687207946827856,0.4570417802857258,-0.795691334998731,-1.5379110381342482,-0.322176,-0.646735,0.24365,-0.64697,-1.046154,-0.10788,0.042118,0.36023,0.006874,-0.734837,0,0,-0.3218982256731342,-0.6466749822487544,0.2442917517363496,-0.6469265205459256,-1.0435789303047924,-0.109121252356487,0.0463598207093483,0.3415548725169297,0.2691816837034304,-0.9357026144424064
5864,2024 8 08,15:40:58.269,-0.353678,-0.526028,0.435121,-0.639435,-0.965375,-0.179735,-0.006246,0.442526,-1.141757,-1.191077,0,0,-0.3543037452613568,-0.5270060188888013,0.4349876687258291,-0.6383718169609766,-0.9666999315072076,-0.1830473924578236,-0.0655970549486463,0.4563159912714394,-0.8129946182487944,-1.5205693362275357,-0.322188,-0.646746,0.243582,-0.64698,-1.044017,-0.126847,0.009122,0.511823,0.246026,-0.781834,0,0,-0.3219127143894775,-0.6466785331363166,0.2442562641495321,-0.6469291945186293,-1.0436008337895528,-0.1100075397386626,0.0444979296738809,0.3500682788910831,0.2680238995182588,-0.9280091837202862
5865,2024 8 08,15:40:58.277,-0.353663,-0.525997,0.435119,-0.63947,-0.965364,-0.183295,-0.070757,0.430428,-1.107614,-1.166209,0,0,-0.3542717079982889,-0.5269555679443612,0.4349942352895377,-0.6384267261129277,-0.9666331349318472,-0.1830597728349324,-0.065855052201214,0.4550215917078675,-0.8277255873363547,-1.5028513194161588,-0.3222,-0.646762,0.243509,-0.646985,-1.043212,-0.112246,0.045602,0.541508,0.19621,-0.694389,0,0,-0.3219270786700036,-0.6466827064795008,0.2442189009420555,-0.6469319847926978,-1.0435813921000752,-0.1101194627517295,0.0445531331901868,0.359640264946529,0.2644332045423458,-0.9163281745342718
5866,2024 8 08,15:40:58.286,-0.353625,-0.525928,0.435111,-0.639553,-0.964372,-0.184142,-0.072444,0.510492,-1.141867,-1.161094,0,0,-0.3542393725983744,-0.526904189547143,0.4350000735250608,-0.6384830398072813,-0.9665200781852548,-0.1831138841931858,-0.0661844995911533,0.4577951121224741,-0.8434326579695369,-1.4857634534453508,-0.322215,-0.646776,0.24345,-0.646986,-1.044574,-0.112676,0.045071,0.308966,0.090503,-0.628672,0,0,-0.3219414747365035,-0.6466873711555257,0.2441804558949527,-0.6469346855530629,-1.0436310224950711,-0.110247289614143,0.0445790265306775,0.3571065516992026,0.2557366943152285,-0.901945365807558
5867,2024 8 08,15:40:58.294,-0.353572,-0.525847,0.435094,-0.63966,-0.965309,-0.186434,-0.072084,0.622033,-1.074069,-1.119218,0,0,-0.3542060039684557,-0.5268513300697858,0.4350047698488077,-0.6385418878169171,-0.966459524275992,-0.1832798899835265,-0.0664794746115956,0.4660070065163503,-0.85496447507106,-1.4674361807730834,-0.322233,-0.646783,0.243401,-0.646988,-1.043736,-0.126726,0.013147,0.211738,0.162039,-0.567369,0,0,-0.3219560509996783,-0.6466921525977494,0.2441414831002051,-0.6469373512754096,-1.0436362713703178,-0.1110712251334358,0.0430074252041436,0.3498381241142424,0.2510518095994671,-0.8852165475171802
5868,2024 8 08,15:40:58.302,-0.353512,-0.525776,0.43507,-0.639768,-0.964433,-0.185318,-0.072174,0.740272,-0.925377,-1.022936,0,0,-0.3541713037700329,-0.5267975635662965,0.4350080313563673,-0.6386031934260713,-0.9663581980621924,-0.1833817954843501,-0.0667642008810158,0.4797202561905327,-0.858485101317507,-1.4452111717344291,-0.322249,-0.646794,0.243359,-0.646985,-1.042057,-0.112433,0.04964,0.050132,-0.054803,-0.553591,0,0,-0.3219706984496943,-0.6466972449678619,0.2441023589451948,-0.6469397337116392,-1.043557307801802,-0.1111393138767641,0.0433390539439364,0.3348528179085303,0.2357590691194937,-0.8686352701413211
5869,2024 8 08,15:40:58.311,-0.353452,-0.525709,0.435045,-0.639873,-0.965302,-0.184758,-0.072563,0.700768,-0.792301,-0.948154,0,0,-0.3541353385815312,-0.5267431353879817,0.435009879788549,-0.6386666837547677,-0.9663053881590826,-0.1834506057101326,-0.067054140836965,0.4907726433810061,-0.8551758962516316,-1.4203583131477076,-0.322253,-0.646796,0.243349,-0.646984,-1.041664,-0.112707,0.049765,0.012323,-0.105535,-0.550367,0,0,-0.3219848135272096,-0.6467021827194688,0.2440646909979351,-0.6469419470260571,-1.0434626424117115,-0.1112176981829258,0.0436603512467396,0.3187263270131037,0.218694365663519,-0.852721856634255
5870,2024 8 08,15:40:58.319,-0.353391,-0.525646,0.435022,-0.639974,-0.964766,-0.186511,-0.071133,0.678869,-0.74767,-0.923836,0,0,-0.3540981216524546,-0.5266882786185826,0.4350104857991215,-0.6387320495670293,-0.9662284187511284,-0.183603625424626,-0.0672580837951168,0.5001774612119558,-0.84980060143905,-1.395532197490322,-0.322261,-0.646804,0.243312,-0.646987,-1.040476,-0.109498,0.044701,0.139616,0.06411,-0.458599,0,0,-0.3219986228508491,-0.6467072735834953,0.2440270564480383,-0.6469441996747543,-1.043313310291126,-0.1111317132737795,0.0437123836844026,0.3097708106624486,0.210965147380343,-0.8330157138025422
5871,2024 8 08,15:40:58.327,-0.353332,-0.525585,0.435004,-0.640069,-0.964485,-0.18631,-0.074574,0.673357,-0.697551,-0.878829,0,0,-0.3540598155698318,-0.5266331146876534,0.4350101615091654,-0.6387988970886779,-0.966141247813572,-0.1837389441533947,-0.0676238796053609,0.508836438151358,-0.8421881213670975,-1.369697037615806,-0.322273,-0.646814,0.243281,-0.646982,-1.042336,-0.110489,0.045224,0.081724,0.016879,-0.435501,0,0,-0.3220123417083066,-0.6467126099043206,0.2439897536256364,-0.6469460896910165,-1.0432644447765698,-0.1110995776100906,0.0437879645001825,0.2983684701293261,0.2012608400113259,-0.8131399781124151
5872,2024 8 08,15:40:58.336,-0.353311,-0.525563,0.434998,-0.640102,-0.964412,-0.186114,-0.076095,0.671922,-0.678496,-0.861105,0,0,-0.3540223747913402,-0.5265796089532707,0.4350095534337071,-0.6388640522342439,-0.9660547854228934,-0.1838576969457249,-0.0680474356250929,0.5169907162437901,-0.8340035152987426,-1.3442674357350155,-0.322292,-0.646825,0.243257,-0.646971,-1.040331,-0.110391,0.052117,-0.111146,-0.173217,-0.518391,0,0,-0.3220263246228912,-0.6467182294091045,0.2439531159443546,-0.6469473352064657,-1.0431177725377412,-0.111064148729586,0.0442044162751733,0.2778927466228598,0.1825369480107596,-0.7984025292067943
5873,2024 8 08,15:40:58.344,-0.353262,-0.525529,0.434972,-0.640175,-0.96196,-0.185453,-0.074375,0.899569,-0.673377,-0.818338,0,0,-0.3539843560517731,-0.5265270785056072,0.4350076757620217,-0.6389295996225317,-0.9658500461517486,-0.1839374620984387,-0.0683638138438382,0.5361196304316006,-0.8259721895338055,-1.3179709639482649,-0.322304,-0.646838,0.243228,-0.646963,-1.038034,-0.108607,0.049047,0.056778,-0.048494,-0.408815,0,0,-0.3220402083917467,-0.6467242179386493,0.2439168601471368,-0.6469481184461424,-1.042863583910854,-0.1109412912931067,0.0444465454614147,0.2668370092917168,0.1709854006102216,-0.7789231527464546
5874,2024 8 08,15:40:58.352,-0.353207,-0.525493,0.434938,-0.640259,-0.96331,-0.18698,-0.073269,0.922682,-0.5968,-0.725463,0,0,-0.3539454882491845,-0.5264753745803268,0.4350041919739206,-0.6389960696414051,-0.9657230438441612,-0.1840895889935167,-0.0686090731516463,0.5554477489100205,-0.8145135800571152,-1.2883455657508516,-0.322305,-0.646853,0.243209,-0.646954,-1.040527,-0.108809,0.047154,0.059809,-0.18779,-0.29157,0,0,-0.3220534479721593,-0.6467306570417168,0.2438814671397799,-0.6469484125238353,-1.0427467547153113,-0.1108346767284514,0.0445819181883439,0.2564856088271309,0.1530466305797105,-0.7545554951091319
5875,2024 8 08,15:40:58.361,-0.353152,-0.525459,0.434901,-0.640342,-0.961688,-0.188289,-0.077071,0.806153,-0.563367,-0.61306,0,0,-0.3539058138367252,-0.5264245558513104,0.4349990323752246,-0.6390633661593348,-0.965521291651953,-0.1842995595438409,-0.069032169494064,0.5679830114645195,-0.8019562510542593,-1.2545812874633089,-0.322305,-0.646853,0.243209,-0.646954,-1.041237,-0.108866,0.046615,0.060672,-0.227466,-0.258175,0,0,-0.3220660255735514,-0.646736774189631,0.2438478437827909,-0.6469486918976435,-1.0426712669795457,-0.1107362428920288,0.0446835722789267,0.2466949283857744,0.134020999050725,-0.7297364703536753
5876,2024 8 08,15:40:58.369,-0.353099,-0.525433,0.434855,-0.640424,-0.963198,-0.186705,-0.072357,0.938593,-0.627097,-0.495155,0,0,-0.353865473144889,-0.5263749780587449,0.4349918307564633,-0.639131397851368,-0.9654051270693552,-0.1844198315666488,-0.0691984110193608,0.5865135108912936,-0.7932132885015463,-1.2166099730901434,-0.322301,-0.646866,0.243199,-0.646947,-1.044505,-0.095257,-0.004812,-0.024084,-0.196574,-0.163393,0,0,-0.3220777742948738,-0.6467432354801494,0.2438154015936514,-0.6469486073027613,-1.0427629536305685,-0.1099622807474274,0.0422087936649804,0.2331559819664856,0.1174912490981887,-0.7014192968359915
5877,2024 8 08,15:40:58.377,-0.353059,-0.525412,0.434811,-0.640493,-0.964016,-0.187656,-0.073141,0.67956,-0.548528,-0.30294,0,0,-0.3538251494876445,-0.5263268291558076,0.4349827892186401,-0.6391994779587995,-0.9653356707158876,-0.1845816399883164,-0.0693955404683927,0.5911658353467288,-0.7809790240764689,-1.1709264744356362,-0.3223,-0.646864,0.24319,-0.646953,-1.04616,-0.112176,0.04342,-0.007494,0.022924,-0.05084,0,0,-0.3220888855801301,-0.646749273706142,0.2437841315139688,-0.6469488269376231,-1.04293280594904,-0.110072966710056,0.0422693539817314,0.2211234828681614,0.1127628866432793,-0.6688903319941919
5878,2024 8 08,15:40:58.386,-0.353044,-0.525403,0.434794,-0.64052,-0.964267,-0.188219,-0.073877,0.54921,-0.507472,-0.221276,0,0,-0.3537860920132623,-0.5262806376980173,0.434973349757708,-0.6392655040608595,-0.9652822371800932,-0.1847635079889005,-0.0696196134449731,0.5890680435793924,-0.7673036728726454,-1.1234439507138545,-0.322303,-0.646852,0.243184,-0.646966,-1.043341,-0.111268,0.044444,-0.085574,0.132083,-0.016194,0,0,-0.3220995913011236,-0.6467544100208349,0.2437541249382703,-0.646949685590742,-1.042953215651588,-0.1101327183745532,0.0423780862826448,0.2057886087247533,0.1137288923111153,-0.6362555153944823
5879,2024 8 08,15:40:58.394,-0.353014,-0.525392,0.434747,-0.640577,-0.965201,-0.187258,-0.074394,0.935189,-0.601298,-0.19554,0,0,-0.3537474874125991,-0.5262362058131164,0.4349620322698226,-0.6393310788578165,-0.9652781753210884,-0.1848882325894555,-0.0698583327727244,0.6063740914004228,-0.7590033892290131,-1.0770487531781616,-0.322311,-0.646833,0.243179,-0.646982,-1.044758,-0.110652,0.047401,-0.069029,0.207637,-0.005275,0,0,-0.3221101617360674,-0.6467583395197931,0.2437253686913568,-0.6469513013112048,-1.0430434548690084,-0.1101586824558255,0.0426292319685125,0.1920477282885156,0.1184242976955595,-0.6047064896247581
5880,2024 8 08,15:40:58.402,-0.352993,-0.525376,0.434698,-0.640636,-0.967042,-0.187899,-0.074886,0.632666,-0.542414,-0.081599,0,0,-0.3537097630419692,-0.5261931955224606,0.4349488306563315,-0.6393963249149257,-0.965366366555034,-0.1850387709599827,-0.0701097161340882,0.6076886868304016,-0.7481739197675624,-1.027276265519253,-0.322328,-0.646808,0.243165,-0.647005,-1.04554,-0.111757,0.045096,-0.063696,0.354154,-0.083198,0,0,-0.3221210536492639,-0.6467608225438035,0.2436973502567889,-0.6469539862456446,-1.043168282125558,-0.1102385983330342,0.0427525703700869,0.1792605418740898,0.1302107828107815,-0.5786310651435203
5881,2024 8 08,15:40:58.411,-0.35298,-0.525365,0.434666,-0.640673,-0.968283,-0.188478,-0.075196,0.36799,-0.488643,-0.000545,0,0,-0.3536732748898707,-0.5261517857463376,0.4349346891235149,-0.6394601586691794,-0.9655121982272824,-0.1852107324119836,-0.0703640303273838,0.5957037524888815,-0.7351973737791843,-0.9759397022432906,-0.322336,-0.646795,0.243158,-0.647016,-1.045928,-0.124231,0.018577,-0.061053,0.426758,-0.121811,0,0,-0.3221318009668007,-0.6467625314166133,0.2436703827439495,-0.6469570869333624,-1.04330626801928,-0.1109382184163825,0.0415437918515826,0.1672448647803853,0.1450381436702424,-0.5557900618863443
5882,2024 8 08,15:40:58.419,-0.352948,-0.525345,0.434608,-0.640746,-0.969246,-0.187049,-0.077108,0.90351,-0.547985,-0.179099,0,0,-0.3536370111453772,-0.5261114464590206,0.4349183546673391,-0.6395244507357204,-0.9656988883159182,-0.1853026457913844,-0.0707012288110146,0.6110940648644374,-0.725836755090225,-0.936097667131126,-0.322337,-0.646791,0.243158,-0.647019,-1.045155,-0.111985,0.044463,-0.061036,0.411092,-0.09785,0,0,-0.3221420609184607,-0.6467639548457826,0.243644763606752,-0.6469601825866942,-1.043398704618316,-0.1109905574955634,0.0416897522590034,0.1558308215413661,0.1583408364867303,-0.532893058792027
5883,2024 8 08,15:40:58.427,-0.352928,-0.52532,0.434549,-0.640819,-0.965504,-0.185608,-0.072446,0.797502,-0.666851,-0.124167,0,0,-0.3536015605881083,-0.5260718741360696,0.4348998869339721,-0.6395891781989343,-0.9656891439001222,-0.1853179135018152,-0.0707884673704639,0.6204144616212156,-0.7228874673357137,-0.8955011337745697,-0.322348,-0.646763,0.243157,-0.647042,-1.040449,-0.110199,0.047728,-0.068985,0.324968,0.055195,0,0,-0.3221523578725376,-0.6467639071034934,0.2436203754264144,-0.6469642734573594,-1.0432512193874002,-0.1109509796207852,0.0419916646460533,0.1445900304642978,0.1666721946623938,-0.5034886558524256
5884,2024 8 08,15:40:58.436,-0.352941,-0.525294,0.4345,-0.640865,-0.963052,-0.189262,-0.075057,0.040774,-0.671155,0.22531,0,0,-0.3535685325587029,-0.526032980429266,0.4348798925872735,-0.6396529692889875,-0.965557286705116,-0.1855151178267244,-0.0710018940019407,0.5914324385401547,-0.720300843968928,-0.8394605770858412,-0.322358,-0.646735,0.243155,-0.647066,-1.041167,-0.111925,0.047408,-0.127187,0.375032,0.076398,0,0,-0.3221626399789107,-0.6467624617483188,0.2435971066550936,-0.6469693597844914,-1.04314700841803,-0.1109996806397459,0.0422624814137506,0.1310011789410829,0.1770901849292741,-0.4744943230598043
5885,2024 8 08,15:40:58.444,-0.352942,-0.525293,0.434497,-0.640868,-0.962929,-0.189446,-0.075188,0.002653,-0.671372,0.242915,0,0,-0.3535372059307677,-0.5259959814078028,0.4348607479579098,-0.639713720824538,-0.96542587236986,-0.1857116619353882,-0.0712111993018436,0.5619934666131469,-0.7178544017704815,-0.7853417982315491,-0.322361,-0.646715,0.243164,-0.647081,-1.039353,-0.112579,0.04432,-0.171751,0.120046,0.168446,0,0,-0.3221725579799652,-0.6467600886609027,0.243575451322339,-0.6469749417952668,-1.0429573079971286,-0.1110786466077586,0.0423653573430631,0.1158635699940287,0.1742379756828104,-0.4423473069068141
5886,2024 8 08,15:40:58.452,-0.352951,-0.525274,0.434435,-0.64092,-0.961571,-0.184959,-0.076997,0.675051,-0.840096,0.300281,0,0,-0.3535078956342293,-0.5259598823374126,0.4348394605600142,-0.6397740347833111,-0.9652331287513672,-0.1856740288386188,-0.0715004893367514,0.5676463432824895,-0.7239664816819574,-0.7310606583199717,-0.322371,-0.646688,0.243174,-0.6471,-1.040379,-0.117797,0.053349,-0.1716,0.293631,0.13332,0,0,-0.3221824800809669,-0.6467564842278576,0.243555378756222,-0.6469811947055035,-1.042828392597272,-0.1114145642773707,0.0429145394759099,0.1014903914943273,0.1802076268986698,-0.4135639415614734
5887,2024 8 08,15:40:58.461,-0.352966,-0.52525,0.434368,-0.640977,-0.966344,-0.186829,-0.071371,0.560855,-0.797737,0.249293,0,0,-0.3534808008525179,-0.525924388220542,0.4348158875320135,-0.6398341830441455,-0.9652886723137988,-0.1857317773966878,-0.0714940148699139,0.567306776118365,-0.7276550075978595,-0.6820429754039731,-0.322382,-0.646672,0.243193,-0.647103,-1.04276,-0.108881,0.04695,-0.459219,-0.028487,0.178537,0,0,-0.3221924560769186,-0.6467522600164647,0.2435372598184109,-0.6469872849702283,-1.0428249729674084,-0.1112878860635021,0.0431163125021144,0.0734549219196109,0.1697728955537363,-0.3839588944833997
5888,2024 8 08,15:40:58.469,-0.352988,-0.525222,0.4343,-0.641034,-0.965464,-0.181751,-0.076547,0.495869,-0.957865,0.299333,0,0,-0.3534561608098919,-0.5258892688095149,0.4347900931554128,-0.6398941738919383,-0.9652974386981088,-0.1855327385268534,-0.0717466641264182,0.5637348873124467,-0.7391655072179665,-0.6329741766337744,-0.322385,-0.646668,0.243199,-0.647103,-1.043153,-0.109599,0.046848,-0.477853,-0.057632,0.182628,0,0,-0.3222020832730726,-0.6467480470156414,0.2435203468274903,-0.6469930707217169,-1.042841374319038,-0.111203441760327,0.0433028968770087,0.0458895258236304,0.1584026507760495,-0.3556295497592297
5889,2024 8 08,15:40:58.477,-0.353013,-0.525182,0.434242,-0.641093,-0.967529,-0.184677,-0.072337,0.489169,-0.974375,0.142808,0,0,-0.3534340027693973,-0.5258539053690392,0.4347626884976421,-0.6399541151973412,-0.9654090167632032,-0.1854899516005107,-0.0717761809200972,0.5600065929468243,-0.7509259818570682,-0.5941850678020856,-0.322398,-0.646653,0.243231,-0.647101,-1.044603,-0.13004,0.020154,-0.455028,-0.104361,0.168475,0,0,-0.322211879109419,-0.6467432946648592,0.2435058794861158,-0.646998467185631,-1.042929455603086,-0.1121452696723107,0.0421454520331582,0.0208436495324488,0.145264468237247,-0.3294243222712682
5890,2024 8 08,15:40:58.486,-0.353028,-0.525132,0.43419,-0.64116,-0.966067,-0.181612,-0.075679,0.222611,-1.029437,-0.141038,0,0,-0.3534137026309275,-0.5258178101005873,0.43473405407276,-0.6400144094374742,-0.9654419159250432,-0.1852960540204852,-0.0719713218740924,0.543136813299483,-0.7648515327642147,-0.5715277144119812,-0.322412,-0.646654,0.243273,-0.647076,-1.046552,-0.110084,0.047783,-0.575928,-0.414319,0.067716,0,0,-0.322221885153948,-0.6467388299316162,0.24349423551181,-0.6470023438263495,-1.0431105828229317,-0.1120422061886951,0.0424273294315003,-0.0089949329441735,0.1172852948253847,-0.3095673061577048
5891,2024 8 08,15:40:58.494,-0.35303,-0.525126,0.434184,-0.641169,-0.96588,-0.181222,-0.076104,0.188669,-1.036448,-0.177181,0,0,-0.353394517499381,-0.5257832195955578,0.4347065513691219,-0.6400721389656004,-0.9654638201287908,-0.1850923513194609,-0.0721779557803877,0.5254134226345089,-0.778431356126004,-0.5518103786913822,-0.322428,-0.646668,0.243313,-0.647039,-1.046267,-0.110793,0.042616,-0.514806,-0.642272,-0.011734,0,0,-0.3222321908962506,-0.6467352884350354,0.2434851737362195,-0.647004176635032,-1.0432684036817848,-0.1119797458792604,0.0424367629599253,-0.0342854862969648,0.0793074300841154,-0.2946756408498195
5892,2024 8 08,15:40:58.502,-0.353051,-0.525057,0.434163,-0.641228,-0.966682,-0.184065,-0.076578,0.028732,-1.089163,-0.389164,0,0,-0.353377341624412,-0.52574690861578,0.4346793738006658,-0.6401299320173204,-0.9655247291223512,-0.1850409837534878,-0.0723979579913683,0.5005793515027833,-0.7939679383197038,-0.543678059756813,-0.322453,-0.646688,0.243356,-0.646991,-1.045266,-0.110914,0.04361,-0.623785,-0.739681,-0.157008,0,0,-0.322243231351438,-0.6467329240132835,0.2434787150494085,-0.6470035178032802,-1.0433682834976954,-0.1119264585852973,0.042495424811929,-0.0637604619821166,0.0383580085799096,-0.2877922588073285
5893,2024 8 08,15:40:58.511,-0.353068,-0.524964,0.434148,-0.641304,-0.962309,-0.186126,-0.082367,-0.046364,-1.250264,-0.625261,0,0,-0.3533618745431913,-0.5257077631849909,0.4346528051106325,-0.6401886354164543,-0.9653639426662336,-0.1850952345658134,-0.0728964100917999,0.4732321839276441,-0.8167827414037186,-0.5477572067689723,-0.322488,-0.646711,0.243409,-0.64693,-1.046043,-0.109088,0.045249,-0.816786,-0.900595,-0.192648,0,0,-0.3222554697838661,-0.6467318278126193,0.243475229296938,-0.6469998419131162,-1.0435020193228106,-0.1117845356560325,0.0426331035713326,-0.1014117388830108,-0.0085896418490858,-0.283035045866962
5894,2024 8 08,15:40:58.519,-0.353071,-0.524883,0.434136,-0.641377,-0.962007,-0.184846,-0.07806,-0.058478,-0.973871,-0.512156,0,0,-0.3533473308160317,-0.5256665250257413,0.4346269648551009,-0.6402480536456316,-0.965196095532922,-0.1850827728375228,-0.0731545895872099,0.4466466747312619,-0.8246371543335327,-0.5459771464305236,-0.322523,-0.646739,0.243458,-0.646867,-1.047563,-0.072644,0.019705,-0.84792,-1.013719,-0.285563,0,0,-0.3222688462946728,-0.6467321864219884,0.2434743678320911,-0.6469931998174604,-1.04370506835667,-0.1098275088732308,0.0414866983927659,-0.1387371519388602,-0.0588461097566315,-0.2831614435736139
5895,2024 8 08,15:40:58.527,-0.353088,-0.524796,0.434137,-0.641438,-0.961557,-0.189004,-0.075329,-0.259567,-0.876563,-0.492695,0,0,-0.3533343642752302,-0.5256229987744542,0.4346024666123458,-0.6403075509633501,-0.9650141407562758,-0.1852788341956466,-0.0732633101078494,0.4113359909946988,-0.8272334466168559,-0.5433130391089974,-0.322534,-0.646747,0.24347,-0.646849,-1.04734,-0.097448,-0.001723,-0.84655,-0.992821,-0.321731,0,0,-0.3222821039799391,-0.6467329271008889,0.2434741494404866,-0.6469859898265874,-1.0438868149388365,-0.1092085334295693,0.0393262134731276,-0.1741277943419172,-0.1055448542687999,-0.2850899213949331
5896,2024 8 08,15:40:58.536,-0.353106,-0.524719,0.434129,-0.641497,-0.961868,-0.188977,-0.07483,-0.099787,-0.957043,-0.341778,0,0,-0.3533229460614686,-0.5255777988357314,0.4345787932817285,-0.6403670234151826,-0.964856833718462,-0.1854637424858643,-0.073341644602457,0.3857798414449639,-0.833723924286013,-0.5332362871535475,-0.322573,-0.646769,0.243503,-0.646794,-1.044134,-0.109696,0.046613,-0.790537,-0.754053,-0.442488,0,0,-0.3222966487809422,-0.6467347307458444,0.2434755919684622,-0.646976390335258,-1.0438991741918946,-0.1092329067580908,0.0396905527994713,-0.2049482546248214,-0.1379702615553599,-0.2929598253251865
5897,2024 8 08,15:40:58.544,-0.353109,-0.524704,0.434127,-0.641509,-0.961928,-0.188972,-0.074734,-0.068989,-0.972556,-0.312688,0,0,-0.3533122487583952,-0.5255341088939448,0.434556203617642,-0.6404241222444235,-0.9647103920325388,-0.185639155361571,-0.0734112623723341,0.3630413993727157,-0.8406655280717124,-0.5222088727958701,-0.322611,-0.646795,0.243536,-0.646737,-1.04295,-0.112443,0.048416,-0.689283,-0.840436,-0.375308,0,0,-0.3223123663418951,-0.6467377442085521,0.2434786123700391,-0.646964420818495,-1.0438517154822995,-0.1093934114201863,0.0401268251594977,-0.2291649918935803,-0.1730935484775919,-0.2970772340589271
5898,2024 8 08,15:40:58.552,-0.353122,-0.524651,0.434104,-0.64156,-0.962323,-0.203829,-0.081791,0.080983,-0.975701,-0.163063,0,0,-0.3533027363204755,-0.5254899534492475,0.4345335934367599,-0.6404809161322023,-0.9645910224309118,-0.1865486475934925,-0.0738302492537174,0.3489384794040799,-0.8474173016681267,-0.5042515791560767,-0.322648,-0.646823,0.243575,-0.646676,-1.043218,-0.1127,0.04466,-0.627326,-0.873467,-0.307302,0,0,-0.3223291480248003,-0.6467420069981246,0.2434834317515372,-0.6469499997775702,-1.0438200297081848,-0.109558740849177,0.0403534839015228,-0.2490730422989013,-0.2081122210537123,-0.2975884723559808
5899,2024 8 08,15:40:58.561,-0.353132,-0.52459,0.434075,-0.641625,-0.962407,-0.187783,-0.07595,0.254817,-0.976369,-0.225929,0,0,-0.3532941995044517,-0.5254449557767851,0.4345106637649219,-0.6405381203255921,-0.9644818213093662,-0.1866103652138179,-0.0739362367910315,0.3442324054338759,-0.8538648865847203,-0.4903354501982728,-0.322673,-0.64685,0.243608,-0.646623,-1.042497,-0.114586,0.046573,-0.588568,-0.723177,-0.204604,0,0,-0.3223463406235603,-0.6467474066482184,0.2434896601639603,-0.6469336497886916,-1.0437538782227755,-0.1098101038067181,0.0406644597064467,-0.2660477901839562,-0.2338654600010267,-0.2929392487381818
5900,2024 8 08,15:40:58.569,-0.353132,-0.52459,0.434075,-0.641625,-0.965418,-0.187197,-0.077244,0.386905,-0.929762,-0.286635,0,0,-0.3532860895292291,-0.5254022079879458,0.4344888805766758,-0.6405924643093124,-0.964528630243898,-0.186639696953127,-0.0741016249514799,0.346366035162182,-0.8576597422554842,-0.4801504276883591,-0.322685,-0.646873,0.243633,-0.646586,-1.043631,-0.112093,0.043439,-0.418233,-0.730259,-0.14138,0,0,-0.3223632735923823,-0.6467536863158074,0.2434968271557623,-0.646916267299257,-1.0437477343116366,-0.1099242486163822,0.0408031867211243,-0.2736570506747584,-0.2586851370009754,-0.2853612863012726
5901,2024 8 08,15:40:58.577,-0.353127,-0.524482,0.433998,-0.641768,-0.963527,-0.187061,-0.075325,0.41744,-0.826589,-0.25447,0,0,-0.3532781350527677,-0.5253561975885485,0.434464336547842,-0.6406512410938467,-0.9644785487317028,-0.1866607621054706,-0.0741627937039059,0.3499197334040729,-0.85610620514271,-0.4688664063039411,-0.322689,-0.646881,0.243639,-0.646573,-1.044193,-0.111567,0.043264,-0.360116,-0.719403,-0.133011,0,0,-0.3223795599127632,-0.646760052000017,0.2435039357979741,-0.6468991039342941,-1.0437699975960548,-0.1100063861855631,0.0409262273850681,-0.2779799981410205,-0.2817210301509266,-0.277743771986209
5902,2024 8 08,15:40:58.586,-0.353093,-0.524448,0.433947,-0.641848,-0.963438,-0.216201,-0.038542,0.835678,-0.710494,-0.383711,0,0,-0.3532688783001292,-0.525310787709121,0.4344384697204498,-0.6407110790391544,-0.9644265212951176,-0.1881377740001971,-0.0723817540187106,0.3742076467338692,-0.8488255948855744,-0.464608635988744,-0.322696,-0.646905,0.243648,-0.646543,-1.045976,-0.106713,0.02661,-0.215361,-0.60079,-0.176656,0,0,-0.322395381917125,-0.6467672994000161,0.2435111390080754,-0.6468812987375793,-1.043880297716252,-0.1098417168762849,0.0402104160158147,-0.2748490482339695,-0.2976744786433802,-0.2726893833868984
5903,2024 8 08,15:40:58.594,-0.353085,-0.524439,0.433935,-0.641868,-0.963416,-0.182458,-0.072469,0.939838,-0.681581,-0.415898,0,0,-0.3532596843851228,-0.525267198323665,0.4344132962344273,-0.6407689250871966,-0.9643759952303618,-0.1878537853001873,-0.0723861163177751,0.4024891643971757,-0.8404633651412956,-0.4621731041893068,-0.322702,-0.646923,0.243646,-0.646522,-1.044957,-0.128012,0.010004,-0.08906,-0.312702,-0.220448,0,0,-0.3224107128212687,-0.6467750844300152,0.2435178820576716,-0.6468633338007003,-1.0439341328304397,-0.1107502310324707,0.038700095215024,-0.265559595822271,-0.2984258547112112,-0.2700773142175535
5904,2024 8 08,15:40:58.602,-0.353064,-0.5244,0.433909,-0.641929,-0.965195,-0.180437,-0.06911,0.654431,-0.718737,-0.424192,0,0,-0.3532499001658666,-0.5252238384074817,0.4343880814227059,-0.6408269288328368,-0.9644169454688436,-0.1874829460351779,-0.0722223105018863,0.4150862561773169,-0.8343770468842308,-0.4602740489798414,-0.322704,-0.646935,0.243633,-0.646514,-1.045167,-0.111456,0.045152,0.056823,-0.072105,-0.193157,0,0,-0.3224253771802053,-0.6467830802085144,0.243523637954788,-0.6468458671106653,-1.0439957761889174,-0.1107855194808471,0.0390226904542728,-0.2494404660311574,-0.2871098119756506,-0.2662312985066759
5905,2024 8 08,15:40:58.611,-0.353042,-0.524361,0.433889,-0.641987,-0.963904,-0.182722,-0.073156,0.754882,-0.552225,-0.470499,0,0,-0.3532395051575732,-0.5251806964871075,0.4343631273515707,-0.6408849323911948,-0.9643912981954016,-0.187244898733419,-0.072268994976792,0.432076043368451,-0.8202694445400192,-0.4607852965308493,-0.322697,-0.646944,0.243597,-0.646522,-1.044307,-0.111347,0.046608,0.336393,0.074156,-0.215709,0,0,-0.322438958321195,-0.6467911261980887,0.2435273060570486,-0.646829673755132,-1.0440113373794715,-0.1108135935068048,0.0394019559315591,-0.2201487927295995,-0.2690465213768681,-0.2637051835813421
5906,2024 8 08,15:40:58.619,-0.353011,-0.524317,0.433873,-0.642051,-0.965643,-0.186837,-0.07601,0.433603,-0.550147,-0.614017,0,0,-0.3532280798996945,-0.5251375116627521,0.4343386209839921,-0.640943235771635,-0.9644538832856314,-0.187224503796748,-0.0724560452279524,0.4321523912000285,-0.8067633223130182,-0.4684468817043068,-0.32269,-0.646957,0.243552,-0.646529,-1.044071,-0.113429,0.046102,0.48851,0.151992,-0.41044,0,0,-0.3224515104051352,-0.6467994198881841,0.2435285407541962,-0.6468146400673754,-1.044014320510498,-0.1109443638314645,0.0397369581349811,-0.1847158530931196,-0.2479945953080246,-0.271041924402275
5907,2024 8 08,15:40:58.627,-0.352977,-0.524274,0.433867,-0.642109,-0.963374,-0.18593,-0.075781,0.170389,-0.463319,-0.568307,0,0,-0.3532155259047098,-0.5250943360796145,0.4343150399347925,-0.6410015239830532,-0.9643998891213498,-0.1871597786069106,-0.0726222929665548,0.419064221640027,-0.7895911061973672,-0.4734398876190914,-0.322687,-0.646962,0.243533,-0.646533,-1.043865,-0.114064,0.045726,0.54313,0.173973,-0.442112,0,0,-0.3224632848848785,-0.6468075488937749,0.2435287637164864,-0.6468005580640066,-1.044006854484973,-0.1111003456398913,0.0400364102282321,-0.1483235604384636,-0.2268962155426234,-0.2795954281821612
5908,2024 8 08,15:40:58.636,-0.352933,-0.52424,0.433869,-0.642159,-0.962374,-0.215511,-0.034891,0.435155,-0.182233,-0.682978,0,0,-0.3532013996094743,-0.5250516192756338,0.4342927379380528,-0.6410593977839005,-0.9642985946652822,-0.1885773396765651,-0.070735728318227,0.4198687605580257,-0.7592232008874988,-0.4839167932381368,-0.322672,-0.646971,0.243485,-0.64655,-1.043335,-0.114266,0.044188,0.621213,0.197653,-0.292252,0,0,-0.3224737206406346,-0.6468157214490862,0.243526575530662,-0.6467880301608062,-1.0439732617607242,-0.1112586283578967,0.0402439897168205,-0.1098467324165404,-0.2056687547654922,-0.2802282567730531
5909,2024 8 08,15:40:58.644,-0.352919,-0.52423,0.43387,-0.642174,-0.962077,-0.186473,-0.079238,0.514056,-0.098469,-0.71715,0,0,-0.3531872796290006,-0.5250105383118522,0.4342716010411501,-0.6411151278947055,-0.964187514932018,-0.1884721226927368,-0.0711608419023157,0.4245781225301244,-0.7261854908431239,-0.49557845357623,-0.322654,-0.646971,0.243435,-0.646578,-1.045621,-0.112849,0.04393,0.565819,0.33126,-0.191745,0,0,-0.3224827346086029,-0.6468234853766318,0.2435219967541289,-0.6467775286527658,-1.044055648672688,-0.1113381469400019,0.0404282902309794,-0.0760634457957134,-0.1788223170272176,-0.2758040939344005
5910,2024 8 08,15:40:58.652,-0.352873,-0.524216,0.43387,-0.642211,-0.962653,-0.186845,-0.080148,0.579894,0.052315,-0.685862,0,0,-0.3531715656475505,-0.5249708113962596,0.4342515209890926,-0.6411699214999701,-0.9641107891854171,-0.1883907665580999,-0.0716101998071999,0.4323439164036181,-0.6872604663009676,-0.5050926308974184,-0.322644,-0.646964,0.243379,-0.64661,-1.04512,-0.113878,0.043544,0.490236,0.480346,-0.269298,0,0,-0.3224907978781727,-0.6468305111078002,0.2435148469164225,-0.6467691522201275,-1.0441088662390536,-0.1114651395930018,0.0405840757194305,-0.0477484735059277,-0.1458639011758567,-0.2754787892376804
5911,2024 8 08,15:40:58.661,-0.352824,-0.524203,0.433874,-0.642246,-0.962173,-0.186631,-0.081754,0.22892,0.016927,-0.593498,0,0,-0.353154187365173,-0.5249324208264465,0.4342326449396379,-0.6412237254249715,-0.9640138997261464,-0.1883027782301949,-0.0721173898168399,0.4221727205834372,-0.6520510929859192,-0.5095128993525474,-0.322648,-0.646823,0.243575,-0.646676,-1.044722,-0.112396,0.044736,0.340516,0.538165,-0.282402,0,0,-0.322498657984264,-0.6468301355524102,0.2435178545706013,-0.6467644946091211,-1.0441395229271009,-0.1115116826133517,0.0407916719334589,-0.0283352498306313,-0.1116624561170639,-0.2758249497757964
5912,2024 8 08,15:40:58.669,-0.352775,-0.524194,0.43387,-0.642283,-0.963327,-0.185256,-0.080634,0.320811,0.005598,-0.482223,0,0,-0.3531352279969143,-0.5248954997851242,0.434214512692656,-0.6412766891537228,-0.963979554739839,-0.1881504393186852,-0.0725432203259979,0.4171046345542653,-0.6191686383366233,-0.50814840438492,-0.322651,-0.646928,0.243285,-0.646678,-1.044877,-0.111357,0.042573,0.398566,0.627333,-0.215941,0,0,-0.3225062750850508,-0.6468350287747897,0.2435062118420712,-0.646760169878665,-1.0441763967807458,-0.1115039484826841,0.040880738336786,-0.0069901873390997,-0.0747126833112107,-0.2728307522870065
5913,2024 8 08,15:40:58.677,-0.352704,-0.524169,0.433882,-0.642334,-0.963053,-0.183734,-0.077131,0.260761,1.1e-05,-0.690758,0,0,-0.3531136665970686,-0.524859174795868,0.4341978870580231,-0.6413295546960367,-0.963933227002847,-0.1879296173527509,-0.072772609309698,0.409287452826552,-0.5882096564197921,-0.517278884165674,-0.322653,-0.64692,0.243264,-0.646694,-1.044954,-0.099167,0.019205,0.427191,0.671302,-0.183168,0,0,-0.3225136113307982,-0.6468392773360502,0.2434941012499677,-0.6467568613847318,-1.0442152769417083,-0.1108871010585499,0.0397969514199467,0.0147188720278552,-0.0374119491456501,-0.2683476146726562
5914,2024 8 08,15:40:58.686,-0.35265,-0.524146,0.433912,-0.642362,-0.963752,-0.186091,-0.081235,0.036959,0.0,-0.783567,0,0,-0.3530904832672151,-0.5248235160560746,0.4341835927051219,-0.6413811769612349,-0.9639241656527046,-0.1878376864851133,-0.0731957288442131,0.3906710301852244,-0.5587991735988024,-0.5305932899573903,-0.322655,-0.646904,0.243235,-0.646719,-1.047353,-0.108444,0.047743,0.187337,0.3715,-0.183107,0,0,-0.3225206807642583,-0.6468425134692476,0.2434811461874693,-0.6467549683154952,-1.044372163094623,-0.1107649460056224,0.0401942538489493,0.0233497784264624,-0.0169663516883676,-0.2640855839390234
5915,2024 8 08,15:40:58.694,-0.352599,-0.524129,0.433954,-0.642376,-0.96757,-0.186106,-0.077513,0.001193,0.0,-0.793138,0,0,-0.3530659091038544,-0.5247887902532709,0.4341721130698658,-0.6414309181131731,-0.9641064573700692,-0.1877511021608576,-0.0734115924020024,0.3711971286759632,-0.5308592149188622,-0.5437205254595208,-0.322663,-0.646884,0.243192,-0.646751,-1.045976,-0.106713,0.02661,0.301371,0.661705,-0.301235,0,0,-0.3225277967260453,-0.6468445877957852,0.2434666888780958,-0.6467547698997205,-1.044452354939892,-0.1105623487053412,0.0395150411565019,0.0372508395051393,0.0169672158960507,-0.2659430547420722
5916,2024 8 08,15:40:58.702,-0.35259,-0.524127,0.433961,-0.642378,-0.968258,-0.186044,-0.076702,-0.201196,0.402504,-0.743129,0,0,-0.3530421136486616,-0.5247557007406073,0.4341615574163726,-0.6414782722075144,-0.9643140345015656,-0.1876657470528147,-0.0735761127819023,0.342577472242165,-0.4841910541729191,-0.5536909491865447,-0.322675,-0.646872,0.243137,-0.646778,-1.041278,-0.109377,0.046102,0.363177,0.380036,-0.421351,0,0,-0.3225351568897431,-0.646845958405996,0.243450204434191,-0.6467559314047344,-1.0442936371928973,-0.1105030812700742,0.0398443890986768,0.0535471475298823,0.0351206551012481,-0.2737134520049686
5917,2024 8 08,15:40:58.711,-0.352548,-0.524106,0.434006,-0.642387,-0.964323,-0.18842,-0.078648,-0.241527,0.33435,-0.782644,0,0,-0.3530174079662286,-0.5247232157035769,0.4341537795455539,-0.6415237085971387,-0.9643144827764876,-0.187703459700174,-0.0738297071428072,0.3133722486300568,-0.4432640014642731,-0.5651386017272175,-0.322683,-0.646865,0.243078,-0.646803,-1.041979,-0.11213,0.046829,0.366026,0.481694,-0.426887,0,0,-0.3225425490452559,-0.6468469104856962,0.2434315942124814,-0.6467582848344977,-1.0441779053332525,-0.1105844272065704,0.0401936196437429,0.0691710901533882,0.0574493223461857,-0.2813721294047202
5918,2024 8 08,15:40:58.719,-0.352472,-0.524093,0.434061,-0.642403,-0.964258,-0.186194,-0.075162,-0.04855,0.551595,-0.988047,0,0,-0.3529901375679172,-0.5246917049183981,0.4341491405682762,-0.6415676731672817,-0.964311658637663,-0.1876279867151653,-0.0738963217856668,0.2952761361985539,-0.3935210513910595,-0.5862840216408567,-0.322687,-0.646962,0.243533,-0.646533,-1.043376,-0.114554,0.044161,0.309711,0.431304,-0.370733,0,0,-0.3225497715929931,-0.6468526649614114,0.2434366645018573,-0.6467470205927728,-1.0441378100665897,-0.1107829058462419,0.0403919886615558,0.0811980856457188,0.0761420562288764,-0.2858401729344841
5919,2024 8 08,15:40:58.727,-0.352411,-0.524073,0.434129,-0.642406,-0.962833,-0.188305,-0.078156,-0.196856,0.605193,-0.888802,0,0,-0.3529611806895213,-0.5246607696724782,0.4341481335398624,-0.6416095895089176,-0.9642377257057798,-0.187661837379407,-0.0741093056963834,0.2706695293886262,-0.3435853488215065,-0.6014099205588138,-0.322688,-0.646863,0.243019,-0.646825,-1.043479,-0.114732,0.043966,0.305574,0.427602,-0.366608,0,0,-0.3225566830133434,-0.6468531817133407,0.2434157812767644,-0.6467509195631341,-1.0441048695632602,-0.1109803605539298,0.040570689228478,0.0924168813634328,0.0937150534174326,-0.28987856428776
5920,2024 8 08,15:40:58.736,-0.352353,-0.524058,0.434205,-0.642399,-0.962852,-0.188144,-0.077869,-0.334315,0.752235,-0.905415,0,0,-0.3529307716550452,-0.5246306311888542,0.4341509768628693,-0.6416490600334717,-0.9641684394204908,-0.1876859455104367,-0.0742972904115643,0.2404203029191949,-0.2887943313804311,-0.6166101745308731,-0.322709,-0.646835,0.242983,-0.646856,-1.042171,-0.114309,0.04307,-0.024121,0.482171,-0.256472,0,0,-0.3225642988626762,-0.6468522726276738,0.2433941422129262,-0.6467561735849774,-1.0440081760850972,-0.1111467925262333,0.0406956547670541,0.0865899872952612,0.113137850746561,-0.288208236073372
5921,2024 8 08,15:40:58.744,-0.352287,-0.524057,0.434283,-0.642384,-0.964785,-0.189509,-0.078789,-0.268987,0.929208,-0.82077,0,0,-0.3528985830722929,-0.5246019496294114,0.4341575780197258,-0.6416858070317981,-0.9641992674494662,-0.1877770982349148,-0.0745218758909861,0.2149499377732351,-0.2278942148114096,-0.6268181658043294,-0.322735,-0.646802,0.242974,-0.646879,-1.040742,-0.127058,0.017775,-0.165104,0.487589,-0.02904,0,0,-0.3225728339195424,-0.64684975899629,0.2433731351022799,-0.6467623149057286,-1.0438448672808422,-0.1119423528999216,0.0395496220287014,0.0740052879304981,0.1318604082092329,-0.2752498242697034
5922,2024 8 08,15:40:58.752,-0.352271,-0.524057,0.434301,-0.64238,-0.965289,-0.189892,-0.079064,-0.247257,0.970623,-0.796883,0,0,-0.3528672039186782,-0.5245747021479408,0.4341647491187395,-0.6417205166802082,-0.9642537540769928,-0.1878828433231691,-0.0747489820964368,0.1918395908845733,-0.1679683540708391,-0.6353214075141128,-0.322764,-0.646758,0.24297,-0.64691,-1.038874,-0.116669,0.041915,-0.234228,0.488194,0.049738,0,0,-0.3225823922235653,-0.6468451710464755,0.2433529783471659,-0.6467696991604421,-1.0435963239168,-0.1121786852549255,0.0396678909272663,0.0585936235339732,0.1496770877987713,-0.2590004330562182
5923,2024 8 08,15:40:58.761,-0.35221,-0.524063,0.434358,-0.64237,-0.963166,-0.189211,-0.07582,-0.153496,1.021284,-0.839464,0,0,-0.3528343437227443,-0.5245491170405437,0.4341744116628026,-0.6417529908461979,-0.9641993663731432,-0.1879492511570106,-0.0748025329916149,0.1745728113403446,-0.1085057363672971,-0.6455285371384072,-0.32279,-0.646715,0.242991,-0.646933,-1.043277,-0.115434,0.043246,-0.506061,0.330301,0.270109,0,0,-0.3225927726123869,-0.6468386624941518,0.2433348794298076,-0.64677786420242,-1.04358035772096,-0.1123414509921793,0.039846796380903,0.0303608923572746,0.1587082834088327,-0.2325449614034073
5924,2024 8 08,15:40:58.769,-0.352133,-0.524083,0.43443,-0.642347,-0.962541,-0.187928,-0.071999,-0.216601,1.169951,-0.762401,0,0,-0.3527992765366071,-0.5245258111885165,0.4341871910796624,-0.641782691303888,-0.964116448054486,-0.1879481885991601,-0.0746623563420342,0.1550141207733274,-0.0445828995489322,-0.6513721602814868,-0.32282,-0.646664,0.243035,-0.646952,-1.04512,-0.113878,0.043544,-0.750685,0.360867,0.351909,0,0,-0.3226041339817676,-0.6468299293694442,0.2433198854583172,-0.646786570992299,-1.0436573398349118,-0.1124182784425703,0.0400316565618578,-0.0086914022605891,0.1688162192383911,-0.2033222633332369
5925,2024 8 08,15:40:58.777,-0.352049,-0.524107,0.434505,-0.642322,-0.96103,-0.189347,-0.075251,-0.062397,1.123912,-0.737221,0,0,-0.3527617627097767,-0.5245048706290907,0.4342030815256793,-0.6418096567386935,-0.9639621256517616,-0.188018129169202,-0.0746917885249325,0.144143564734661,0.0138418454285143,-0.6556646022674124,-0.322825,-0.646657,0.243041,-0.646954,-1.04539,-0.112859,0.0425,-0.786611,0.365355,0.363922,0,0,-0.3226151772826792,-0.6468212829009719,0.2433059411854013,-0.646794942442684,-1.043743972843166,-0.1124403145204418,0.0401550737337649,-0.0475873821475596,0.1786431582764715,-0.174960050166575
5926,2024 8 08,15:40:58.786,-0.351969,-0.524133,0.434563,-0.642306,-0.961973,-0.190195,-0.075371,0.033085,1.0592,-0.689486,0,0,-0.3527221245742879,-0.5244862770976362,0.4342210774493953,-0.6418344739017587,-0.9638626693691736,-0.1881269727107419,-0.0747257490986858,0.1385906364979279,0.0661097531570886,-0.6573556721540417,-0.32286,-0.646602,0.243089,-0.646973,-1.044624,-0.114022,0.042485,-0.944079,0.416662,0.365819,0,0,-0.3226274184185453,-0.6468103187559232,0.2432950941261313,-0.6468038453205497,-1.0437879742010077,-0.1125193987944197,0.0402715700470767,-0.0924119630401816,0.1905441003626479,-0.1479210976582463
5927,2024 8 08,15:40:58.794,-0.351891,-0.524165,0.434622,-0.642283,-0.962003,-0.189701,-0.075229,-0.030429,1.084715,-0.588289,0,0,-0.3526805683455735,-0.5244702132427543,0.4342411235769255,-0.6418569002066707,-0.9637696859007148,-0.1882056740752048,-0.0747509116437515,0.1301396546730315,0.1170400154992342,-0.6539023385463395,-0.322901,-0.646541,0.243144,-0.646994,-1.047691,-0.11182,0.048876,-0.920714,0.47527,0.316193,0,0,-0.322641097497618,-0.646796852818127,0.2432875394198247,-0.6468133530545223,-1.0439831254909573,-0.1124844288546987,0.0407017915447228,-0.1338270648881726,0.2047803953445155,-0.1247153927753339
5928,2024 8 08,15:40:58.802,-0.351869,-0.524174,0.434639,-0.642276,-0.961955,-0.189505,-0.075204,-0.055157,1.09596,-0.556802,0,0,-0.3526399899282948,-0.5244554025806166,0.4342610173980792,-0.6418778551963371,-0.9636789516056792,-0.1882706403714446,-0.0747735660615639,0.1208748219393799,0.1659860147242725,-0.6490473216190226,-0.322945,-0.646481,0.243195,-0.647012,-1.049819,-0.110636,0.050022,-0.916524,0.485782,0.208668,0,0,-0.3226562926227371,-0.6467810601772207,0.2432829124488335,-0.6468232854017961,-1.0442749192164094,-0.1123920074119637,0.0411678019674867,-0.1729619116437639,0.2188304755772897,-0.1080462231365672
5929,2024 8 08,15:40:58.811,-0.351812,-0.524199,0.434681,-0.642258,-0.964641,-0.190142,-0.07183,-0.017737,1.098092,-0.55083,0,0,-0.3525985904318801,-0.5244425824515858,0.4342820165281753,-0.6418968624365202,-0.963727054025395,-0.1883642083528723,-0.0746263877584857,0.1139442308424109,0.2125913139880588,-0.6441364555380714,-0.322986,-0.646424,0.243226,-0.647038,-1.045938,-0.11236,0.046344,-0.67226,0.585163,0.090887,0,0,-0.3226727779916002,-0.6467632071683597,0.2432800668263918,-0.6468340211317063,-1.0443580732555888,-0.1123904070413655,0.0414266118691124,-0.1979268160615757,0.2371471017984252,-0.0980995619797389
5930,2024 8 08,15:40:58.819,-0.351741,-0.524226,0.434731,-0.642242,-0.964595,-0.189708,-0.070969,0.037826,0.973754,-0.632814,0,0,-0.352555710910286,-0.5244317533290065,0.4343044657017665,-0.6419141193146941,-0.9637704513241252,-0.1884313979352287,-0.0744435183705615,0.1101383193002904,0.2506494482886559,-0.6435703327611678,-0.323019,-0.646386,0.243254,-0.647048,-1.044778,-0.112639,0.044531,-0.5273,0.172194,0.019276,0,0,-0.3226900890920202,-0.6467443468099418,0.2432787634850722,-0.646844720075121,-1.0443790695928097,-0.1124028366892973,0.0415818312756567,-0.2143954752584969,0.233899446708504,-0.0922307838807519
5931,2024 8 08,15:40:58.827,-0.351666,-0.524248,0.434781,-0.642231,-0.965746,-0.189185,-0.071826,0.055889,0.887358,-0.662834,0,0,-0.3525112253647717,-0.5244225656625562,0.4343282924166781,-0.6419299633489594,-0.9638692287579188,-0.1884690780384673,-0.0743126424520334,0.1074258533352758,0.282484875874223,-0.6445335161231095,-0.323027,-0.646378,0.24326,-0.647051,-1.044535,-0.110915,0.047317,-0.496933,0.085682,0.004274,0,0,-0.3227069346374192,-0.6467260294694447,0.2432778253108186,-0.6468550340713649,-1.044386866113169,-0.1123284448548324,0.0418685897118739,-0.2285223514955721,0.2264885743730788,-0.0874055446867143
5932,2024 8 08,15:40:58.836,-0.351594,-0.524254,0.434833,-0.64223,-0.965227,-0.189994,-0.076062,-0.02132,0.659175,-0.750576,0,0,-0.3524653640965331,-0.5244141373794283,0.4343535277958442,-0.6419449651815113,-0.963937117320023,-0.1885453241365439,-0.0744001103294317,0.100988560668512,0.3013193820805118,-0.6498356403169541,-0.323058,-0.646352,0.243274,-0.647056,-1.043731,-0.110109,0.048105,-0.490281,0.254444,0.000988,0,0,-0.3227244879055482,-0.6467073279959725,0.2432776340452776,-0.6468650823677966,-1.0443540728075105,-0.1122174726120908,0.0421804102262802,-0.2416102839207935,0.2278863456544248,-0.0829858674523786
5933,2024 8 08,15:40:58.844,-0.351542,-0.524251,0.43489,-0.642222,-0.963996,-0.193858,-0.074744,-0.412374,0.655913,-0.582662,0,0,-0.3524191958917064,-0.5244059805104568,0.434380351406052,-0.6419588169224357,-0.9639400614540218,-0.1888109579297167,-0.0744173048129601,0.0753204326350864,0.3190490629764863,-0.6464769583011064,-0.323091,-0.646322,0.243286,-0.647064,-1.044289,-0.112521,0.048655,-0.488762,0.246617,-0.092498,0,0,-0.3227428135102708,-0.6466880615961739,0.2432780523430137,-0.6468750282494067,-1.044350819167135,-0.1122326489814862,0.0425041397149662,-0.2539678697247538,0.2288228783717036,-0.0834614740797596
5934,2024 8 08,15:40:58.852,-0.351525,-0.524249,0.43491,-0.64222,-0.963555,-0.195321,-0.073985,-0.561,0.667529,-0.511808,0,0,-0.3523744860971211,-0.524398131484934,0.4344068338357494,-0.6419718760763139,-0.9639208083813208,-0.1891364600332308,-0.0743956895723121,0.0435044110033321,0.3364730598276619,-0.639743510386051,-0.323128,-0.646283,0.243288,-0.647084,-1.041855,-0.111995,0.044754,-0.35094,0.428039,-0.114698,0,0,-0.3227620728347573,-0.6466678085163652,0.243278549725863,-0.6468854768369363,-1.044226028208778,-0.1122207665324119,0.0426166327292179,-0.2588164762385161,0.2387836844531184,-0.0850233003757717
5935,2024 8 08,15:40:58.861,-0.35148,-0.524253,0.434928,-0.642229,-0.961879,-0.192235,-0.075991,-0.088502,0.435415,-0.533515,0,0,-0.352329761792265,-0.5243908749106873,0.4344328921439619,-0.6419847322724982,-0.9638187179622546,-0.1892913870315693,-0.0744754550936965,0.0369040904531655,0.3414201568362788,-0.6344320848667484,-0.323162,-0.646243,0.243281,-0.64711,-1.041981,-0.110778,0.046329,-0.181127,0.563308,-0.21074,0,0,-0.3227820691930194,-0.6466465680905469,0.2432786722395699,-0.6468967029950895,-1.044113776798339,-0.1121486282057913,0.042802251092757,-0.2549320024265903,0.2550099002304624,-0.0913091353569831
5936,2024 8 08,15:40:58.869,-0.351426,-0.524258,0.434946,-0.642243,-0.964307,-0.191225,-0.073125,0.110697,0.339896,-0.467682,0,0,-0.3522845737026518,-0.5243842311651529,0.4344585475367638,-0.6419976456588733,-0.9638431320641418,-0.1893880676799908,-0.0744079323390117,0.0405937359305072,0.3413439489944648,-0.626094580623411,-0.323185,-0.646217,0.243259,-0.647133,-1.042729,-0.1119,0.045298,-0.003523,0.463519,-0.235236,0,0,-0.3228022157333684,-0.6466250896860195,0.2432776886275914,-0.646908517845335,-1.044044537958422,-0.1121361967955017,0.0429270385381191,-0.2423615523052608,0.2654353552189393,-0.0985054785891339
5937,2024 8 08,15:40:58.877,-0.351369,-0.524266,0.434959,-0.642258,-0.965426,-0.188251,-0.073326,0.201467,0.314722,-0.400094,0,0,-0.3522387950175192,-0.5243783196068952,0.4344835701599256,-0.6420106633759296,-0.9639222754609348,-0.1893312142959912,-0.0743538357220611,0.0486373991339818,0.3400128515447416,-0.6147945515922404,-0.323191,-0.64621,0.243253,-0.647139,-1.042926,-0.112196,0.045026,0.043285,0.437219,-0.241692,0,0,-0.3228216549467,-0.6466043352017186,0.2432764541962118,-0.6469200419530683,-1.0439886110605008,-0.1121391869557266,0.0430319866112132,-0.2280792246899977,0.2740245374579923,-0.1056648046596772
5938,2024 8 08,15:40:58.886,-0.351319,-0.52427,0.434966,-0.642278,-0.964216,-0.190649,-0.073315,0.232059,0.27004,-0.413643,0,0,-0.3521928052666432,-0.5243729036265504,0.4345076916519293,-0.6420240302071332,-0.963936961687888,-0.1893971035811917,-0.074301893935958,0.0578084791772827,0.3365142089675045,-0.6047369740126283,-0.323205,-0.646196,0.243222,-0.647157,-1.04578,-0.111576,0.046703,0.187274,0.473825,-0.287202,0,0,-0.322840822199365,-0.6465839184416327,0.2432737314864012,-0.6469318898554148,-1.0440781805074757,-0.1121110276079403,0.0432155372806525,-0.2073115634554978,0.2840145605850926,-0.1147416644266934
5939,2024 8 08,15:40:58.894,-0.35127,-0.524268,0.434971,-0.642303,-0.964841,-0.190086,-0.073864,0.352874,0.102012,-0.460703,0,0,-0.352146665003311,-0.5243676584452228,0.4345308570693328,-0.6420379786967765,-0.9639821636034936,-0.1894315484021321,-0.0742799992391601,0.0725617552184186,0.3247890985191293,-0.5975352753119968,-0.323216,-0.646177,0.243179,-0.647187,-1.045194,-0.112441,0.044057,0.184319,0.52734,-0.343211,0,0,-0.3228595810893967,-0.6465635725195511,0.2432689949120811,-0.6469446453626441,-1.044133971482102,-0.1121275262275433,0.0432576104166199,-0.1877300352827229,0.296180832555838,-0.1261651312053587
5940,2024 8 08,15:40:58.902,-0.351251,-0.524267,0.434972,-0.642313,-0.965206,-0.210275,-0.038102,0.405015,0.030494,-0.480037,0,0,-0.3521018817531455,-0.5243626255229616,0.4345529142158661,-0.6420517297619377,-0.964043355423319,-0.1904737209820254,-0.0724710992772021,0.0891844174574977,0.3100743435931728,-0.5916603615463969,-0.323232,-0.646156,0.243132,-0.647217,-1.044683,-0.112348,0.04398,0.183468,0.628328,-0.359336,0,0,-0.3228782020349268,-0.6465431938935735,0.243262145166477,-0.6469582630945119,-1.0441614229079967,-0.1121385499161661,0.0432937298957889,-0.1691701335185867,0.3127881909280461,-0.1378236746450908
5941,2024 8 08,15:40:58.911,-0.351217,-0.524261,0.434973,-0.642336,-0.965607,-0.190688,-0.075945,0.38383,0.009348,-0.449153,0,0,-0.3520576376654882,-0.5243575442468136,0.4345739185050728,-0.6420659432738407,-0.9641215376521528,-0.1904844349329242,-0.072644794313342,0.1039166965846228,0.2950380264135142,-0.584534993469077,-0.323236,-0.64615,0.24309,-0.647237,-1.044532,-0.113336,0.043957,0.310188,0.319595,-0.279455,0,0,-0.3228960919331805,-0.6465235341988949,0.2432535379081532,-0.6469721999397863,-1.0441799517625967,-0.1121984224203578,0.0433268934009994,-0.1452022268426574,0.3131285313816438,-0.1449052409128362
5942,2024 8 08,15:40:58.919,-0.351178,-0.524245,0.434976,-0.642368,-0.965773,-0.191185,-0.074745,0.263125,-0.033271,-0.506539,0,0,-0.3520136557822138,-0.5243519170344729,0.4345940225798191,-0.6420810461101486,-0.9642041107695452,-0.1905194631862779,-0.0727498045976749,0.1118771117553916,0.2786225750928384,-0.5806351937956231,-0.323232,-0.646156,0.243132,-0.647217,-1.049176,-0.111626,0.048639,0.097413,0.100367,-0.213364,0,0,-0.3229128873365214,-0.6465051574889501,0.2432474610127455,-0.646984439942797,-1.0444297541744667,-0.1121698012993399,0.0435924987309495,-0.1330714655005245,0.3024904548125616,-0.1483281788671944
5943,2024 8 08,15:40:58.927,-0.351144,-0.524227,0.434976,-0.642402,-0.964966,-0.190766,-0.076637,0.280461,-0.123753,-0.428109,0,0,-0.351970172993103,-0.5243456711827492,0.4346131214508282,-0.6420970938046411,-0.964242205231068,-0.190531790026964,-0.0729441643677911,0.120306306167622,0.2585037963381965,-0.5730088841058419,-0.32323,-0.646161,0.243052,-0.647243,-1.050618,-0.111095,0.050094,0.031305,0.032254,-0.192829,0,0,-0.3229287429696953,-0.6464879496145026,0.2432376879621082,-0.6469973679456571,-1.0447391664657433,-0.1121160612343729,0.043917573794402,-0.1248526422254983,0.2889786320719336,-0.1505532199238346
5944,2024 8 08,15:40:58.936,-0.351119,-0.524198,0.434971,-0.642442,-0.967978,-0.190544,-0.070833,0.261614,-0.340817,-0.421988,0,0,-0.3519276143434479,-0.5243382876236117,0.4346310153782867,-0.6421143391144091,-0.9644289949695144,-0.1905324005256158,-0.0728386061494016,0.127371690859241,0.2285377565212867,-0.5654578399005498,-0.32324,-0.646143,0.243015,-0.64727,-1.04452,-0.112893,0.047606,0.133235,0.502399,-0.309251,0,0,-0.3229443058212106,-0.6464707021337774,0.2432265535640028,-0.6470109995483742,-1.044728208142456,-0.1121549081726542,0.0441019951046819,-0.1119482601142234,0.2996496504683369,-0.1584881089276429
5945,2024 8 08,15:40:58.944,-0.351094,-0.524158,0.434957,-0.642498,-0.965836,-0.190191,-0.070699,0.390291,-0.61416,-0.425482,0,0,-0.3518859336262754,-0.5243292732424311,0.4346473146093724,-0.6421335221586886,-0.9644993452210388,-0.190515330499335,-0.0727316258419315,0.1405176563162789,0.1864028686952223,-0.5584590479055223,-0.323248,-0.646128,0.242968,-0.647299,-1.044159,-0.112829,0.046797,0.328594,0.452463,-0.306543,0,0,-0.32295949053015,-0.6464535670270884,0.2432136258858027,-0.6470253995709554,-1.0446997477353333,-0.1121886127640215,0.0442367453494478,-0.0899211471085122,0.30729031794492,-0.1658908534812607
5946,2024 8 08,15:40:58.952,-0.351079,-0.524131,0.434947,-0.642535,-0.963921,-0.18995,-0.071284,0.487039,-0.791184,-0.427224,0,0,-0.3518455869449616,-0.5243193595803095,0.4346622988789037,-0.6421535960507541,-0.9644704279599868,-0.1904870639743682,-0.0726592445498349,0.157843723500465,0.1375235252604612,-0.5518972955102461,-0.323251,-0.64612,0.242938,-0.647316,-1.043979,-0.092487,0.008789,0.401551,0.41127,-0.288897,0,0,-0.3229740660036425,-0.6464368886757339,0.2431998445915125,-0.6470399295924076,-1.0446637103485663,-0.1112035321258204,0.0424643580819754,-0.0653475397530866,0.312489302047674,-0.1720411608071977
5947,2024 8 08,15:40:58.961,-0.351079,-0.524131,0.434947,-0.642535,-0.963897,-0.189947,-0.071291,0.488247,-0.793394,-0.427245,0,0,-0.3518072575977135,-0.5243099416012941,0.4346765339349585,-0.6421726662482163,-0.9644417565619876,-0.1904600607756498,-0.0725908323223432,0.1743638873254417,0.0909776489974381,-0.5456646807347338,-0.323244,-0.646113,0.242896,-0.647342,-1.044041,-0.094099,0.008213,0.256535,0.324169,-0.186043,0,0,-0.3229875627034604,-0.6464206942419471,0.2431846523619369,-0.6470550331127872,-1.0446325748311382,-0.1103483055195294,0.0407517901778766,-0.0492534127654322,0.3130732869452903,-0.1727412527668378
5948,2024 8 08,15:40:58.969,-0.351076,-0.524059,0.43492,-0.642614,-0.96904,-0.19135,-0.069421,0.254492,-1.144136,-0.485693,0,0,-0.3517706947178278,-0.5242973945212294,0.4346887072382105,-0.6421947329358054,-0.964671668733888,-0.1905045577368673,-0.072432340706226,0.1783702929591696,0.0292219665475662,-0.5426660966979971,-0.323242,-0.646101,0.242857,-0.647371,-1.044195,-0.112522,0.048666,0.303113,0.40707,-0.191133,0,0,-0.3230002845682874,-0.6464047095298497,0.24316826974384,-0.6470708314571478,-1.0446106960895811,-0.1104569902435529,0.0411475006689828,-0.0316350921271606,0.3177731225980258,-0.1736608401284959
5949,2024 8 08,15:40:58.977,-0.351083,-0.523971,0.434878,-0.64271,-0.964648,-0.192791,-0.071185,0.302307,-1.50427,-0.430555,0,0,-0.3517363099819364,-0.5242810747951678,0.4346981718763,-0.6422204962890151,-0.9646704852971936,-0.190618879850024,-0.0723699736709147,0.1845671283112111,-0.0474526317798121,-0.5370605418630973,-0.323244,-0.646113,0.242896,-0.647342,-1.042608,-0.113242,0.047899,0.305059,0.310944,-0.24114,0,0,-0.323012470339873,-0.6463901240533572,0.243154656256648,-0.6470843898842904,-1.0445105612851022,-0.1105962407313753,0.0414850756355336,-0.0148003875208026,0.3174316664681245,-0.1770347981220711
5950,2024 8 08,15:40:58.986,-0.351104,-0.523872,0.434823,-0.642816,-0.959864,-0.212929,-0.056387,0.304974,-1.637835,-0.314002,0,0,-0.3517046944828396,-0.5242606210554094,0.434704413282485,-0.6422502714745643,-0.9644301610323338,-0.1917343858575227,-0.071570824987369,0.1905874718956506,-0.1269717501908215,-0.5259076147699424,-0.323242,-0.646101,0.242857,-0.647371,-1.042826,-0.113466,0.047549,0.297496,0.244207,-0.236258,0,0,-0.3230239468228794,-0.6463756678506893,0.2431397734438156,-0.6470987203900759,-1.044426333220847,-0.1107397286948065,0.041788271853757,0.0008144318552375,0.3137704331447182,-0.1799959582159676
5951,2024 8 08,15:40:58.994,-0.351152,-0.523768,0.434776,-0.642907,-0.961322,-0.190525,-0.077858,0.025551,-1.758945,-0.138151,0,0,-0.3516770597586976,-0.5242359900026389,0.4347079926183607,-0.642283107900836,-0.9642747529807172,-0.1916739165646466,-0.0718851837380005,0.182335648300868,-0.2085704126812804,-0.5065197840314453,-0.323231,-0.646105,0.242779,-0.647402,-1.044594,-0.114824,0.045409,0.24105,-0.109498,-0.19512,0,0,-0.3230342994817354,-0.6463621344581548,0.2431217347716248,-0.647113884370572,-1.044434716559805,-0.1109439422600662,0.0419693082610691,0.0128262102624756,0.2926070114874823,-0.1807521603051692
5952,2024 8 08,15:40:59.002,-0.35122,-0.523674,0.43473,-0.642977,-0.959237,-0.190885,-0.072368,-0.052654,-1.49331,-0.013372,0,0,-0.3516542067707627,-0.5242078905025069,0.4347090929874427,-0.6423178025057942,-0.9640228653316812,-0.1916344707364142,-0.0719093245511005,0.1705861658858246,-0.2728073920472164,-0.481862394829873,-0.323227,-0.646116,0.242756,-0.6474,-1.043477,-0.115901,0.044565,0.196168,0.114564,-0.224488,0,0,-0.3230439345076486,-0.6463498277352471,0.2431034480330436,-0.6471281901520434,-1.0443868307318145,-0.1111917951470629,0.0420990928480156,0.0219932997493518,0.2837048609131082,-0.1829389522899107
5953,2024 8 08,15:40:59.011,-0.351227,-0.523665,0.434726,-0.642984,-0.959038,-0.19092,-0.071844,-0.060118,-1.467959,-0.001463,0,0,-0.3516328464322245,-0.5241807459773816,0.4347099383380705,-0.6423511123805045,-0.9637736220650972,-0.1915987471995935,-0.0719060583235454,0.1590509575915334,-0.3325649724448555,-0.4578424250883793,-0.323229,-0.646111,0.242721,-0.647418,-1.042265,-0.11464,0.047611,0.216842,0.22996,-0.118579,0,0,-0.3230531877822662,-0.6463378863484847,0.2430843256313914,-0.6471426806444411,-1.0442807391952238,-0.1113642053897097,0.0423746882056149,0.0317357347618842,0.2810176178674528,-0.1797209546754151
5954,2024 8 08,15:40:59.019,-0.351277,-0.523597,0.434683,-0.643041,-0.959445,-0.190923,-0.075647,0.099892,-1.358013,0.214243,0,0,-0.3516150541106133,-0.5241515586785125,0.434708591421167,-0.6423856067614792,-0.9635571909618422,-0.1915649598396138,-0.0720931054073682,0.1560930097119567,-0.3838373738226128,-0.4242381538339603,-0.323227,-0.646116,0.242756,-0.6474,-1.040083,-0.113253,0.048855,0.072754,0.22067,-0.014435,0,0,-0.3230618783931529,-0.6463267920310605,0.2430679093498218,-0.6471555466122191,-1.0440708522354625,-0.1114586451202242,0.0426987037953341,0.03378664802379,0.2780002369740801,-0.1714566569416444
5955,2024 8 08,15:40:59.027,-0.35133,-0.523535,0.434632,-0.643097,-0.959917,-0.237595,-0.066007,0.119105,-1.080435,0.240143,0,0,-0.3516008014050826,-0.5241207307445869,0.4347047618501086,-0.6424211764234051,-0.96337518141375,-0.1938664618476331,-0.0717888001369997,0.1542436092263588,-0.4186672551314822,-0.3910190961422622,-0.323226,-0.646098,0.242696,-0.647442,-1.041204,-0.114549,0.050216,0.009727,0.075228,0.00522,0,0,-0.3230700844734953,-0.6463153524295074,0.2430493138823307,-0.6471698692816081,-1.0439275096236893,-0.111613162864213,0.0430745686055674,0.0325836656226005,0.2678616251253761,-0.1626228240945621
5956,2024 8 08,15:40:59.036,-0.351378,-0.523497,0.434586,-0.643133,-0.960814,-0.188358,-0.078351,0.01731,-0.730835,0.400054,0,0,-0.3515896613348284,-0.5240895442073575,0.4346988237576032,-0.6424567676022348,-0.9632471223430626,-0.1935910387552515,-0.0721169101301498,0.1473969287650409,-0.434275642374908,-0.3514654413351492,-0.323224,-0.646095,0.242693,-0.647447,-1.043157,-0.114721,0.051118,0.001414,0.010933,0.052923,0,0,-0.3230777802498205,-0.6463043348080321,0.2430314981882142,-0.6471837258175277,-1.0438889841425047,-0.1117685547210023,0.043476740175289,0.0310251823414705,0.2550151938691073,-0.151845532889834
5957,2024 8 08,15:40:59.044,-0.351417,-0.523476,0.434547,-0.643155,-0.963002,-0.187639,-0.081045,0.002712,-0.474808,0.371513,0,0,-0.351581028268087,-0.5240588669969897,0.434691232569723,-0.642491679222123,-0.9632348662259096,-0.1932934368174889,-0.0725633146236423,0.1401626823267888,-0.4363022602561626,-0.3153165192683917,-0.323224,-0.646095,0.242693,-0.647447,-1.043381,-0.115023,0.050746,-0.013698,0.001713,0.059764,0,0,-0.3230850912373294,-0.6462938680676305,0.2430145732788035,-0.6471968895266513,-1.0438635849353797,-0.1119312769849522,0.0438402031665246,0.0287890232243969,0.2423500841756519,-0.1412650562453423
5958,2024 8 08,15:40:59.052,-0.351441,-0.52347,0.434509,-0.643173,-0.962527,-0.18956,-0.075772,0.152854,-0.282823,0.3163,0,0,-0.3515740268546826,-0.5240294236471401,0.4346821209412368,-0.6425257452610168,-0.963199472914614,-0.1931067649766144,-0.0727237488924601,0.1407972482104494,-0.4286282972433544,-0.2837356933049721,-0.323225,-0.646083,0.242703,-0.647455,-1.043064,-0.116498,0.047635,-0.097028,-0.01345,0.081428,0,0,-0.3230920866754629,-0.6462833246642489,0.2429989946148633,-0.6472097950503187,-1.0438236056886103,-0.1121596131357046,0.0440299430081983,0.0224981720631771,0.2295600799668693,-0.1301304034330752
5959,2024 8 08,15:40:59.061,-0.351445,-0.523468,0.434502,-0.643176,-0.962449,-0.189878,-0.074899,0.177707,-0.251043,0.307161,0,0,-0.3515675755119485,-0.5240013524647831,0.4346731148941749,-0.642558257997966,-0.9631619492688832,-0.1929453267277837,-0.0728325114478371,0.1426427357999269,-0.4197490323811866,-0.2541908586397234,-0.323216,-0.646177,0.243179,-0.647187,-1.043066,-0.114443,0.048302,-0.067458,-0.116247,0.208325,0,0,-0.3230982823416898,-0.6462780084310364,0.2430079948841201,-0.6472086552978028,-1.0437857254041798,-0.1122737824789193,0.0442435458577884,0.0180003634600182,0.2122697259685258,-0.1132076332614214
5960,2024 8 08,15:40:59.069,-0.351456,-0.523467,0.434477,-0.643188,-0.964019,-0.187162,-0.077913,0.132581,-0.195941,0.305551,0,0,-0.3515619967363511,-0.5239746348415439,0.4346633091494661,-0.6425897450980675,-0.963204801805439,-0.1926561603913945,-0.0730865358754453,0.1421396490099306,-0.4085586307621273,-0.2262037657077373,-0.323204,-0.646079,0.242733,-0.647458,-1.043516,-0.113086,0.050806,-0.075636,-0.233366,0.194564,0,0,-0.3231035682246053,-0.6462680580094846,0.2429942451399141,-0.6472211225329126,-1.0437722391339708,-0.1123143933549734,0.044571668564899,0.0133185452870173,0.1899879396700995,-0.0978190515983503
5961,2024 8 08,15:40:59.077,-0.351462,-0.523474,0.434448,-0.643199,-0.962748,-0.191348,-0.073001,0.270806,-0.0879,0.25637,0,0,-0.3515569968995335,-0.5239496030994667,0.4346525436919928,-0.6426202078431642,-0.963181961715167,-0.1925907523718248,-0.073082259081673,0.148572966559434,-0.3925256992240208,-0.2020750774223504,-0.323192,-0.646083,0.24276,-0.647449,-1.044118,-0.114989,0.047458,-0.174923,-0.352975,0.234268,0,0,-0.323107989813375,-0.6462588051090103,0.2429825328829184,-0.647232516406267,-1.043789527177272,-0.1124481236872247,0.044715985136654,0.0039064680226664,0.1628397926865946,-0.0812146990184328
5962,2024 8 08,15:40:59.086,-0.351461,-0.523489,0.434413,-0.643211,-0.964815,-0.191012,-0.07358,0.297989,-0.018379,0.294971,0,0,-0.3515521970545568,-0.5239265729444933,0.4346405665073931,-0.6426497474510059,-0.9632636136294086,-0.1925118147532335,-0.0731071461275893,0.1560437682314623,-0.3738183642628198,-0.1772227735512328,-0.323182,-0.64609,0.242791,-0.647436,-1.043234,-0.132764,-0.013293,-0.277941,-0.45999,0.242076,0,0,-0.3231116903227062,-0.6462503648535598,0.2429729562387725,-0.6472426905859535,-1.0437617508184085,-0.1134639175028635,0.0418155358798213,-0.0101859053784668,0.1316983030522648,-0.0650501640675112
5963,2024 8 08,15:40:59.094,-0.351462,-0.523474,0.434448,-0.643199,-0.964098,-0.189036,-0.070648,0.351284,-0.099382,0.350623,0,0,-0.3515476872018289,-0.5239039442972686,0.4346309381820235,-0.6426772100784556,-0.963305332947938,-0.1923380240155718,-0.0729841888212099,0.1658057798198892,-0.3600965460496788,-0.1508304848736712,-0.323178,-0.646093,0.242802,-0.647431,-1.042948,-0.114138,0.050375,-0.286323,-0.488538,0.250136,0,0,-0.3231150058065709,-0.6462424966108818,0.2429644084268338,-0.6472521060566558,-1.043721063277488,-0.1134976216277203,0.0422435090858303,-0.0239927601095434,0.1006864878996516,-0.0492908558641356
5964,2024 8 08,15:40:59.102,-0.351464,-0.523516,0.434338,-0.643238,-0.963566,-0.189739,-0.076043,0.409905,-0.116891,0.362653,0,0,-0.3515435028417374,-0.5238845470824052,0.4346162912729223,-0.6427052495745327,-0.9633183663005412,-0.1922080728147932,-0.0731371293801494,0.1780107408288948,-0.3479362687471948,-0.1251563106299876,-0.323165,-0.646103,0.242835,-0.647416,-1.042388,-0.110423,0.048675,-0.213037,-0.522704,0.292611,0,0,-0.3231175055162423,-0.6462355217803377,0.2429579380054921,-0.647260300753823,-1.0436544101136136,-0.1133438905463343,0.0425650836315387,-0.0334449721040663,0.069516963504669,-0.0321957630709288
5965,2024 8 08,15:40:59.111,-0.351465,-0.523519,0.434329,-0.643241,-0.963446,-0.189898,-0.07726,0.423127,-0.12084,0.365366,0,0,-0.3515395776996505,-0.5238662697282849,0.4346019267092761,-0.6427320370958061,-0.963324747985514,-0.1920925691740536,-0.0733432729111419,0.19026655378745,-0.3365814553098351,-0.1006301950984882,-0.323151,-0.646111,0.242874,-0.6474,-1.043076,-0.113607,0.047832,-0.243045,-0.449921,0.295899,0,0,-0.3231191802404302,-0.6462292956913208,0.2429537411052175,-0.6472672857161318,-1.0436254896079329,-0.1133570460190175,0.0428284294499618,-0.043924973498863,0.0435450653294355,-0.0157910249173824
5966,2024 8 08,15:40:59.119,-0.351462,-0.523474,0.434448,-0.643199,-0.96305,-0.191039,-0.07681,0.380244,-0.075781,0.27403,0,0,-0.351535698814668,-0.5238466562418705,0.4345942303738124,-0.6427553852410158,-0.9633110105862384,-0.1920398907153509,-0.0735166092655848,0.1997654260980775,-0.3235414325443433,-0.0818971853435638,-0.323138,-0.646114,0.242912,-0.647389,-1.042383,-0.116009,0.047669,-0.302292,-0.414183,0.26312,0,0,-0.3231201212284086,-0.6462235309067548,0.2429516540499566,-0.6472733714303252,-1.0435633651275362,-0.1134896437180666,0.0430704579774637,-0.0568433248239198,0.0206586620629637,-0.0018454736715132
5967,2024 8 08,15:40:59.127,-0.351467,-0.523548,0.434257,-0.643265,-0.964044,-0.19059,-0.0767,0.369795,-0.019353,0.479013,0,0,-0.3515322638739346,-0.523831723429777,0.4345773688551217,-0.642780865978965,-0.9633476600569264,-0.1919673961795833,-0.0736757788023056,0.2082669047931736,-0.3083320109171261,-0.0538516760763856,-0.32313,-0.646109,0.242953,-0.647382,-1.042548,-0.114855,0.044121,-0.38919,-0.293712,0.331306,0,0,-0.3231206151669882,-0.646217804361417,0.2429517213474588,-0.6472788028588089,-1.0435125968711594,-0.1135579115321633,0.0431229850785905,-0.0734606585827238,0.0049401289598155,0.0148121000120623
5968,2024 8 08,15:40:59.136,-0.351478,-0.523564,0.434213,-0.643275,-0.962498,-0.190476,-0.073438,0.277313,-0.139875,0.485834,0,0,-0.3515295506802378,-0.5238183372582882,0.4345591504123656,-0.6428055726800168,-0.96330517705408,-0.1918928263706041,-0.0736638898621903,0.2117192095535149,-0.2999091603712698,-0.0268673922725663,-0.323118,-0.646101,0.242998,-0.64738,-1.040725,-0.115496,0.042914,-0.372277,-0.302149,0.581606,0,0,-0.3231204844086388,-0.6462119641433461,0.2429540352800858,-0.6472838627158684,-1.043373217027601,-0.1136548159555551,0.043112535824661,-0.0884014756535876,-0.0104143274881751,0.0431517950114592
5969,2024 8 08,15:40:59.144,-0.35149,-0.523579,0.434173,-0.643283,-0.96245,-0.189025,-0.073652,0.297586,-0.082513,0.443207,0,0,-0.3515275731462259,-0.5238063703953738,0.4345398428917473,-0.642829444046016,-0.963262418201376,-0.1917494350520739,-0.0736632953690808,0.2160125490758392,-0.2890393523527063,-0.003363672658938,-0.323114,-0.646097,0.243016,-0.647379,-1.040393,-0.115616,0.04308,-0.385877,-0.298347,0.63492,0,0,-0.3231201601882069,-0.6462062159361789,0.2429571335160815,-0.6472886195800749,-1.0432242061762211,-0.1137528751577774,0.0431109090334279,-0.1032752518709082,-0.0248109611137664,0.0727402052608863
5970,2024 8 08,15:40:59.152,-0.351507,-0.523589,0.434131,-0.643295,-0.964193,-0.192147,-0.071251,0.303046,-0.19878,0.431725,0,0,-0.3515265444889145,-0.5237955018756051,0.4345194007471599,-0.6428527218437152,-0.9633089472913072,-0.1917693132994702,-0.0735426806006267,0.2203642216220472,-0.2845263847350709,0.0183907609740088,-0.323104,-0.646082,0.243066,-0.64738,-1.041072,-0.114964,0.045925,-0.491575,-0.253417,0.585214,0,0,-0.3231193521787965,-0.6462000051393699,0.2429625768402774,-0.6472931886010711,-1.04311659586741,-0.1138134313998885,0.0432516135817565,-0.1226902392773628,-0.0362412630580781,0.0983638949978419
5971,2024 8 08,15:40:59.161,-0.351518,-0.523595,0.434092,-0.64331,-0.965024,-0.18954,-0.073711,0.347976,-0.187631,0.341709,0,0,-0.3515261172644688,-0.5237854767818249,0.434498030709802,-0.6428755857515294,-0.9633946999267418,-0.1916578476344967,-0.0735510965705954,0.2267448105409448,-0.2796816154983174,0.0345566729253084,-0.323089,-0.646061,0.243122,-0.647387,-1.040783,-0.112427,0.045025,-0.451687,-0.215144,0.646509,0,0,-0.3231178345698566,-0.6461930548824014,0.2429705479982635,-0.6472978791710174,-1.0429999160740395,-0.1137441098298941,0.0433402829026687,-0.1391400773134947,-0.0451863999051742,0.1257711502479498
5972,2024 8 08,15:40:59.169,-0.351521,-0.523597,0.434081,-0.643314,-0.965261,-0.188796,-0.074413,0.360803,-0.184447,0.31601,0,0,-0.3515258614012453,-0.5237760529427335,0.4344771791743118,-0.6428975064639528,-0.9634880149304046,-0.1915147552527718,-0.0735941917420656,0.2334477200138976,-0.2749198847234015,0.048629339279043,-0.323071,-0.646044,0.243188,-0.647389,-1.043327,-0.112279,0.043997,-0.494845,-0.266866,0.664009,0,0,-0.3231154928413638,-0.6461856021382812,0.2429814205983503,-0.6473024352124666,-1.0430162702703374,-0.1136708543383994,0.0433731187575353,-0.1569253234478199,-0.0562703799099155,0.1526830427355524
5973,2024 8 08,15:40:59.177,-0.351524,-0.523598,0.434061,-0.643325,-0.964652,-0.173056,-0.076193,0.194705,-0.183514,0.181076,0,0,-0.351525768331183,-0.5237671502955968,0.4344563702155962,-0.6429188811407551,-0.9635462141838844,-0.1905918174901332,-0.0737241321549623,0.2315105840132027,-0.2703495904872315,0.0552516723150908,-0.323057,-0.646024,0.243261,-0.647388,-1.043871,-0.113676,0.045973,-0.629158,-0.231557,0.680626,0,0,-0.3231125681992956,-0.6461775220313671,0.2429953995684328,-0.6473067134518432,-1.0430590067568204,-0.1136711116214794,0.0435031128196585,-0.1805369572754289,-0.0650347109144197,0.1790801905987747
5974,2024 8 08,15:40:59.186,-0.351526,-0.523592,0.434047,-0.643338,-0.962788,-0.190105,-0.075704,0.060705,-0.099221,0.056456,0,0,-0.3515257799146238,-0.5237583927808169,0.4344359017048164,-0.6429398370837174,-0.96350830347469,-0.1905674766156266,-0.0738231255472142,0.2229703048125425,-0.2617931609628699,0.0553118886993363,-0.323049,-0.646004,0.243337,-0.647384,-1.044616,-0.112063,0.044242,-0.742232,-0.366235,0.758279,0,0,-0.3231093897893308,-0.6461688459297987,0.2430124795900112,-0.647310577779251,-1.0431368564189794,-0.1135907060404054,0.0435400571786756,-0.2086217094116575,-0.0800947253686987,0.208040131068836
5975,2024 8 08,15:40:59.194,-0.351521,-0.523597,0.434081,-0.643314,-0.961548,-0.189665,-0.078019,0.019373,0.051447,0.018017,0,0,-0.3515255409188926,-0.523750323141776,0.4344181566195755,-0.6429585452295314,-0.9634102883009557,-0.1905223527848452,-0.0740329192698535,0.2127904395719154,-0.2461311529147264,0.0534471442643695,-0.323045,-0.645997,0.243368,-0.647381,-1.044801,-0.103968,0.026699,-0.765871,-0.407775,0.776611,0,0,-0.3231061702998642,-0.6461602536333088,0.2430302556105106,-0.6473140988902885,-1.0432200635980304,-0.1131095707383851,0.0426980043197418,-0.2364841739410746,-0.0964787391002638,0.2364686745153942
5976,2024 8 08,15:40:59.202,-0.35152,-0.523597,0.434031,-0.643348,-0.965433,-0.188539,-0.073487,-0.034793,0.099022,0.088112,0,0,-0.3515252638729479,-0.5237426569846872,0.4343987987885967,-0.6429780179680548,-0.9635114238859076,-0.1904231851456029,-0.0740056233063608,0.2004112675933196,-0.2288734952689901,0.055180387051151,-0.323033,-0.645986,0.243435,-0.647372,-1.044442,-0.11142,0.048294,-0.685544,-0.426451,0.741284,0,0,-0.323102511784871,-0.6461515409516433,0.2430504928299851,-0.647316993945774,-1.043281160418129,-0.1130250922014659,0.0429778041037547,-0.2589371652440209,-0.1129773521452506,0.2617094407896245
5977,2024 8 08,15:40:59.211,-0.35152,-0.523597,0.434031,-0.643348,-0.963432,-0.188827,-0.075278,0.029085,-0.00767,0.110748,0,0,-0.3515250006793005,-0.5237353741354528,0.4343804088491669,-0.642996517069652,-0.9635074526916124,-0.1903433758883227,-0.0740692421410428,0.1918449542136536,-0.2178133205055406,0.0579587676985934,-0.323014,-0.645976,0.243506,-0.647364,-1.043569,-0.113419,0.046891,-0.543049,-0.478668,0.694691,0,0,-0.3230980861956274,-0.646142763904061,0.2430732681884858,-0.6473193442484853,-1.0432955523972225,-0.1130447875913926,0.043173463898567,-0.2731427569818198,-0.1312618845379881,0.2833585187501432
5978,2024 8 08,15:40:59.219,-0.35152,-0.523597,0.434031,-0.643348,-0.96244,-0.188969,-0.076167,0.06078,-0.06061,0.12198,0,0,-0.3515247506453354,-0.5237284554286801,0.4343629384067085,-0.6430140912161694,-0.9634540800570316,-0.1902746570939066,-0.0741741300339906,0.1852917065029709,-0.2099531544802635,0.0611598293136637,-0.322983,-0.645974,0.243602,-0.647347,-1.043974,-0.112317,0.044939,-0.367621,-0.609301,0.671573,0,0,-0.323092331885846,-0.646134325708858,0.2430997047790615,-0.647320727036061,-1.0433294747773614,-0.1130083982118229,0.0432617407036386,-0.2778666691327288,-0.1551638403110886,0.302769242812636
5979,2024 8 08,15:40:59.227,-0.351525,-0.524249,0.43491,-0.64222,-0.966969,-0.188558,-0.077824,0.112587,-0.061025,0.173626,0,0,-0.3515247631130687,-0.523754482657246,0.4343902914863731,-0.6429743866553609,-0.96362982605418,-0.1901888242392113,-0.0743566235322911,0.1816564711778223,-0.2025067467562503,0.0667831378479806,-0.322962,-0.645968,0.243683,-0.647333,-1.043977,-0.111354,0.046354,-0.604718,-0.49109,0.790628,0,0,-0.3230858152915537,-0.646126009423415,0.2431288695401084,-0.647321340684258,-1.0433618510384932,-0.1129256783012318,0.0434163536684567,-0.2942092356760923,-0.1719601482955342,0.3271621806720042
5980,2024 8 08,15:40:59.236,-0.351535,-0.523602,0.433969,-0.643377,-0.96574,-0.187673,-0.075678,0.172488,-0.111812,0.284301,0,0,-0.3515252749574152,-0.5237468585243837,0.4343692269120544,-0.6429945173225928,-0.963735334751471,-0.1900630330272507,-0.0744226923556765,0.1811980476189312,-0.1979720094184378,0.0776590309555815,-0.322942,-0.645963,0.243767,-0.647316,-1.047265,-0.109923,0.044978,-0.551421,-0.605822,0.675916,0,0,-0.323078624526976,-0.6461178589522443,0.243160776063103,-0.647321073650045,-1.0435570084865686,-0.1127755443861702,0.0434944359850338,-0.3070698238922877,-0.1936532408807575,0.344599871638404
5981,2024 8 08,15:40:59.244,-0.351555,-0.523601,0.43394,-0.643388,-0.963781,-0.187514,-0.074022,0.032487,-0.221576,0.354105,0,0,-0.3515267612095444,-0.5237395655981645,0.4343477655664516,-0.6430141914564632,-0.9637376180138972,-0.1899355813758881,-0.0744026577378927,0.1737624952379847,-0.1991522089475159,0.0914813294078025,-0.322941,-0.645963,0.24377,-0.647315,-1.047388,-0.10987,0.044926,-0.549426,-0.610115,0.671624,0,0,-0.3230717433006272,-0.6461101160046321,0.2431912372599478,-0.6473207699675427,-1.04374855806224,-0.1126302671668617,0.0435660141857821,-0.3191876326976733,-0.2144763288367196,0.3609510780564837
5982,2024 8 08,15:40:59.252,-0.351573,-0.523602,0.433902,-0.643402,-0.96225,-0.190661,-0.077695,0.248586,-0.291933,0.463983,0,0,-0.3515290731490671,-0.5237326873182563,0.4343254772881291,-0.64303358188364,-0.9636632371132025,-0.1899718523070937,-0.0745672748509981,0.1775036704760854,-0.2037912485001401,0.1101064129374123,-0.322933,-0.645958,0.243845,-0.647296,-1.046939,-0.112147,0.043556,-0.777296,-0.553343,0.500423,0,0,-0.3230648061355958,-0.6461025102044005,0.2432239253969504,-0.6473195314691655,-1.043908080159128,-0.1126061038085186,0.043565513476493,-0.3420930510627896,-0.2314196623948836,0.3679246741536595
5983,2024 8 08,15:40:59.261,-0.3516,-0.523603,0.433857,-0.643417,-0.961968,-0.187078,-0.075045,0.154942,-0.30412,0.534918,0,0,-0.3515326194916137,-0.5237262029523434,0.4343020534237226,-0.643052752789458,-0.9635784752575424,-0.189827159691739,-0.0745911611084481,0.1763755869522812,-0.2088076860751331,0.1313469922905417,-0.322928,-0.645951,0.243916,-0.647279,-1.042865,-0.112745,0.051105,-0.679831,-0.4373,0.545418,0,0,-0.323057965828816,-0.6460949346941804,0.2432585291271029,-0.6473175048957073,-1.0438559261511715,-0.1126130486180926,0.0439424878026684,-0.3589799485096501,-0.2417136792751394,0.3767993404459765
5984,2024 8 08,15:40:59.269,-0.351606,-0.523603,0.433848,-0.643419,-0.961946,-0.186137,-0.074298,0.125123,-0.305078,0.547979,0,0,-0.351536288517033,-0.5237200428047262,0.4342793507525364,-0.643071065149985,-0.9634968514946652,-0.189642651707152,-0.0745765030530257,0.1738129576046671,-0.2136212017713764,0.1521785926760146,-0.322924,-0.645942,0.243983,-0.647264,-1.046089,-0.108805,0.043283,-0.561436,-0.483547,0.438219,0,0,-0.3230512675373752,-0.6460872879594713,0.2432947526707477,-0.6473148296509219,-1.043967579843613,-0.112422646187188,0.0439095134125349,-0.3691027510841676,-0.2538053453113825,0.3798703234236776
5985,2024 8 08,15:40:59.277,-0.351633,-0.523605,0.433812,-0.643428,-0.962321,-0.188317,-0.075362,0.122393,-0.352373,0.596383,0,0,-0.3515411240911814,-0.5237142906644898,0.4342559832149096,-0.6430889118924857,-0.9634380589199318,-0.1895763691217944,-0.0746157779003744,0.1712419597244337,-0.2205587916828076,0.1743888130422139,-0.322928,-0.645951,0.243916,-0.647279,-1.043327,-0.112279,0.043997,-0.659774,-0.324014,0.264638,0,0,-0.3230451041605064,-0.6460804735614978,0.2433258150372103,-0.6473130381683758,-1.0439355508514323,-0.1124154638778286,0.0439138877419082,-0.3836363135299592,-0.2573157780458133,0.3741087072524938
5986,2024 8 08,15:40:59.286,-0.351669,-0.523607,0.433766,-0.643437,-0.965771,-0.23658,0.065932,0.122108,-0.318025,0.655256,0,0,-0.3515475178866223,-0.5237089261312653,0.4342314840541641,-0.6431063162978614,-0.9635547059739352,-0.1919265506657047,-0.0675883890053557,0.168785261738212,-0.2254321020986672,0.1984321723901032,-0.322931,-0.645938,0.244103,-0.64722,-1.0439,-0.111782,0.042525,-0.670016,-0.57656,0.300392,0,0,-0.323039398952481,-0.6460733498834228,0.2433646742853498,-0.647308386259957,-1.0439337733088607,-0.1123837906839372,0.0438444433548128,-0.3979552978534612,-0.2732779891435227,0.3704228718898691
5987,2024 8 08,15:40:59.294,-0.351704,-0.523607,0.433729,-0.643443,-0.965954,-0.188593,-0.075476,0.030242,-0.306847,0.577455,0,0,-0.3515553419922912,-0.523703829824702,0.4342063598514559,-0.6431231504829683,-0.9636746706752384,-0.1917598731324195,-0.0679827695550879,0.1618580986513014,-0.2295028469937338,0.217383313770598,-0.322931,-0.645938,0.244103,-0.64722,-1.043967,-0.111815,0.042063,-0.671208,-0.605956,0.304553,0,0,-0.323033979004857,-0.6460665823892516,0.2434015905710823,-0.6473039669469591,-1.0439354346434175,-0.1123553511497403,0.0437553711870721,-0.4116179329607881,-0.2899118896863465,0.3671293782953756
5988,2024 8 08,15:40:59.302,-0.351743,-0.523611,0.433687,-0.643447,-0.961154,-0.188136,-0.080254,0.094883,-0.305413,0.643901,0,0,-0.3515647248926766,-0.5236991883334668,0.4341803918588831,-0.6431393429588198,-0.9635486371414764,-0.1915786794757985,-0.0685963310773335,0.1585093437187363,-0.2332983546440471,0.2387091980820681,-0.322931,-0.645938,0.244103,-0.64722,-1.04188,-0.113076,0.044099,-0.461843,-0.609728,0.252708,0,0,-0.3230288300546141,-0.6460601532697889,0.2434366610425282,-0.6472997685996111,-1.0438326629112469,-0.1123913835922533,0.0437725526277185,-0.4141291863127487,-0.3059026952020292,0.3614083093806068
5989,2024 8 08,15:40:59.311,-0.351784,-0.523618,0.43364,-0.643451,-0.963688,-0.187658,-0.075325,0.117904,-0.260518,0.711869,0,0,-0.3515756886480428,-0.5236951289167935,0.4341533722659388,-0.6431549258108787,-0.9635556052844024,-0.1913826455020086,-0.0689327645234668,0.1564790765327995,-0.2346593369118448,0.2623671881779648,-0.322924,-0.645942,0.243983,-0.647264,-1.045723,-0.102338,0.033042,-0.48423,-0.713621,0.297136,0,0,-0.3230235885518833,-0.6460542456062994,0.2434639779904018,-0.6472979801696306,-1.0439271797656842,-0.1118887144126406,0.0432360249963326,-0.4176342269971112,-0.3262886104419277,0.3581946939115765
5990,2024 8 08,15:40:59.319,-0.351795,-0.523619,0.433627,-0.643452,-0.964678,-0.187531,-0.073586,0.121386,-0.246832,0.729044,0,0,-0.3515866542156406,-0.5236913224709538,0.4341270536526418,-0.6431697795203347,-0.9636117250201824,-0.1911900632269081,-0.0691654262972935,0.1547244227061595,-0.2352679700662525,0.2857010287690665,-0.322912,-0.645977,0.24427,-0.647127,-1.04508,-0.114028,0.043882,-0.385609,-0.780335,0.303854,0,0,-0.3230180091242891,-0.6460503833259844,0.2435042790908816,-0.647289431161149,-1.0439848207773998,-0.1119956786920086,0.043268323746516,-0.4160329656472556,-0.3489909299198312,0.3554776592159976
5991,2024 8 08,15:40:59.327,-0.351823,-0.523628,0.43359,-0.643454,-0.965536,-0.1896,-0.079225,0.165486,-0.244612,0.688295,0,0,-0.3515984715048586,-0.5236881563474062,0.4341002009700098,-0.643183990544318,-0.9637079387691732,-0.1911105600655627,-0.0696684049824288,0.1552625015708515,-0.2357351715629399,0.3058307273306132,-0.322899,-0.645998,0.244336,-0.647088,-1.041351,-0.111804,0.046755,-0.570978,-0.8415,0.304944,0,0,-0.3230120586680746,-0.6460477641596852,0.2435458651363375,-0.6472793596030916,-1.0438531297385298,-0.1119860947574081,0.0434426575591902,-0.4237802173648928,-0.3736163834238397,0.3529509762551978
5992,2024 8 08,15:40:59.336,-0.351863,-0.523636,0.433536,-0.643462,-0.96476,-0.188905,-0.078708,0.22281,-0.330184,0.717505,0,0,-0.3516116979296156,-0.5236855485300358,0.4340719909215093,-0.643197891017102,-0.9637605418307146,-0.1910002820622846,-0.0701203847333074,0.1586398764923089,-0.2404576129847929,0.3264144409640825,-0.322885,-0.646029,0.24441,-0.647037,-1.042297,-0.112612,0.046059,-0.55334,-1.150265,0.35483,0,0,-0.3230057057346709,-0.6460468259517009,0.2435890718795207,-0.6472672416229369,-1.0437753232516034,-0.1120173900195377,0.0435734746812306,-0.4302582064966482,-0.4124488142526477,0.3530449274424379
5993,2024 8 08,15:40:59.344,-0.351907,-0.523641,0.433479,-0.643474,-0.964458,-0.188905,-0.075525,0.197524,-0.401583,0.687063,0,0,-0.3516264630331349,-0.523683321103534,0.4340423413754338,-0.6432116964662469,-0.9637954147391788,-0.1908955179591703,-0.070390615496642,0.1605840826676935,-0.2485138823355532,0.3444468689158784,-0.322882,-0.646034,0.244424,-0.647027,-1.04247,-0.11276,0.045931,-0.550105,-1.206894,0.36398,0,0,-0.3229995204479373,-0.6460461846541159,0.2436308182855446,-0.64725522954179,-1.0437100570890232,-0.1120545205185608,0.0436913509471691,-0.4362505461718157,-0.4521710735400153,0.3535916810703159
5994,2024 8 08,15:40:59.352,-0.35195,-0.523642,0.433429,-0.643483,-0.966076,-0.185605,-0.075496,0.102267,-0.338147,0.632712,0,0,-0.3516426398814781,-0.5236812550483573,0.434011674306662,-0.6432252616429345,-0.9639094440022198,-0.1906309920612118,-0.0706458847218099,0.1576682285343088,-0.2529955382187756,0.3588601254700845,-0.322877,-0.646062,0.244499,-0.646974,-1.042116,-0.291256,-0.044494,-0.743307,-1.217857,0.317294,0,0,-0.3229933944255405,-0.6460469754214101,0.2436742273712674,-0.6472411680647006,-1.043630354234572,-0.1210145944926328,0.0392820833998106,-0.4516033688632249,-0.4904553698630145,0.3517767970168001
5995,2024 8 08,15:40:59.361,-0.351991,-0.523648,0.433378,-0.64349,-0.965671,-0.187395,-0.072334,0.111324,-0.742393,-0.264492,0,0,-0.3516600578874042,-0.5236795922959394,0.4339799905913289,-0.6432384985607877,-0.9639975218021088,-0.1904691924581512,-0.0707302904857194,0.1553510171075934,-0.2774654113078367,0.3276925191965802,-0.322869,-0.646092,0.244591,-0.646912,-1.040895,-0.112376,0.041689,-0.782631,-1.220089,0.403511,0,0,-0.3229871747042634,-0.6460492266503396,0.243720066002704,-0.6472247096614655,-1.0434935865228434,-0.1205826647680011,0.0394024292298201,-0.4681547504200637,-0.5269370513698638,0.3543635071659601
5996,2024 8 08,15:40:59.369,-0.352003,-0.52365,0.433362,-0.643492,-0.965431,-0.318799,-0.043631,0.119648,-0.30678,0.668046,0,0,-0.3516772049930339,-0.5236781126811424,0.4339490910617625,-0.6432511736327484,-0.9640691957120032,-0.1968856828352436,-0.0693753259614334,0.1535658662522137,-0.2789311407424449,0.3447101932367512,-0.322855,-0.646123,0.244696,-0.646849,-1.044417,-0.111189,0.045329,-0.838294,-1.220565,0.611004,0,0,-0.3229805659690503,-0.6460529153178226,0.2437688627025688,-0.6472059241783922,-1.0435397571967011,-0.120112981529601,0.0396987577683291,-0.4866617128990604,-0.5616184488013706,0.367195531807662
5997,2024 8 08,15:40:59.377,-0.352038,-0.52365,0.433318,-0.643503,-0.964085,-0.186486,-0.077024,0.202287,-0.42673,0.751388,0,0,-0.3516952447433822,-0.5236767070470852,0.4339175365086744,-0.643263764951111,-0.964069985926403,-0.1963656986934814,-0.0697577596633617,0.156001922939603,-0.2863210837053226,0.3650440835749137,-0.322847,-0.646137,0.244801,-0.646798,-1.045202,-0.109056,0.039413,-0.944106,-0.940421,0.563796,0,0,-0.3229738876705977,-0.6460571195519315,0.2438204695674403,-0.6471855279694725,-1.043622869336866,-0.119560132453121,0.0396844698799126,-0.5095339272541074,-0.580558576361302,0.3770255552172789
5998,2024 8 08,15:40:59.386,-0.352076,-0.52365,0.43326,-0.643521,-0.963254,-0.186738,-0.077739,0.233936,-0.513186,0.663462,0,0,-0.3517142825062131,-0.5236753716947309,0.4338846596832406,-0.6432766267035555,-0.9640291866300827,-0.1958843137588074,-0.0701568216801936,0.1598986267926228,-0.2976643295200564,0.379964979396168,-0.322844,-0.646142,0.244912,-0.646754,-1.046491,-0.110038,0.045057,-0.922496,-0.875444,0.645153,0,0,-0.3229673932870678,-0.6460613635743349,0.2438750460890683,-0.6471639515709988,-1.0437662758700228,-0.1190840258304649,0.039953096385917,-0.530182030891402,-0.5953028475432369,0.390431927456415
5999,2024 8 08,15:40:59.394,-0.352112,-0.52365,0.433197,-0.643543,-0.963004,-0.188525,-0.079558,0.320449,-0.500742,0.623773,0,0,-0.3517341683809024,-0.5236741031099943,0.4338502766990785,-0.6432899453683777,-0.9639779272985788,-0.195516348070867,-0.070626880596184,0.1679261454529917,-0.3078182130440536,0.3921553804263596,-0.322843,-0.646143,0.244939,-0.646743,-1.046802,-0.110275,0.046417,-0.917288,-0.859787,0.664757,0,0,-0.3229611736227145,-0.646065445395618,0.2439282437846149,-0.6471429039924489,-1.0439180620765216,-0.1186435745389417,0.0402762915666211,-0.549537329346832,-0.6085270551660751,0.4041481810835942
6000,2024 8 08,15:40:59.402,-0.352154,-0.523648,0.433139,-0.643561,-0.96419,-0.189838,-0.078745,0.159321,-0.413567,0.652846,0,0,-0.3517551599618573,-0.5236727979544946,0.4338147128641246,-0.6433034980999587,-0.9639885309336496,-0.1952324306673236,-0.0710327865663748,0.1674958881803421,-0.3131056523918509,0.4051899114050416,-0.322841,-0.646144,0.245011,-0.646716,-1.044716,-0.108891,0.046035,-0.780744,-0.720633,0.53441,0,0,-0.3229551649415788,-0.6460693731258371,0.2439823815953841,-0.6471215587928264,-1.0439579589726955,-0.1181559458119946,0.0405642269882901,-0.5610976628794904,-0.6141323524077713,0.4106612720294145
6001,2024 8 08,15:40:59.411,-0.352186,-0.523657,0.433087,-0.643571,-0.963764,-0.1875,-0.078602,0.203174,-0.263376,0.627845,0,0,-0.3517767019637644,-0.5236720080567698,0.4337783272209183,-0.6433168731949608,-0.9639773043869672,-0.1948458091339575,-0.071411247238056,0.169279793771325,-0.3106191697722583,0.4163226658347895,-0.322824,-0.646141,0.245083,-0.6467,-1.041324,-0.10889,0.043441,-0.522644,-0.550985,0.634421,0,0,-0.3229486066944998,-0.6460729544695453,0.2440374125156149,-0.6471004808531851,-1.0438262610240607,-0.1176926485213949,0.0407080656388756,-0.5591749797355159,-0.6109749847873827,0.4218492584279437
6002,2024 8 08,15:40:59.419,-0.352197,-0.52366,0.433069,-0.643575,-0.963507,-0.186447,-0.078612,0.232746,-0.205433,0.615217,0,0,-0.3517977168655761,-0.5236714076539313,0.4337428608598724,-0.6433297795352128,-0.9639537891676188,-0.1944258686772596,-0.0717712848761532,0.1724531040827587,-0.3053598612836454,0.4262673825430501,-0.322808,-0.646143,0.245148,-0.646681,-1.042534,-0.111005,0.044863,-0.453781,-0.549781,0.528931,0,0,-0.3229415763597748,-0.646076456746068,0.2440929418898341,-0.6470795068105257,-1.0437616479728578,-0.1173582660953251,0.0409158123569318,-0.55390528074874,-0.6079152855480136,0.4272033455065465
6003,2024 8 08,15:40:59.427,-0.352222,-0.523667,0.433033,-0.64358,-0.963738,-0.186458,-0.07982,0.278552,-0.264843,0.649418,0,0,-0.3518189310222973,-0.5236711872712347,0.4337073678168788,-0.643342290558452,-0.963942999709238,-0.1940274752433966,-0.0721737206323455,0.1777580488786208,-0.3033340182194631,0.4374249134158975,-0.322785,-0.646146,0.245208,-0.646666,-1.04217,-0.113329,0.042466,-0.391278,-0.549449,0.543481,0,0,-0.322933747541786,-0.6460799339087646,0.2441486947953424,-0.6470588314699994,-1.043682065574215,-0.1171568027905589,0.0409933217390852,-0.5457739167113029,-0.6049919712706129,0.4330172282312192
6004,2024 8 08,15:40:59.435,-0.352245,-0.52368,0.432986,-0.643589,-0.965936,-0.185018,-0.078858,0.297344,-0.218801,0.590413,0,0,-0.3518402344711824,-0.523671627907673,0.4336712994260349,-0.6433546260305294,-0.964042649723776,-0.1935770014812267,-0.0725079346007283,0.1837373464346897,-0.2991073673084899,0.4450743177451026,-0.322764,-0.646758,0.24297,-0.64691,-1.043446,-0.129583,0.022864,-0.459746,-0.463195,0.63376,0,0,-0.3229252601646967,-0.6461138372133264,0.2440897600555753,-0.6470513898964995,-1.043670262295504,-0.1177781126510309,0.0400868556521309,-0.5414725208757378,-0.5979021227070822,0.4430543668196582
6005,2024 8 08,15:40:59.444,-0.352262,-0.52369,0.432936,-0.643604,-0.964835,-0.185253,-0.079822,0.376504,-0.230729,0.488031,0,0,-0.3518613227476233,-0.5236725465122893,0.4336345344547331,-0.6433670947290029,-0.964082267237587,-0.1931608014071654,-0.0728736378706918,0.1933756791129552,-0.2956884489430654,0.4472221518578474,-0.322758,-0.646144,0.245292,-0.646651,-1.043817,-0.111954,0.041591,-0.479666,-0.4381,0.660027,0,0,-0.3229168971564619,-0.64611534535266,0.2441498720527965,-0.6470313704016745,-1.0436775991807288,-0.1174869070184794,0.0401620628695244,-0.5383821948319509,-0.589912016571728,0.4539029984786752
6006,2024 8 08,15:40:59.452,-0.352275,-0.523695,0.432892,-0.643623,-0.965353,-0.184293,-0.078005,0.338649,-0.203543,0.33672,0,0,-0.3518820066102421,-0.5236736691866749,0.4335974077319965,-0.6433798899925527,-0.9641458038757076,-0.1927174113368071,-0.0731302059771572,0.2006393451573075,-0.2910811764959122,0.4416970442649551,-0.322742,-0.646141,0.245349,-0.64664,-1.044265,-0.110175,0.041532,-0.52776,-0.430605,0.710016,0,0,-0.3229081522986388,-0.646116628085027,0.2442098284501567,-0.6470118018815907,-1.0437069692216925,-0.1171213116675554,0.0402305597260482,-0.5378510850903533,-0.5819466657431416,0.4667086485547415
6007,2024 8 08,15:40:59.460,-0.35228,-0.523701,0.432852,-0.643642,-0.96425,-0.229356,-0.087657,0.315784,-0.189582,0.237425,0,0,-0.35190190627973,-0.5236750357273412,0.4335601373453966,-0.6433929954929251,-0.9641510136819222,-0.1945493407699667,-0.0738565456782993,0.2063965778994421,-0.2860062176711166,0.4314834420517073,-0.322722,-0.646139,0.245416,-0.646627,-1.047404,-0.110298,0.040513,-0.500792,-0.470003,0.600244,0,0,-0.3228988446837068,-0.6461177466807757,0.2442701370276488,-0.6469925617875111,-1.0438918207606076,-0.1167801460841776,0.0402446817397458,-0.5359981308358357,-0.5763494824559845,0.4733854161270043
6008,2024 8 08,15:40:59.469,-0.352282,-0.523703,0.432837,-0.64365,-0.963681,-0.184518,-0.07553,0.308615,-0.185205,0.200714,0,0,-0.3519209109657435,-0.5236764339409742,0.4335239804781268,-0.6434058457182787,-0.9641275129978262,-0.1940477737314684,-0.0739402183943844,0.21150749900447,-0.2809661567875608,0.4199449699491219,-0.322712,-0.646132,0.245473,-0.646616,-1.044428,-0.110666,0.040523,-0.533586,-0.358608,0.442077,0,0,-0.3228895024495215,-0.6461184593467368,0.2443302801762664,-0.6469737336981355,-1.043918629722577,-0.1164744387799687,0.0402585976527585,-0.5358775242940439,-0.5654624083331853,0.4718199953206541
6009,2024 8 08,15:40:59.477,-0.352283,-0.523707,0.432818,-0.643659,-0.964911,-0.185686,-0.07559,0.235721,-0.148504,0.153642,0,0,-0.3519390154174563,-0.5236779622439255,0.4334886814542205,-0.6434185034323648,-0.9641666873479348,-0.1936296850448949,-0.0740227074746652,0.2127181740542464,-0.2743430489481828,0.4066298214516658,-0.322705,-0.646116,0.245528,-0.646615,-1.043473,-0.108172,0.045751,-0.421658,-0.241245,0.432159,0,0,-0.3228802773270454,-0.6461183363794,0.244390166167453,-0.6469557970132287,-1.0438963482364485,-0.1160593168409703,0.0405332177701205,-0.5301665480793417,-0.549251537916526,0.4698369455546213
6010,2024 8 08,15:40:59.485,-0.352284,-0.523709,0.432805,-0.643665,-0.965847,-0.186526,-0.075686,0.183275,-0.122156,0.122172,0,0,-0.3519562646465835,-0.5236795141317292,0.4334544973815094,-0.6434308282607466,-0.964250702980538,-0.1932745007926502,-0.0741058721009319,0.2112460153515341,-0.2667336965007736,0.3924069303790825,-0.322699,-0.646108,0.245562,-0.646614,-1.043199,-0.107402,0.047609,-0.358164,-0.191519,0.427262,0,0,-0.3228712134606931,-0.64611781956043,0.2444487578590804,-0.6469387071625673,-1.0438614808246258,-0.1156264509989218,0.0408870068816145,-0.5215664206753746,-0.5313649110206997,0.4677081982768903
6011,2024 8 08,15:40:59.494,-0.35229,-0.523705,0.432786,-0.643678,-0.963933,-0.186529,-0.078561,0.183109,-0.122072,0.181972,0,0,-0.3519729514142543,-0.5236807884251428,0.4334210725124339,-0.6434431868477093,-0.964234817831511,-0.1929372257530177,-0.0743286284958853,0.2098391645839574,-0.2595006116757349,0.3818851838601284,-0.322683,-0.646865,0.243078,-0.646803,-1.044442,-0.11142,0.048294,-0.314261,-0.251261,0.427246,0,0,-0.3228618027876584,-0.6461551785824086,0.2443802199661264,-0.6469319218044389,-1.0438905067833946,-0.1154161284489757,0.0412573565375338,-0.5112011496416058,-0.5173597154696647,0.4656850883630458
6012,2024 8 08,15:40:59.502,-0.352297,-0.52371,0.432756,-0.64369,-0.965314,-0.186529,-0.077198,0.183106,-0.12207,0.301046,0,0,-0.3519891538435416,-0.5236822490038856,0.4333878188868121,-0.6434555275053238,-0.9642887769399354,-0.1926168144653668,-0.074472097071091,0.2085025063547595,-0.2526290810919481,0.3778432246671219,-0.32267,-0.646094,0.245639,-0.646612,-1.044465,-0.110353,0.042025,-0.36447,-0.303369,0.427246,0,0,-0.3228522126482755,-0.6461521196532881,0.2444431589678201,-0.646915925714217,-1.0439192314442247,-0.1151629720265269,0.0412957387106571,-0.5038645921595255,-0.5066601796961815,0.4637631339448935
6013,2024 8 08,15:40:59.510,-0.352305,-0.523715,0.432723,-0.643703,-0.967219,-0.186994,-0.080407,0.241212,-0.12207,0.363084,0,0,-0.3520049461513646,-0.5236838865536912,0.4333545779424715,-0.6434679011300576,-0.9644352880929384,-0.1923356737420984,-0.0747688422175365,0.2101379810370215,-0.2461011270373507,0.3771052634337658,-0.322669,-0.646094,0.245646,-0.646611,-1.044465,-0.110353,0.042025,-0.350414,-0.320803,0.419389,0,0,-0.3228430520158618,-0.6461492136706236,0.244503301019429,-0.646900679428506,-1.0439465198720137,-0.1149224734252006,0.0413322017751242,-0.4961920625515492,-0.4973673207113723,0.4615444272476487
6014,2024 8 08,15:40:59.519,-0.352318,-0.52373,0.432682,-0.643712,-0.968225,-0.186558,-0.075521,0.301209,-0.17932,0.423267,0,0,-0.3520205988437963,-0.5236861922260067,0.4333209490453479,-0.6434801060735547,-0.9646247736882916,-0.1920467900549935,-0.0748064501066597,0.2146915319851705,-0.2427620706854832,0.3794133502620775,-0.322659,-0.646093,0.245684,-0.646602,-1.044589,-0.112388,0.04267,-0.250732,-0.389681,0.361768,0,0,-0.3228338494150686,-0.6461464029870925,0.2445623359684576,-0.6468857454570808,-1.0439786438784129,-0.1147957497539405,0.041399091686368,-0.4839190594239717,-0.4919830046758037,0.4565556058852663
6015,2024 8 08,15:40:59.527,-0.352318,-0.52373,0.432682,-0.643712,-0.968286,-0.186531,-0.075222,0.304876,-0.182819,0.426945,0,0,-0.3520354689016065,-0.5236883826147063,0.4332890015930805,-0.6434917007698769,-0.964807835003877,-0.1917710005522438,-0.0748272276013267,0.2192007553859119,-0.239764917151209,0.3817899327489736,-0.322643,-0.646089,0.24572,-0.646601,-1.045256,-0.11318,0.041508,-0.252268,-0.21399,0.332342,0,0,-0.3228243069443152,-0.6461435328377378,0.2446202191700347,-0.6468715081842267,-1.044042511684492,-0.1147149622662435,0.0414045371020496,-0.4723365064527731,-0.4780833544420134,0.450344925591003
6016,2024 8 08,15:40:59.535,-0.352333,-0.523741,0.432639,-0.643723,-0.965621,-0.18564,-0.080538,0.19393,-0.12747,0.482829,0,0,-0.3520503454565262,-0.523691013483971,0.4332565015134265,-0.6435032657313831,-0.9648484932536832,-0.1914644505246316,-0.0751127662212603,0.2179372176166163,-0.2341501712936485,0.386841886111525,-0.32263,-0.646084,0.245761,-0.646596,-1.044716,-0.108891,0.046035,-0.315511,-0.319628,0.459381,0,0,-0.3228145915970994,-0.646140556195851,0.2446772582115329,-0.6468577327750152,-1.0440761861002674,-0.1144237641529313,0.0416360602469471,-0.4644952311301344,-0.4701605867199127,0.4507967293114528
6017,2024 8 08,15:40:59.544,-0.352348,-0.523756,0.432591,-0.643736,-0.964072,-0.185123,-0.075302,0.293856,-0.12262,0.487726,0,0,-0.3520652281836999,-0.5236942628097724,0.4332232264377551,-0.6435149024448138,-0.9648096685909988,-0.1911473779984,-0.0751222279101973,0.2217331567357855,-0.2285736627289661,0.3918860918059487,-0.322619,-0.646085,0.245812,-0.646581,-1.04551,-0.089362,-0.063931,-0.423289,-0.463707,0.360866,0,0,-0.3228048120172445,-0.6461377783860585,0.2447339953009563,-0.6468438961362644,-1.044147876795254,-0.1131706759452847,0.0363577072345997,-0.4624349195736277,-0.469837907383917,0.4463001928458801
6018,2024 8 08,15:40:59.552,-0.352363,-0.523767,0.432547,-0.643748,-0.962619,-0.182908,-0.079967,0.303882,-0.176194,0.434157,0,0,-0.3520801167745149,-0.5236978996692837,0.4331894151158673,-0.643526557322573,-0.9647001351614488,-0.19073540909848,-0.0753644665146874,0.2258405988989962,-0.2259546795925178,0.3939996372156512,-0.322613,-0.646084,0.24586,-0.646567,-1.04372,-0.10908,0.038144,-0.480855,-0.431412,0.257478,0,0,-0.3227952214163823,-0.6461350894667555,0.2447902955359085,-0.6468300513294512,-1.0441264829554913,-0.1129661421480205,0.0364470218728698,-0.4633559235949463,-0.4679166120147212,0.4368590832035861
6019,2024 8 08,15:40:59.560,-0.352372,-0.523775,0.432511,-0.643761,-0.967574,-0.186498,-0.075801,0.251694,-0.128913,0.321483,0,0,-0.3520947109357891,-0.5237017546858195,0.4331554943600739,-0.6435382794564444,-0.9648438284033763,-0.190523538643556,-0.0753862931889531,0.2271332689540464,-0.2211025956128919,0.3903738053548686,-0.322613,-0.646084,0.24586,-0.646567,-1.04346,-0.109145,0.038325,-0.480133,-0.413354,0.245827,0,0,-0.3227861103455632,-0.6461325349934177,0.244843780759113,-0.6468168987629785,-1.0440931588077167,-0.1127750850406194,0.0365409207792263,-0.464194777415199,-0.4651884814139851,0.4273074790434067
6020,2024 8 08,15:40:59.569,-0.352382,-0.52378,0.432487,-0.643768,-0.967771,-0.185262,-0.07991,0.139992,-0.123016,0.30743,0,0,-0.3521090753889996,-0.5237056669515284,0.4331220696420702,-0.6435497654836221,-0.9649901869832076,-0.1902604617113782,-0.0756124785295054,0.222776205506344,-0.2161982658322473,0.3862266150871252,-0.322614,-0.646082,0.24591,-0.64655,-1.043235,-0.110551,0.040088,-0.434558,-0.327244,0.237262,0,0,-0.322777504828285,-0.6461300082437469,0.2448970917211574,-0.6468035538248296,-1.0440502508673308,-0.1126638807885885,0.036718274740265,-0.462712938544439,-0.4582912573432858,0.4178052050912363
6021,2024 8 08,15:40:59.577,-0.352395,-0.523783,0.432469,-0.64377,-0.962816,-0.18717,-0.080885,0.020968,-0.018425,0.305513,0,0,-0.3521233716195496,-0.523709533603952,0.4330894161599667,-0.6435607772094409,-0.9648814776340472,-0.1901059386258093,-0.0758761046030301,0.2126857952310268,-0.2063096025406349,0.3821909343327689,-0.322615,-0.64608,0.245953,-0.646535,-1.044337,-0.110328,0.042348,-0.428341,-0.388441,0.20525,0,0,-0.3227693795868708,-0.6461275078315595,0.2449498871350995,-0.646790126133588,-1.0440645883239643,-0.1125470867491591,0.0369997610032517,-0.4609943416172171,-0.4547987444761215,0.4071774448366745
6022,2024 8 08,15:40:59.585,-0.352397,-0.523783,0.432467,-0.64377,-0.962084,-0.187452,-0.081029,0.003376,-0.002966,0.30523,0,0,-0.3521370530385721,-0.5237132069237544,0.4330582953519683,-0.6435712383489688,-0.9647416037523447,-0.1899732416945188,-0.0761337493728786,0.2022203054694755,-0.1961424224136031,0.3783428876161304,-0.322608,-0.646088,0.246004,-0.646511,-1.044799,-0.109775,0.043877,-0.441271,-0.574625,0.282164,0,0,-0.3227613106075272,-0.6461255324399815,0.2450025927783445,-0.6467761698269086,-1.044101308907766,-0.1124084824117011,0.0373436229530891,-0.4600081745363562,-0.4607900572523155,0.4009267725948408
6023,2024 8 08,15:40:59.594,-0.352411,-0.524073,0.434129,-0.642406,-0.963181,-0.188709,-0.074987,0.051123,-0.101594,0.355727,0,0,-0.3521507503866435,-0.5237311965775667,0.4331118305843698,-0.6435129764315203,-0.9646635735647276,-0.1899100296097929,-0.0760764119042347,0.1946654401960017,-0.191415001292923,0.3772120932353239,-0.322603,-0.6461,0.246056,-0.646481,-1.044523,-0.108638,0.042886,-0.523908,-0.60421,0.264345,0,0,-0.3227533950771508,-0.6461242558179824,0.2450552631394273,-0.6467614113355632,-1.0441223934623776,-0.112219958291116,0.0376207418054347,-0.4632031658095383,-0.4679610543896997,0.3940976839650988
6024,2024 8 08,15:40:59.602,-0.352426,-0.523794,0.43242,-0.643777,-0.96177,-0.188125,-0.076756,0.109118,-0.168225,0.41419,0,0,-0.3521645128673113,-0.5237343367486884,0.4330772390551513,-0.6435261776099442,-0.9645188948864912,-0.1898207781293032,-0.0761103913090229,0.1903880681862017,-0.1902555012282768,0.3790609885735577,-0.322602,-0.646109,0.246104,-0.646454,-1.044476,-0.108445,0.043753,-0.494785,-0.60923,0.347615,0,0,-0.3227458253232932,-0.6461234930270832,0.2451076999824559,-0.6467460407687851,-1.0441400737892583,-0.1120312103765602,0.0379273547151629,-0.4647822575190613,-0.4750245016702147,0.3917735497668438
6025,2024 8 08,15:40:59.610,-0.352442,-0.523802,0.43239,-0.643782,-0.962304,-0.21569,-0.056717,0.119571,-0.130975,0.424727,0,0,-0.3521783872239457,-0.523737719911254,0.4330428771023937,-0.6435389687294469,-0.9644081501421664,-0.191114239222838,-0.0751407217435718,0.1868472147768916,-0.1872914761668629,0.3813442891448798,-0.322601,-0.646113,0.24612,-0.646446,-1.044361,-0.079368,0.001524,-0.496197,-0.616796,0.355963,0,0,-0.3227385840571286,-0.6461229683757289,0.2451583149833331,-0.6467310387303458,-1.0441511200997955,-0.1103980498577322,0.0361071869794048,-0.4663529946431082,-0.482113076586704,0.3899830222785017
6026,2024 8 08,15:40:59.619,-0.352455,-0.523812,0.432359,-0.643788,-0.966686,-0.183638,-0.075808,0.170205,-0.123878,0.426735,0,0,-0.3521922178627484,-0.5237414339156912,0.433008683247274,-0.6435514202929746,-0.9645220426350584,-0.1907404272616961,-0.0751740856563932,0.186015104038047,-0.1841208023585198,0.3836138246876358,-0.322597,-0.646123,0.246169,-0.646419,-1.043508,-0.109046,0.042308,-0.525377,-0.660303,0.328642,0,0,-0.3227315048542721,-0.6461229699569425,0.2452088492341664,-0.6467154367938285,-1.0441189640948056,-0.1103304473648456,0.0364172276304345,-0.4693041949109528,-0.4910225727573687,0.3869159711645766
6027,2024 8 08,15:40:59.627,-0.35248,-0.523813,0.432321,-0.643799,-0.964875,-0.182839,-0.077634,0.180359,-0.266577,0.427137,0,0,-0.352206606969611,-0.5237450122199065,0.4329742990849103,-0.6435637992783259,-0.9645396905033052,-0.1903453558986113,-0.0752970813735735,0.1857322988361446,-0.1882436122405938,0.3857899834532539,-0.322585,-0.646133,0.246226,-0.646393,-1.042496,-0.108518,0.044055,-0.467625,-0.662531,0.393262,0,0,-0.3227241796115585,-0.6461234714590953,0.2452597067724581,-0.646699314954137,-1.0440378158900654,-0.1102398249966033,0.0367991162489128,-0.4692202351654052,-0.4995979941195003,0.3872332726063477
6028,2024 8 08,15:40:59.635,-0.352485,-0.523813,0.432313,-0.643801,-0.964494,-0.182671,-0.078017,0.182494,-0.296587,0.427222,0,0,-0.3522205266211304,-0.5237484116089112,0.4329412341306647,-0.6435756593144095,-0.96453740597814,-0.1899616381036807,-0.0754330773048948,0.1855703838943374,-0.1936607816285641,0.3878615842805912,-0.322576,-0.646141,0.246285,-0.646367,-1.043063,-0.110654,0.043017,-0.585008,-0.621963,0.344026,0,0,-0.3227167706309806,-0.6461243478861405,0.2453109714338352,-0.6466826992064302,-1.043989075095562,-0.1102605337467731,0.0371100104364671,-0.4750096234071349,-0.5057162444135253,0.3850729089760303
6029,2024 8 08,15:40:59.644,-0.352505,-0.523824,0.432278,-0.643805,-0.96441,-0.184884,-0.080352,0.182964,-0.209423,0.521001,0,0,-0.3522347502900739,-0.5237521910284656,0.4329080724241315,-0.643587126348689,-0.964531035679233,-0.1897077561984967,-0.0756790234396501,0.1854400646996205,-0.1944488925471359,0.3945185550665616,-0.322567,-0.646143,0.246356,-0.646343,-1.042143,-0.111154,0.045444,-0.632338,-0.625722,0.454827,0,0,-0.3227092820994315,-0.6461252804918334,0.2453632228621434,-0.6466657142461086,-1.0438967713407838,-0.1103052070594345,0.0375267099146438,-0.4828760422367781,-0.511716532192849,0.3885606135272288
6030,2024 8 08,15:40:59.652,-0.352528,-0.523828,0.432231,-0.64382,-0.965132,-0.186874,-0.077181,0.275714,-0.328413,0.496169,0,0,-0.3522494127755701,-0.5237559814770423,0.4328742188029249,-0.6435987700312544,-0.9645610838952712,-0.1895660683885718,-0.0757541222676676,0.1899537614646395,-0.2011470979197791,0.3996010773132335,-0.322553,-0.646149,0.246416,-0.646321,-1.043535,-0.113512,0.040231,-0.52301,-0.706699,0.480216,0,0,-0.32270146799446,-0.6461264664672417,0.2454158617190362,-0.6466484785338033,-1.0438786827737447,-0.1104655467064627,0.0376619244189116,-0.4848827401249392,-0.5214656555832065,0.3931433828508673
6031,2024 8 08,15:40:59.660,-0.352549,-0.523834,0.43218,-0.643839,-0.964572,-0.18515,-0.080088,0.38936,-0.310986,0.490253,0,0,-0.3522643921367916,-0.5237598824031902,0.4328395078627786,-0.6436107815296916,-0.9645616297005076,-0.1893452649691432,-0.0759708161542842,0.1999240733914075,-0.2066390430237901,0.4041336734475718,-0.322548,-0.64615,0.246438,-0.646313,-1.043768,-0.113381,0.039336,-0.509343,-0.707423,0.486265,0,0,-0.3226937945947369,-0.6461276431438796,0.2454669686330844,-0.6466317046071131,-1.0438731486350574,-0.1106113193711396,0.037745628197966,-0.4861057531186922,-0.5307635228040462,0.397799463708324
6032,2024 8 08,15:40:59.669,-0.352573,-0.52384,0.432126,-0.643856,-0.966967,-0.184363,-0.079359,0.326959,-0.306679,0.534033,0,0,-0.352279822529952,-0.5237638882830307,0.4328038324696397,-0.643623042453207,-0.9646818982154822,-0.1890961517206861,-0.07614022534657,0.2062758197218371,-0.2116410408726006,0.4106286397751932,-0.322539,-0.646151,0.246498,-0.646294,-1.043591,-0.134733,0.020889,-0.590332,-0.584111,0.487759,0,0,-0.3226860548650001,-0.6461288109866855,0.2455185202014302,-0.6466148193767574,-1.0438590412033044,-0.1118174034025826,0.0369027967880677,-0.4913170654627576,-0.5334308966638438,0.4022974405229077
6033,2024 8 08,15:40:59.677,-0.352603,-0.523847,0.43207,-0.643872,-0.965075,-0.185592,-0.078099,0.310998,-0.305578,0.589952,0,0,-0.3522959814034544,-0.5237680438688791,0.4327671408461577,-0.6436354903305467,-0.964701553304708,-0.1889209441346518,-0.0762381640792415,0.2115119287357452,-0.2163378888289706,0.4195948077864336,-0.322531,-0.646149,0.246569,-0.646274,-1.045779,-0.125137,0.010179,-0.63158,-0.50785,0.506282,0,0,-0.3226783021217501,-0.6461298204373512,0.2455710441913586,-0.6465977784079194,-1.0439550391431391,-0.1124833832324535,0.0355666069486643,-0.4983302121896197,-0.5321518518306516,0.4074966684967623
6034,2024 8 08,15:40:59.685,-0.352611,-0.523849,0.432055,-0.643876,-0.964575,-0.217649,-0.055004,0.306781,-0.305287,0.604728,0,0,-0.3523117323332817,-0.5237720916754351,0.4327315338038498,-0.6436475158140194,-0.9646952256394726,-0.1903573469279192,-0.0751764558752794,0.2162753822989579,-0.2207853443875221,0.4288514673971119,-0.322516,-0.646145,0.246636,-0.646259,-1.044923,-0.10983,0.0433,-0.527781,-0.473376,0.613921,0,0,-0.3226701870156626,-0.6461305794154837,0.2456242919817907,-0.6465808394875234,-1.044003437185982,-0.1123507140708308,0.0359532766012311,-0.4998027515801386,-0.5292130592391191,0.4178178850719242
6035,2024 8 08,15:40:59.694,-0.352632,-0.523855,0.432015,-0.643886,-0.965488,-0.184607,-0.076276,0.261918,-0.305207,0.608756,0,0,-0.3523277457166176,-0.5237762370916634,0.4326957071136573,-0.6436594400233183,-0.964734864357499,-0.1900698295815232,-0.0752314330815154,0.21855751318401,-0.2250064271681459,0.4378466940272563,-0.322499,-0.646145,0.246703,-0.646242,-1.045058,-0.109875,0.040852,-0.493581,-0.59746,0.56174,0,0,-0.3226616276648795,-0.6461313004447095,0.2456782273827011,-0.6465638975131471,-1.0440561653266829,-0.1122269283672892,0.0361982127711695,-0.4994916640011316,-0.5326254062771631,0.4250139908183279
6036,2024 8 08,15:40:59.702,-0.352655,-0.523869,0.431969,-0.643893,-0.964361,-0.182164,-0.081045,0.292554,-0.175505,0.566659,0,0,-0.3523441084307867,-0.5237808752370802,0.4326593717579744,-0.6436711180221524,-0.964716171139624,-0.189674538102447,-0.0755221114274397,0.2222573375248095,-0.2225313558097386,0.4442873093258935,-0.322484,-0.646145,0.246762,-0.646227,-1.043601,-0.107794,0.04166,-0.446601,-0.520137,0.509715,0,0,-0.3226527462816355,-0.646131985422474,0.2457324160135661,-0.6465470526374897,-1.0440334070603488,-0.1120052819489248,0.0364713021326111,-0.496847130801075,-0.532000985963305,0.4292490412774115
6037,2024 8 08,15:40:59.710,-0.352675,-0.523884,0.431921,-0.643902,-0.966772,-0.184195,-0.081396,0.258644,-0.138078,0.597263,0,0,-0.3523606530092474,-0.5237860314752261,0.4326224531700756,-0.6436826621210447,-0.9648189625826428,-0.1894005611973247,-0.0758158058560677,0.224076670648569,-0.2183086880192517,0.4519360938595988,-0.322479,-0.646143,0.246786,-0.646223,-1.043504,-0.131247,0.008537,-0.456166,-0.468922,0.512043,0,0,-0.3226440589675537,-0.6461325361513501,0.2457850952128877,-0.6465308500056152,-1.0440069367073312,-0.1129673678514785,0.0350745870259805,-0.4948130742610213,-0.5288470366651398,0.4333887392135409
6038,2024 8 08,15:40:59.719,-0.352698,-0.523902,0.431873,-0.643907,-0.966133,-0.184797,-0.078455,0.248596,-0.126988,0.648616,0,0,-0.352377520358785,-0.5237918299014648,0.4325849805115718,-0.6436938790149924,-0.9648846644535106,-0.1891703831374584,-0.0759477655632643,0.2253026371161406,-0.2137426536182891,0.4617700891666188,-0.322473,-0.64613,0.24684,-0.646218,-1.045066,-0.108119,0.041029,-0.588118,-0.293778,0.605284,0,0,-0.322635506019176,-0.6461324093437826,0.2458378404522433,-0.6465152075053344,-1.0440598898719646,-0.1127249494589046,0.0353723076746815,-0.4994783205479702,-0.5170935848318827,0.4419835022528638
6039,2024 8 08,15:40:59.727,-0.352714,-0.52392,0.431826,-0.643916,-0.964935,-0.247516,0.003907,0.371031,-0.081788,0.538733,0,0,-0.3523943443408457,-0.5237982384063915,0.4325470314859932,-0.6437049850642428,-0.9648871812308352,-0.1920876639805855,-0.0719550272851011,0.2325890552603335,-0.2071449209373746,0.4656182347082879,-0.322464,-0.646122,0.2469,-0.646207,-1.042963,-0.135894,0.012697,-0.531008,-0.379593,0.542066,0,0,-0.3226269307182172,-0.6461318888765935,0.2458909484296311,-0.6464997971300677,-1.0440050453783662,-0.1138834019859593,0.0342385422909474,-0.5010548045205717,-0.5102185555902885,0.4469876271402206
