frame,date,time,quaternion_x,quaternion_y,quaternion_z,quaternion_w,accel_x,accel_y,accel_z,gyro_x,gyro_y,gyro_z,HS,TO
12388,2024 10 19,05:25:53.220,0.703772,-0.173833,-0.643057,-0.246911,-0.914579,0.150884,-0.115726,-4.211426,-1.281738,0.305176,0,0
12389,2024 10 19,05:25:53.229,0.703761,-0.174131,-0.642943,-0.247028,-0.991241,0.154302,-0.069826,-3.356934,-0.427246,-2.807617,0,0
12390,2024 10 19,05:25:53.237,0.703939,-0.174534,-0.642663,-0.246966,-0.968291,0.124027,-0.107425,-3.112793,-2.990723,-5.554199,0,0
12391,2024 10 19,05:25:53.245,0.704238,-0.17489,-0.642362,-0.246644,-0.929228,0.123051,-0.10596,-0.427246,-2.258301,-7.263184,0,0
12392,2024 10 19,05:25:53.254,0.704469,-0.175218,-0.6422,-0.246173,-0.91702,0.132328,-0.128422,0.976563,-0.732422,-7.385254,0,0
12393,2024 10 19,05:25:53.262,0.704612,-0.175571,-0.642115,-0.245734,-0.906766,0.135258,-0.137211,0.12207,0.854492,-6.896973,0,0
12394,2024 10 19,05:25:53.270,0.704612,-0.175571,-0.642115,-0.245734,-0.906766,0.135258,-0.137211,0.12207,0.854492,-6.896973,0,0
12395,2024 10 19,05:25:53.279,0.704597,-0.17598,-0.642162,-0.245361,-0.927763,0.119144,-0.118168,-0.732422,3.112793,-5.92041,0,0
12396,2024 10 19,05:25:53.287,0.704518,-0.176359,-0.64229,-0.244981,-0.935087,0.118656,-0.101077,0.0,3.540039,-5.493164,0,0
12397,2024 10 19,05:25:53.295,0.704415,-0.176668,-0.64248,-0.244557,-0.9429,0.122074,-0.097659,1.342773,4.211426,-5.126953,0,0
12398,2024 10 19,05:25:53.304,0.704332,-0.176893,-0.642689,-0.244083,-0.941435,0.125004,-0.106937,1.953125,3.601074,-5.004883,0,0
12399,2024 10 19,05:25:53.312,0.704263,-0.177081,-0.642884,-0.24363,-0.939482,0.121586,-0.102542,2.13623,3.78418,-4.699707,0,0
12400,2024 10 19,05:25:53.320,0.704169,-0.177233,-0.643113,-0.243187,-0.94583,0.123539,-0.101077,2.319336,3.845215,-4.089355,0,0
12401,2024 10 19,05:25:53.329,0.704169,-0.177233,-0.643113,-0.243187,-0.94583,0.123539,-0.101077,2.319336,3.845215,-4.089355,0,0
12402,2024 10 19,05:25:53.337,0.704086,-0.177356,-0.643319,-0.242792,-0.942412,0.121097,-0.104495,2.13623,3.479004,-3.601074,0,0
12403,2024 10 19,05:25:53.345,0.704015,-0.177452,-0.643514,-0.242413,-0.9429,0.126469,-0.103519,2.319336,3.051758,-3.417969,0,0
12404,2024 10 19,05:25:53.354,0.703937,-0.177563,-0.643715,-0.242022,-0.940458,0.130863,-0.105472,2.13623,3.479004,-3.723145,0,0
12405,2024 10 19,05:25:53.362,0.703837,-0.177714,-0.643941,-0.241601,-0.948271,0.12891,-0.097171,2.197266,4.02832,-4.211426,0,0
12406,2024 10 19,05:25:53.370,0.703735,-0.17789,-0.644164,-0.241173,-0.936064,0.124027,-0.10889,1.953125,3.90625,-4.333496,0,0
12407,2024 10 19,05:25:53.379,0.703735,-0.17789,-0.644164,-0.241173,-0.936064,0.124027,-0.10889,1.953125,3.90625,-4.333496,0,0
12408,2024 10 19,05:25:53.387,0.703617,-0.178098,-0.644399,-0.240736,-0.936552,0.124027,-0.104007,1.831055,4.394531,-4.699707,0,0
12409,2024 10 19,05:25:53.395,0.703491,-0.178336,-0.64464,-0.240283,-0.945341,0.122074,-0.090823,1.586914,4.455566,-4.943848,0,0
12410,2024 10 19,05:25:53.404,0.703392,-0.178579,-0.64485,-0.239828,-0.932646,0.118168,-0.10596,1.77002,3.967285,-5.004883,0,0
12411,2024 10 19,05:25:53.412,0.703281,-0.178797,-0.645083,-0.239365,-0.937529,0.115726,-0.095706,2.13623,4.455566,-4.821777,0,0
12412,2024 10 19,05:25:53.420,0.703166,-0.178994,-0.64533,-0.238887,-0.944365,0.112796,-0.104495,2.258301,4.333496,-4.760742,0,0
12413,2024 10 19,05:25:53.429,0.703166,-0.178994,-0.64533,-0.238887,-0.944365,0.112796,-0.104495,2.258301,4.333496,-4.760742,0,0
12414,2024 10 19,05:25:53.437,0.703108,-0.179147,-0.645528,-0.23841,-0.941923,0.115726,-0.099124,2.746582,3.356934,-4.699707,0,0
12415,2024 10 19,05:25:53.445,0.703081,-0.179241,-0.645706,-0.237936,-0.93704,0.106937,-0.090823,2.868652,2.685547,-4.211426,0,0
12416,2024 10 19,05:25:53.454,0.703108,-0.179278,-0.645835,-0.237476,-0.938017,0.109867,-0.078616,3.540039,1.586914,-3.90625,0,0
12417,2024 10 19,05:25:53.462,0.703171,-0.179239,-0.645946,-0.237019,-0.935575,0.11182,-0.100101,4.150391,1.159668,-3.479004,0,0
12418,2024 10 19,05:25:53.470,0.703263,-0.179142,-0.646031,-0.236588,-0.933134,0.107425,-0.101077,4.516602,0.671387,-2.929688,0,0
12419,2024 10 19,05:25:53.479,0.703263,-0.179142,-0.646031,-0.236588,-0.933134,0.107425,-0.101077,4.516602,0.671387,-2.929688,0,0
12420,2024 10 19,05:25:53.487,0.703361,-0.178978,-0.646127,-0.236158,-0.940458,0.104495,-0.087893,5.004883,0.488281,-2.502441,0,0
12421,2024 10 19,05:25:53.495,0.703507,-0.178729,-0.646202,-0.235705,-0.936064,0.113285,-0.099124,5.79834,-0.549316,-2.197266,0,0
12422,2024 10 19,05:25:53.504,0.703696,-0.178436,-0.646234,-0.235276,-0.940458,0.113285,-0.098636,6.04248,-1.037598,-1.89209,0,0
12423,2024 10 19,05:25:53.512,0.703901,-0.178103,-0.646256,-0.234853,-0.947295,0.11182,-0.094729,6.286621,-1.586914,-1.708984,0,0
12424,2024 10 19,05:25:53.520,0.70416,-0.177748,-0.646227,-0.234423,-0.935087,0.120121,-0.093265,6.347656,-2.380371,-1.89209,0,0
12425,2024 10 19,05:25:53.529,0.70416,-0.177748,-0.646227,-0.234423,-0.935087,0.120121,-0.093265,6.347656,-2.380371,-1.89209,0,0
12426,2024 10 19,05:25:53.537,0.704409,-0.177421,-0.646193,-0.234018,-0.940947,0.114261,-0.098148,6.04248,-2.01416,-1.89209,0,0
12427,2024 10 19,05:25:53.545,0.70467,-0.177086,-0.646155,-0.233591,-0.929228,0.11182,-0.097171,6.103516,-2.13623,-2.075195,0,0
12428,2024 10 19,05:25:53.554,0.704908,-0.176791,-0.646141,-0.233136,-0.939482,0.122562,-0.101566,6.04248,-1.586914,-2.441406,0,0
12429,2024 10 19,05:25:53.562,0.70514,-0.176555,-0.646115,-0.232683,-0.939482,0.127934,-0.097659,5.249023,-1.708984,-2.990723,0,0
12430,2024 10 19,05:25:53.570,0.705334,-0.176438,-0.646071,-0.232306,-0.947295,0.121097,-0.099124,3.662109,-1.159668,-3.234863,0,0
12431,2024 10 19,05:25:53.579,0.705334,-0.176438,-0.646071,-0.232306,-0.947295,0.121097,-0.099124,3.662109,-1.159668,-3.234863,0,0
12432,2024 10 19,05:25:53.587,0.705545,-0.176385,-0.645976,-0.231971,-0.940458,0.115238,-0.099612,2.807617,-2.075195,-3.417969,0,0
12433,2024 10 19,05:25:53.595,0.705778,-0.176356,-0.645842,-0.231654,-0.941923,0.11182,-0.094729,2.685547,-2.13623,-3.601074,0,0
12434,2024 10 19,05:25:53.604,0.706008,-0.176332,-0.645714,-0.231329,-0.950713,0.11182,-0.097659,2.563477,-2.197266,-3.601074,0,0
12435,2024 10 19,05:25:53.612,0.706278,-0.176305,-0.645534,-0.231028,-0.946318,0.10889,-0.099612,2.380371,-2.929688,-3.601074,0,0
12436,2024 10 19,05:25:53.620,0.706561,-0.17628,-0.645339,-0.230725,-0.939482,0.110843,-0.105472,2.319336,-3.234863,-3.723145,0,0
12437,2024 10 19,05:25:53.629,0.706561,-0.17628,-0.645339,-0.230725,-0.939482,0.110843,-0.105472,2.319336,-3.234863,-3.723145,0,0
12438,2024 10 19,05:25:53.637,0.706861,-0.176241,-0.645127,-0.23043,-0.936552,0.111332,-0.105472,2.319336,-3.356934,-3.601074,0,0
12439,2024 10 19,05:25:53.645,0.707146,-0.176216,-0.644931,-0.230122,-0.934599,0.10889,-0.10303,2.319336,-3.112793,-3.78418,0,0
12440,2024 10 19,05:25:53.654,0.707429,-0.176203,-0.644729,-0.229827,-0.935087,0.108402,-0.104007,2.380371,-2.929688,-3.78418,0,0
12441,2024 10 19,05:25:53.662,0.70769,-0.176187,-0.644559,-0.229515,-0.938505,0.113285,-0.101077,2.563477,-2.685547,-3.723145,0,0
12442,2024 10 19,05:25:53.670,0.70791,-0.17623,-0.644412,-0.229214,-0.953154,0.113285,-0.094729,1.586914,-1.831055,-4.089355,0,0
12443,2024 10 19,05:25:53.679,0.70791,-0.17623,-0.644412,-0.229214,-0.953154,0.113285,-0.094729,1.586914,-1.831055,-4.089355,0,0
12444,2024 10 19,05:25:53.687,0.708117,-0.17636,-0.644264,-0.228892,-0.954131,0.113773,-0.104984,1.159668,-1.77002,-5.065918,0,0
12445,2024 10 19,05:25:53.695,0.708337,-0.176597,-0.644068,-0.22858,-0.951201,0.131352,-0.093265,-0.061035,-1.525879,-5.92041,0,0
12446,2024 10 19,05:25:53.704,0.708449,-0.177125,-0.64389,-0.228326,-0.970244,0.123539,-0.063478,-3.356934,-0.366211,-7.385254,0,0
12447,2024 10 19,05:25:53.712,0.70854,-0.178018,-0.643616,-0.22812,-0.975616,0.135258,-0.090823,-7.751465,-0.0,-10.375977,0,0
12448,2024 10 19,05:25:53.720,0.708502,-0.1794,-0.643376,-0.227832,-1.006867,0.160649,-0.065432,-10.070801,3.967285,-14.404297,0,0
12449,2024 10 19,05:25:53.729,0.708341,-0.18128,-0.643268,-0.22715,-0.964385,0.115726,-0.16895,-11.413574,6.713867,-21.850586,0,0
12450,2024 10 19,05:25:53.737,0.708341,-0.18128,-0.643268,-0.22715,-0.964385,0.115726,-0.16895,-11.413574,6.713867,-21.850586,0,0
12451,2024 10 19,05:25:53.745,0.707942,-0.183584,-0.6436,-0.225596,-0.984893,0.162114,-0.181646,-6.896973,19.287109,-30.639648,0,0
12452,2024 10 19,05:25:53.754,0.707178,-0.186453,-0.644505,-0.223042,-0.977081,0.116214,-0.142094,-2.258301,27.46582,-41.19873,0,0
12453,2024 10 19,05:25:53.762,0.706204,-0.18964,-0.645838,-0.219558,-1.07181,0.136723,-0.125492,2.807617,37.04834,-48.950195,0,0
12454,2024 10 19,05:25:53.770,0.705164,-0.193126,-0.647435,-0.215114,-1.094272,0.099124,-0.13477,6.530762,37.780762,-58.654785,0,0
12455,2024 10 19,05:25:53.779,0.704308,-0.196868,-0.648997,-0.209752,-1.103061,0.094241,0.013672,12.695313,43.151855,-68.481445,0,0
12456,2024 10 19,05:25:53.787,0.704308,-0.196868,-0.648997,-0.209752,-1.103061,0.094241,0.013672,12.695313,43.151855,-68.481445,0,0
12457,2024 10 19,05:25:53.795,0.703175,-0.200819,-0.651036,-0.203394,-1.143101,0.034181,0.047853,20.935059,48.828125,-75.378418,0,0
12458,2024 10 19,05:25:53.804,0.702085,-0.204505,-0.653404,-0.19575,-1.044465,-0.056642,0.236824,32.348633,53.833008,-82.885742,0,0
12459,2024 10 19,05:25:53.812,0.70062,-0.207592,-0.656678,-0.186577,-1.014679,-0.10889,0.393567,53.100586,67.749023,-86.303711,0,0
12460,2024 10 19,05:25:53.820,0.698795,-0.20949,-0.66097,-0.175835,-0.96292,-0.155278,0.518082,77.270508,77.209473,-85.81543,0,0
12461,2024 10 19,05:25:53.829,0.696656,-0.209643,-0.66638,-0.163275,-0.991729,-0.10303,0.567888,107.48291,91.491699,-82.885742,0,0
12462,2024 10 19,05:25:53.837,0.696656,-0.209643,-0.66638,-0.163275,-0.991729,-0.10303,0.567888,107.48291,91.491699,-82.885742,0,0
12463,2024 10 19,05:25:53.845,0.694266,-0.207861,-0.672749,-0.148983,-1.038606,-0.10596,0.652852,137.390137,97.473145,-79.650879,0,0
12464,2024 10 19,05:25:53.854,0.691891,-0.204181,-0.679607,-0.133158,-1.116733,-0.063967,0.563005,163.330078,101.013184,-76.416016,0,0
12465,2024 10 19,05:25:53.862,0.690306,-0.198639,-0.685918,-0.116347,-1.054231,-0.038575,0.614765,186.157227,86.120605,-71.899414,0,0
12466,2024 10 19,05:25:53.870,0.689411,-0.19157,-0.691516,-0.09909,-0.998566,-0.015137,0.596698,201.477051,76.23291,-66.040039,0,0
12467,2024 10 19,05:25:53.879,0.689009,-0.182639,-0.696606,-0.081552,-1.129917,0.34962,0.279305,219.970703,64.208984,-53.283691,0,0
12468,2024 10 19,05:25:53.887,0.689009,-0.182639,-0.696606,-0.081552,-1.129917,0.34962,0.279305,219.970703,64.208984,-53.283691,0,0
12469,2024 10 19,05:25:53.895,0.691228,-0.171001,-0.699005,-0.065982,-1.23246,0.382336,0.110355,224.182129,4.699707,-21.118164,0,0
12470,2024 10 19,05:25:53.904,0.696546,-0.156724,-0.698194,-0.052795,-0.847194,0.498062,0.144536,232.971191,-43.029785,7.202148,0,0
12471,2024 10 19,05:25:53.912,0.702268,-0.140928,-0.696656,-0.040362,-0.558123,0.359386,0.427747,235.900879,-43.029785,20.751953,0,0
12472,2024 10 19,05:25:53.920,0.706406,-0.124894,-0.696149,-0.027728,-0.651387,0.380871,0.240242,235.778809,-22.644043,20.507813,0,0
12473,2024 10 19,05:25:53.929,0.709901,-0.109211,-0.695622,-0.014964,-0.668966,0.492691,0.282723,231.933594,-19.226074,16.479492,0,0
12474,2024 10 19,05:25:53.937,0.709901,-0.109211,-0.695622,-0.014964,-0.668966,0.492691,0.282723,231.933594,-19.226074,16.479492,0,0
12475,2024 10 19,05:25:53.945,0.712648,-0.094077,-0.695179,-0.002894,-0.702658,0.557634,0.181646,219.360352,-13.061523,19.287109,0,0
12476,2024 10 19,05:25:53.954,0.714948,-0.079569,-0.69459,0.00788,-0.689474,0.54738,0.168462,203.00293,-13.061523,24.841309,0,0
12477,2024 10 19,05:25:53.962,0.716684,-0.065725,-0.694077,0.017374,-0.599139,0.503433,0.167486,186.584473,-6.896973,30.090332,0,0
12478,2024 10 19,05:25:53.970,0.717363,-0.052566,-0.694236,0.025756,-0.574236,0.477065,0.135258,171.325684,8.178711,33.996582,0,0
12479,2024 10 19,05:25:53.979,0.716787,-0.040117,-0.69535,0.033097,-0.65334,0.477554,0.067873,156.25,25.146484,37.109375,0,0
12480,2024 10 19,05:25:53.987,0.716787,-0.040117,-0.69535,0.033097,-0.65334,0.477554,0.067873,156.25,25.146484,37.109375,0,0
12481,2024 10 19,05:25:53.995,0.715373,-0.028312,-0.697064,0.039258,-0.723167,0.465835,0.000488,140.930176,34.057617,42.175293,0,0
12482,2024 10 19,05:25:54.004,0.713558,-0.017042,-0.698997,0.044132,-0.802759,0.420423,-0.034669,126.098633,37.841797,48.64502,0,0
12483,2024 10 19,05:25:54.012,0.711647,-0.006243,-0.700871,0.047946,-0.853053,0.341807,-0.067385,114.868164,36.132813,53.161621,0,0
12484,2024 10 19,05:25:54.020,0.709844,0.004227,-0.702487,0.051135,-0.839869,0.262215,-0.052736,108.520508,33.813477,55.847168,0,0
12485,2024 10 19,05:25:54.029,0.707858,0.014729,-0.704135,0.053989,-0.861843,0.209967,-0.052736,107.299805,36.376953,59.448242,0,0
12486,2024 10 19,05:25:54.037,0.707858,0.014729,-0.704135,0.053989,-0.861843,0.209967,-0.052736,107.299805,36.376953,59.448242,0,0
12487,2024 10 19,05:25:54.045,0.705736,0.025526,-0.705745,0.056652,-0.89407,0.166997,-0.040529,109.008789,36.743164,63.720703,0,0
12488,2024 10 19,05:25:54.054,0.703523,0.036729,-0.707242,0.059282,-0.981964,0.132817,-0.063967,112.304688,36.315918,67.260742,0,0
12489,2024 10 19,05:25:54.062,0.701634,0.048317,-0.70818,0.062103,-0.952666,0.078616,-0.038575,117.980957,27.770996,69.213867,0,0
12490,2024 10 19,05:25:54.070,0.699755,0.060433,-0.708817,0.065331,-0.927763,0.048341,-0.043947,126.403809,28.137207,70.617676,0,0
12491,2024 10 19,05:25:54.079,0.697704,0.073129,-0.709286,0.069106,-0.942412,0.019044,-0.054201,136.047363,27.160645,70.617676,0,0
12492,2024 10 19,05:25:54.087,0.697704,0.073129,-0.709286,0.069106,-0.942412,0.019044,-0.054201,136.047363,27.160645,70.617676,0,0
12493,2024 10 19,05:25:54.095,0.695496,0.086339,-0.709514,0.07362,-0.952178,-0.000488,-0.076662,146.606445,27.038574,68.847656,0,0
12494,2024 10 19,05:25:54.104,0.693078,0.100007,-0.70951,0.078982,-0.96878,-0.014649,-0.097659,157.531738,26.062012,65.795898,0,0
12495,2024 10 19,05:25:54.112,0.690519,0.114077,-0.709164,0.085188,-1.021027,-0.052248,-0.113773,168.09082,23.620605,62.744141,0,0
12496,2024 10 19,05:25:54.120,0.687996,0.128451,-0.70826,0.092358,-1.030305,-0.11182,-0.118168,178.833008,17.089844,58.166504,0,0
12497,2024 10 19,05:25:54.129,0.685526,0.142903,-0.706753,0.100658,-0.991729,-0.155766,-0.120609,189.025879,10.925293,50.354004,0,0
12498,2024 10 19,05:25:54.137,0.682816,0.157236,-0.704934,0.110033,-1.000031,-0.131352,-0.145024,196.289063,9.338379,41.19873,0,0
12499,2024 10 19,05:25:54.145,0.682816,0.157236,-0.704934,0.110033,-1.000031,-0.131352,-0.145024,196.289063,9.338379,41.19873,0,0
12500,2024 10 19,05:25:54.154,0.678611,0.171883,-0.7042,0.118511,-3.372173,0.349132,-2.667562,207.458496,36.193848,54.626465,0,0
12501,2024 10 19,05:25:54.162,0.693669,0.179892,-0.684443,0.134163,-0.069826,-1.795465,0.73928,145.874023,-372.192383,7.141113,0,0
12502,2024 10 19,05:25:54.170,0.697371,0.191698,-0.674244,0.149404,-1.373577,-0.153813,-1.860408,232.36084,-34.973145,1.037598,0,0
12503,2024 10 19,05:25:54.179,0.705041,0.201514,-0.659485,0.165495,-0.13184,0.064943,0.187994,214.538574,-244.628906,-5.67627,0,0
12504,2024 10 19,05:25:54.187,0.707169,0.2117,-0.650915,0.177212,-0.991241,0.356945,-1.617237,165.893555,-33.813477,9.399414,0,0
12505,2024 10 19,05:25:54.195,0.707169,0.2117,-0.650915,0.177212,-0.991241,0.356945,-1.617237,165.893555,-33.813477,9.399414,0,0
12506,2024 10 19,05:25:54.204,0.711573,0.218487,-0.641777,0.184527,-0.781274,1.079134,-0.858913,99.243164,-129.211426,22.644043,0,0
12507,2024 10 19,05:25:54.212,0.716217,0.221943,-0.634617,0.187178,-0.5215,0.838893,-1.238807,27.160645,-75.927734,24.475098,0,0
12508,2024 10 19,05:25:54.220,0.720088,0.221483,-0.630468,0.186893,-0.370617,0.459975,0.044435,14.770508,-34.362793,13.000488,0,0
12509,2024 10 19,05:25:54.229,0.718904,0.22207,-0.631925,0.185832,-0.944365,0.052736,-0.685568,-12.573242,26.611328,1.831055,0,0
12510,2024 10 19,05:25:54.237,0.71825,0.221853,-0.63283,0.185538,-1.093295,0.240242,0.393567,-11.657715,16.540527,-3.90625,0,0
12511,2024 10 19,05:25:54.245,0.71825,0.221853,-0.63283,0.185538,-1.093295,0.240242,0.393567,-11.657715,16.540527,-3.90625,0,0
12512,2024 10 19,05:25:54.254,0.717705,0.22083,-0.634249,0.184014,-1.197791,0.093753,-0.058596,-13.73291,10.192871,-0.488281,0,0
12513,2024 10 19,05:25:54.262,0.718261,0.22008,-0.633935,0.183827,-1.058626,0.076174,0.176763,-9.155273,-10.864258,-2.01416,0,0
12514,2024 10 19,05:25:54.270,0.71888,0.219602,-0.633305,0.184152,-0.980987,0.092776,-0.132817,-0.854492,-15.258789,-3.234863,0,0
12515,2024 10 19,05:25:54.279,0.71981,0.219398,-0.632097,0.184911,-0.834986,0.140629,-0.129887,6.103516,-16.967773,-2.502441,0,0
12516,2024 10 19,05:25:54.287,0.720169,0.219594,-0.631443,0.185515,-0.893582,0.158208,-0.166021,6.713867,-7.263184,-1.403809,0,0
12517,2024 10 19,05:25:54.295,0.720169,0.219594,-0.631443,0.185515,-0.893582,0.158208,-0.166021,6.713867,-7.263184,-1.403809,0,0
12518,2024 10 19,05:25:54.304,0.720382,0.219739,-0.631018,0.185961,-0.89407,0.167486,-0.142094,3.356934,-4.577637,-1.586914,0,0
12519,2024 10 19,05:25:54.312,0.72037,0.219766,-0.630965,0.186154,-0.893582,0.172857,-0.144536,1.708984,0.976563,-1.831055,0,0
12520,2024 10 19,05:25:54.320,0.720057,0.219771,-0.631324,0.186139,-0.913602,0.138676,-0.13477,-0.732422,7.141113,-2.075195,0,0
12521,2024 10 19,05:25:54.329,0.719524,0.219841,-0.631879,0.186237,-0.958525,0.135746,-0.045412,2.441406,8.728027,-3.417969,0,0
12522,2024 10 19,05:25:54.337,0.718883,0.220053,-0.63242,0.186624,-1.000519,0.134281,-0.053224,5.737305,7.568359,-5.126953,0,0
12523,2024 10 19,05:25:54.345,0.718883,0.220053,-0.63242,0.186624,-1.000519,0.134281,-0.053224,5.737305,7.568359,-5.126953,0,0
12524,2024 10 19,05:25:54.354,0.71838,0.220279,-0.632698,0.187351,-0.967315,0.151372,-0.061037,8.117676,3.417969,-6.713867,0,0
12525,2024 10 19,05:25:54.362,0.717967,0.220431,-0.632878,0.188147,-0.924345,0.15479,-0.125004,6.958008,2.624512,-7.263184,0,0
12526,2024 10 19,05:25:54.370,0.717543,0.220456,-0.633151,0.188814,-0.925321,0.155766,-0.11182,4.821777,4.516602,-7.263184,0,0
12527,2024 10 19,05:25:54.379,0.717061,0.220376,-0.633572,0.189325,-0.948759,0.147465,-0.098148,2.624512,5.737305,-7.263184,0,0
12528,2024 10 19,05:25:54.387,0.716616,0.220209,-0.634004,0.189759,-0.96292,0.133305,-0.069338,1.831055,5.249023,-7.141113,0,0
12529,2024 10 19,05:25:54.395,0.716616,0.220209,-0.634004,0.189759,-0.96292,0.133305,-0.069338,1.831055,5.249023,-7.141113,0,0
12530,2024 10 19,05:25:54.404,0.716255,0.220043,-0.634334,0.190212,-0.95999,0.128422,-0.079592,2.197266,3.173828,-6.835938,0,0
12531,2024 10 19,05:25:54.412,0.715995,0.219916,-0.634514,0.190736,-0.963408,0.136235,-0.081545,2.929688,1.220703,-6.469727,0,0
12532,2024 10 19,05:25:54.420,0.715872,0.219733,-0.634555,0.191273,-0.955107,0.141606,-0.085452,2.380371,-0.915527,-6.469727,0,0
12533,2024 10 19,05:25:54.429,0.71583,0.219471,-0.634534,0.191797,-0.95706,0.148442,-0.086917,1.342773,-2.197266,-6.713867,0,0
12534,2024 10 19,05:25:54.437,0.715859,0.219071,-0.634495,0.192278,-0.948759,0.15186,-0.094241,0.0,-2.563477,-7.263184,0,0
12535,2024 10 19,05:25:54.445,0.715859,0.219071,-0.634495,0.192278,-0.948759,0.15186,-0.094241,0.0,-2.563477,-7.263184,0,0
12536,2024 10 19,05:25:54.454,0.715895,0.218535,-0.634511,0.192701,-0.93997,0.145024,-0.091311,-1.953125,-2.197266,-7.93457,0,0
12537,2024 10 19,05:25:54.462,0.71589,0.217901,-0.634625,0.193057,-0.952178,0.142094,-0.084964,-2.990723,-0.915527,-8.483887,0,0
12538,2024 10 19,05:25:54.470,0.715887,0.21718,-0.634778,0.19338,-0.932646,0.136723,-0.118168,-4.333496,-0.915527,-8.728027,0,0
12539,2024 10 19,05:25:54.479,0.715813,0.216425,-0.635027,0.193681,-0.934111,0.133305,-0.101077,-4.211426,0.915527,-9.155273,0,0
12540,2024 10 19,05:25:54.487,0.715687,0.215683,-0.635341,0.193946,-0.934111,0.117191,-0.107913,-4.821777,1.342773,-8.850098,0,0
12541,2024 10 19,05:25:54.495,0.715541,0.214985,-0.635651,0.194246,-0.934111,0.117191,-0.107913,-4.821777,1.342773,-8.850098,0,0
12542,2024 10 19,05:25:54.504,0.715541,0.214985,-0.635651,0.194246,-0.937529,0.121097,-0.08887,-3.78418,1.464844,-8.850098,0,0
12543,2024 10 19,05:25:54.512,0.715397,0.214316,-0.635942,0.194562,-0.939482,0.114261,-0.100589,-3.356934,1.037598,-8.728027,0,0
12544,2024 10 19,05:25:54.520,0.715296,0.213726,-0.636138,0.194941,-0.929716,0.112308,-0.084475,-2.01416,-0.0,-8.300781,0,0
12545,2024 10 19,05:25:54.529,0.715199,0.21318,-0.636305,0.195347,-0.927274,0.098148,-0.092776,-1.281738,-0.305176,-8.178711,0,0
12546,2024 10 19,05:25:54.537,0.715099,0.212772,-0.636407,0.195825,-0.937529,0.113773,-0.099612,0.671387,-0.305176,-7.507324,0,0
12547,2024 10 19,05:25:54.545,0.715056,0.21241,-0.636427,0.196311,-0.928251,0.107425,-0.100589,0.793457,-1.586914,-6.958008,0,0
12548,2024 10 19,05:25:54.554,0.715056,0.21241,-0.636427,0.196311,-0.928251,0.107425,-0.100589,0.793457,-1.586914,-6.958008,0,0
12549,2024 10 19,05:25:54.562,0.714981,0.212125,-0.636447,0.196826,-0.929716,0.113285,-0.106449,1.342773,-0.915527,-6.713867,0,0
12550,2024 10 19,05:25:54.570,0.714888,0.211867,-0.636484,0.197321,-0.938017,0.113285,-0.086428,1.708984,-0.671387,-6.591797,0,0
12551,2024 10 19,05:25:54.579,0.714804,0.21163,-0.636509,0.197798,-0.940947,0.103519,-0.090823,1.647949,-1.037598,-6.103516,0,0
12552,2024 10 19,05:25:54.587,0.714733,0.211442,-0.636491,0.198311,-0.941435,0.109867,-0.092288,2.258301,-1.342773,-5.79834,0,0
12553,2024 10 19,05:25:54.595,0.714688,0.21128,-0.636431,0.198841,-0.943388,0.112796,-0.099124,2.746582,-1.89209,-5.79834,0,0
12554,2024 10 19,05:25:54.604,0.714688,0.21128,-0.636431,0.198841,-0.943388,0.112796,-0.099124,2.746582,-1.89209,-5.79834,0,0
12555,2024 10 19,05:25:54.612,0.714642,0.211111,-0.636367,0.199389,-0.943388,0.116214,-0.104495,2.807617,-1.77002,-6.04248,0,0
12556,2024 10 19,05:25:54.620,0.714558,0.210934,-0.636346,0.199944,-0.943876,0.117679,-0.103519,2.502441,-1.037598,-6.469727,0,0
12557,2024 10 19,05:25:54.629,0.714432,0.210687,-0.636395,0.200498,-0.937529,0.122562,-0.104495,1.831055,-0.183105,-7.385254,0,0
12558,2024 10 19,05:25:54.637,0.714216,0.210361,-0.636572,0.201046,-0.936552,0.12598,-0.104495,1.159668,1.525879,-8.483887,0,0
12559,2024 10 19,05:25:54.645,0.713861,0.209957,-0.636937,0.201574,-0.928739,0.11475,-0.110843,0.244141,3.967285,-9.58252,0,0
12560,2024 10 19,05:25:54.654,0.713861,0.209957,-0.636937,0.201574,-0.928739,0.11475,-0.110843,0.244141,3.967285,-9.58252,0,0
12561,2024 10 19,05:25:54.662,0.713398,0.209483,-0.637462,0.202044,-0.937529,0.114261,-0.11475,-0.854492,6.286621,-10.192871,0,0
12562,2024 10 19,05:25:54.670,0.712772,0.208956,-0.638185,0.202517,-0.957549,0.119144,-0.112308,-1.586914,8.850098,-11.59668,0,0
12563,2024 10 19,05:25:54.679,0.711998,0.208327,-0.639082,0.203059,-0.979034,0.127445,-0.094729,-1.159668,11.169434,-14.099121,0,0
12564,2024 10 19,05:25:54.687,0.711035,0.207556,-0.640176,0.203775,-0.999054,0.139164,-0.112308,-1.586914,12.878418,-17.76123,0,0
12565,2024 10 19,05:25:54.695,0.709796,0.206517,-0.641573,0.204754,-1.024934,0.133793,-0.086917,-1.77002,16.967773,-24.108887,0,0
12566,2024 10 19,05:25:54.704,0.709796,0.206517,-0.641573,0.204754,-1.024934,0.133793,-0.086917,-1.77002,16.967773,-24.108887,0,0
12567,2024 10 19,05:25:54.712,0.708298,0.205163,-0.643208,0.20617,-1.019562,0.136723,-0.086428,-0.732422,18.249512,-31.311035,0,0
12568,2024 10 19,05:25:54.720,0.706457,0.203474,-0.645146,0.208093,-1.06888,0.162114,-0.096194,0.366211,21.972656,-39.794922,0,0
12569,2024 10 19,05:25:54.729,0.704191,0.201315,-0.647486,0.210592,-1.155797,0.173833,-0.084964,0.0,25.20752,-50.537109,0,0
12570,2024 10 19,05:25:54.737,0.701654,0.198335,-0.650109,0.213784,-1.18656,0.181646,-0.077151,-1.708984,25.390625,-64.51416,0,0
12571,2024 10 19,05:25:54.745,0.698715,0.194473,-0.653145,0.21767,-1.281777,0.206549,-0.06592,-2.807617,29.296875,-78.613281,0,0
12572,2024 10 19,05:25:54.754,0.698715,0.194473,-0.653145,0.21767,-1.281777,0.206549,-0.06592,-2.807617,29.296875,-78.613281,0,0
12573,2024 10 19,05:25:54.762,0.695328,0.189653,-0.656613,0.222284,-1.402387,0.239753,-0.110355,-5.92041,30.883789,-95.397949,0,0
12574,2024 10 19,05:25:54.770,0.691601,0.183505,-0.660302,0.228071,-1.396039,0.247078,-0.0918,-7.8125,29.11377,-116.455078,0,0
12575,2024 10 19,05:25:54.779,0.687405,0.176019,-0.664337,0.234837,-1.313517,0.166021,-0.100589,-10.192871,31.066895,-136.169434,0,0
12576,2024 10 19,05:25:54.787,0.682271,0.167957,-0.668846,0.242778,-1.123569,0.087893,-0.121097,-3.967285,39.428711,-151.428223,0,0
12577,2024 10 19,05:25:54.795,0.675988,0.160035,-0.674008,0.25128,-0.898465,-0.00586,-0.004883,2.807617,55.053711,-155.944824,0,0
12578,2024 10 19,05:25:54.804,0.675988,0.160035,-0.674008,0.25128,-0.898465,-0.00586,-0.004883,2.807617,55.053711,-155.944824,0,0
12579,2024 10 19,05:25:54.812,0.668067,0.153496,-0.680119,0.25993,-0.629414,-0.162603,0.310556,19.165039,82.336426,-149.658203,0,0
12580,2024 10 19,05:25:54.820,0.657011,0.150264,-0.688022,0.269042,-0.620136,-0.26661,0.462905,50.720215,131.774902,-137.756348,0,0
12581,2024 10 19,05:25:54.829,0.642947,0.150988,-0.697211,0.278781,-0.626484,-0.297372,0.592792,86.791992,171.325684,-122.314453,0,0
12582,2024 10 19,05:25:54.837,0.626594,0.154788,-0.707102,0.288839,-0.838893,-0.361827,0.764672,109.680176,203.918457,-109.008789,0,0
12583,2024 10 19,05:25:54.845,0.608445,0.161165,-0.717079,0.299364,-1.330607,0.188482,0.155766,141.845703,217.285156,-97.717285,0,0
12584,2024 10 19,05:25:54.854,0.608445,0.161165,-0.717079,0.299364,-1.330607,0.188482,0.155766,141.845703,217.285156,-97.717285,0,0
12585,2024 10 19,05:25:54.862,0.595551,0.169418,-0.721387,0.31019,-1.217322,1.118686,-0.117191,153.442383,109.741211,-47.180176,0,0
12586,2024 10 19,05:25:54.870,0.594296,0.177919,-0.717496,0.316792,-1.297891,0.534684,-0.058596,119.628906,-28.625488,44.433594,0,0
12587,2024 10 19,05:25:54.879,0.599778,0.187798,-0.707389,0.323417,-0.253914,0.499527,0.204596,153.259277,-105.59082,76.599121,0,0
12588,2024 10 19,05:25:54.887,0.602955,0.200399,-0.697495,0.331342,-0.057619,0.535661,0.622578,193.481445,-42.663574,77.941895,0,0
12589,2024 10 19,05:25:54.895,0.602579,0.216374,-0.689352,0.338931,-0.473647,0.767602,0.137211,207.092285,-13.000488,93.75,0,0
12590,2024 10 19,05:25:54.904,0.60383,0.233071,-0.67918,0.346094,-0.546892,0.841334,0.161626,206.970215,-38.879395,112.548828,0,0
12591,2024 10 19,05:25:54.912,0.60383,0.233071,-0.67918,0.346094,-0.546892,0.841334,0.161626,206.970215,-38.879395,112.548828,0,0
12592,2024 10 19,05:25:54.920,0.60603,0.249914,-0.668024,0.352157,-0.475112,0.688009,0.165532,200.561523,-46.020508,125.427246,0,0
12593,2024 10 19,05:25:54.929,0.608004,0.266812,-0.656762,0.357501,-0.383312,0.54152,0.292001,197.875977,-38.024902,129.272461,0,0
12594,2024 10 19,05:25:54.937,0.608647,0.284217,-0.646249,0.362122,-0.444838,0.479507,0.2378,197.265625,-17.089844,130.981445,0,0
12595,2024 10 19,05:25:54.945,0.608153,0.302124,-0.636282,0.366082,-0.601581,0.432142,0.181158,197.32666,-2.685547,133.239746,0,0
12596,2024 10 19,05:25:54.954,0.60705,0.320183,-0.626413,0.369566,-0.729514,0.350108,0.111332,196.350098,3.112793,134.521484,0,0
12597,2024 10 19,05:25:54.962,0.60705,0.320183,-0.626413,0.369566,-0.729514,0.350108,0.111332,196.350098,3.112793,134.521484,0,0
12598,2024 10 19,05:25:54.970,0.605422,0.338188,-0.616441,0.372953,-0.776391,0.225105,0.089358,198.303223,6.591797,132.93457,0,0
12599,2024 10 19,05:25:54.979,0.602984,0.356286,-0.606458,0.376403,-0.785668,0.074709,0.056154,203.674316,13.61084,130.432129,0,0
12600,2024 10 19,05:25:54.987,0.599347,0.374769,-0.596591,0.380016,-0.880886,-0.081545,-0.004395,212.82959,24.353027,126.77002,0,0
12601,2024 10 19,05:25:54.995,0.594587,0.393405,-0.586633,0.384136,-1.018098,-0.212409,-0.102542,222.412109,28.259277,119.628906,0,0
12602,2024 10 19,05:25:55.004,0.588877,0.411717,-0.576346,0.389279,-1.116733,-0.275399,-0.116214,232.48291,25.20752,107.60498,0,0
12603,2024 10 19,05:25:55.012,0.588877,0.411717,-0.576346,0.389279,-1.116733,-0.275399,-0.116214,232.48291,25.20752,107.60498,0,0
12604,2024 10 19,05:25:55.020,0.582439,0.429308,-0.565656,0.395591,-1.081088,-0.328135,-0.126469,240.112305,18.127441,93.62793,0,0
12605,2024 10 19,05:25:55.029,0.575127,0.446037,-0.554923,0.402915,-1.019562,-0.426283,-0.120121,244.506836,16.113281,77.026367,0,0
12606,2024 10 19,05:25:55.037,0.566674,0.461458,-0.544944,0.411064,-3.047945,-1.408246,1.524461,241.455078,20.141602,52.67334,0,0
12607,2024 10 19,05:25:55.045,0.553075,0.476318,-0.537594,0.422163,-3.500595,0.943388,-4.875637,380.92041,-33.935547,-53.588867,0,0
12608,2024 10 19,05:25:55.054,0.568404,0.458875,-0.508695,0.45561,2.670492,-3.67394,1.939024,121.765137,-562.988281,-65.917969,1,0
12609,2024 10 19,05:25:55.062,0.568404,0.458875,-0.508695,0.45561,2.670492,-3.67394,1.939024,121.765137,-562.988281,-65.917969,0,0
12610,2024 10 19,05:25:55.070,0.55509,0.47341,-0.497045,0.469791,-1.899472,1.059603,-3.853633,220.275879,129.638672,23.986816,0,0
12611,2024 10 19,05:25:55.079,0.557439,0.475119,-0.482674,0.480155,-0.483413,2.336497,-1.154332,160.461426,-231.689453,15.808105,0,0
12612,2024 10 19,05:25:55.087,0.56266,0.471606,-0.47641,0.483773,-0.216315,-0.085452,-0.26661,-42.419434,-11.901855,12.695313,0,0
12613,2024 10 19,05:25:55.095,0.561485,0.472411,-0.479044,0.481747,-0.999542,0.152837,-0.733909,-31.12793,11.474609,-7.141113,0,0
12614,2024 10 19,05:25:55.104,0.562438,0.47077,-0.480758,0.480532,-1.047884,0.172369,0.632832,-30.944824,28.320313,-3.479004,0,0
12615,2024 10 19,05:25:55.112,0.562438,0.47077,-0.480758,0.480532,-1.047884,0.172369,0.632832,-30.944824,28.320313,-3.479004,0,0
12616,2024 10 19,05:25:55.120,0.562784,0.470404,-0.483609,0.477616,-1.186071,-0.066897,-0.344249,-25.390625,8.117676,3.356934,0,0
12617,2024 10 19,05:25:55.129,0.563597,0.469379,-0.483093,0.478187,-1.063021,0.048341,0.414563,-8.300781,-11.352539,-1.647949,0,0
12618,2024 10 19,05:25:55.137,0.563964,0.468848,-0.482606,0.478767,-1.066927,0.115726,-0.191412,4.333496,-22.827148,-2.380371,0,0
12619,2024 10 19,05:25:55.145,0.565053,0.467617,-0.480759,0.480541,-0.797876,0.128422,-0.06006,8.361816,-28.076172,-2.380371,0,0
12620,2024 10 19,05:25:55.154,0.56527,0.467423,-0.479896,0.481337,-0.901883,0.152348,-0.273934,4.02832,-12.268066,-0.183105,0,0
12621,2024 10 19,05:25:55.162,0.56527,0.467423,-0.479896,0.481337,-0.901883,0.152348,-0.273934,4.02832,-12.268066,-0.183105,0,0
12622,2024 10 19,05:25:55.170,0.565822,0.466982,-0.479181,0.481828,-0.845729,0.163091,-0.114261,0.12207,-7.69043,1.098633,0,0
12623,2024 10 19,05:25:55.179,0.565929,0.467027,-0.47934,0.481502,-0.959502,0.139164,-0.156255,-3.601074,3.051758,1.525879,0,0
12624,2024 10 19,05:25:55.187,0.566046,0.466974,-0.479492,0.481263,-0.961943,0.115238,-0.04297,-2.441406,2.807617,0.366211,0,0
12625,2024 10 19,05:25:55.195,0.565811,0.467154,-0.479711,0.481147,-1.010773,0.127445,-0.041505,1.098633,2.929688,-1.525879,0,0
12626,2024 10 19,05:25:55.204,0.565667,0.467089,-0.479647,0.481443,-0.925321,0.130863,-0.094729,2.746582,-2.075195,-3.417969,0,0
12627,2024 10 19,05:25:55.212,0.565667,0.467089,-0.479647,0.481443,-0.925321,0.130863,-0.094729,2.746582,-2.075195,-3.417969,0,0
12628,2024 10 19,05:25:55.220,0.565381,0.467135,-0.479661,0.481721,-0.923856,0.131352,-0.123051,2.929688,0.915527,-3.479004,0,0
12629,2024 10 19,05:25:55.229,0.565045,0.467229,-0.479782,0.481903,-0.927763,0.150884,-0.121097,2.380371,3.173828,-3.601074,0,0
12630,2024 10 19,05:25:55.237,0.564676,0.467299,-0.480142,0.481909,-0.962432,0.152837,-0.101566,-0.427246,5.126953,-4.150391,0,0
12631,2024 10 19,05:25:55.245,0.564343,0.46722,-0.480658,0.481861,-0.966826,0.132328,-0.069826,-2.502441,5.004883,-5.432129,0,0
12632,2024 10 19,05:25:55.254,0.564011,0.467027,-0.481209,0.481888,-0.951689,0.126957,-0.087893,-2.13623,3.845215,-6.591797,0,0
12633,2024 10 19,05:25:55.262,0.564011,0.467027,-0.481209,0.481888,-0.951689,0.126957,-0.087893,-2.13623,3.845215,-6.591797,0,0
12634,2024 10 19,05:25:55.270,0.563657,0.46681,-0.481739,0.481983,-0.956572,0.126469,-0.077151,-2.01416,3.723145,-6.958008,0,0
12635,2024 10 19,05:25:55.279,0.563343,0.466529,-0.482247,0.482113,-0.93997,0.121586,-0.090335,-2.441406,2.380371,-7.141113,0,0
12636,2024 10 19,05:25:55.287,0.563085,0.466213,-0.482727,0.48224,-0.93997,0.119144,-0.096194,-3.051758,2.319336,-6.713867,0,0
12637,2024 10 19,05:25:55.295,0.562883,0.46589,-0.483164,0.482351,-0.931181,0.11182,-0.101566,-2.807617,1.342773,-6.04248,0,0
12638,2024 10 19,05:25:55.304,0.562708,0.465605,-0.483537,0.482456,-0.928251,0.109867,-0.090335,-2.319336,1.647949,-5.249023,0,0
12639,2024 10 19,05:25:55.312,0.562487,0.465418,-0.483877,0.482553,-0.93704,0.116214,-0.0918,-1.098633,1.953125,-4.821777,0,0
12640,2024 10 19,05:25:55.320,0.562487,0.465418,-0.483877,0.482553,-0.93704,0.116214,-0.0918,-1.098633,1.953125,-4.821777,0,0
12641,2024 10 19,05:25:55.329,0.562282,0.465261,-0.48416,0.48266,-0.931181,0.112796,-0.101077,-0.854492,1.77002,-4.394531,0,0
12642,2024 10 19,05:25:55.337,0.562051,0.465156,-0.484419,0.482769,-0.947295,0.110843,-0.082034,-0.244141,1.831055,-4.272461,0,0
12643,2024 10 19,05:25:55.345,0.561825,0.465053,-0.484616,0.482935,-0.938017,0.119144,-0.093753,0.244141,0.732422,-4.211426,0,0
12644,2024 10 19,05:25:55.354,0.56161,0.464944,-0.484795,0.483111,-0.938994,0.115238,-0.0918,0.366211,1.037598,-4.211426,0,0
12645,2024 10 19,05:25:55.362,0.561381,0.464848,-0.484972,0.48329,-0.942412,0.119144,-0.094241,0.366211,0.793457,-4.211426,0,0
12646,2024 10 19,05:25:55.370,0.561381,0.464848,-0.484972,0.48329,-0.942412,0.119144,-0.094241,0.366211,0.793457,-4.211426,0,0
12647,2024 10 19,05:25:55.379,0.56119,0.464716,-0.48512,0.48349,-0.93997,0.108402,-0.083987,0.610352,0.244141,-4.089355,0,0
12648,2024 10 19,05:25:55.387,0.560979,0.464619,-0.485206,0.483744,-0.943876,0.116703,-0.094241,1.586914,-0.366211,-4.089355,0,0
12649,2024 10 19,05:25:55.395,0.560781,0.464495,-0.48524,0.484057,-0.940947,0.11182,-0.08301,1.77002,-0.976563,-4.333496,0,0
12650,2024 10 19,05:25:55.404,0.560586,0.464373,-0.485245,0.484395,-0.933134,0.111332,-0.098148,2.13623,-1.464844,-4.272461,0,0
12651,2024 10 19,05:25:55.412,0.560374,0.464248,-0.485261,0.484743,-0.937529,0.11475,-0.098636,2.319336,-0.915527,-4.699707,0,0
12652,2024 10 19,05:25:55.420,0.560374,0.464248,-0.485261,0.484743,-0.937529,0.11475,-0.098636,2.319336,-0.915527,-4.699707,0,0
12653,2024 10 19,05:25:55.429,0.560151,0.464107,-0.485282,0.485115,-0.935087,0.113285,-0.096683,2.197266,-1.342773,-4.821777,0,0
12654,2024 10 19,05:25:55.437,0.559868,0.463996,-0.485372,0.485458,-0.950713,0.117679,-0.099124,2.01416,0.12207,-5.432129,0,0
12655,2024 10 19,05:25:55.445,0.559554,0.463837,-0.485514,0.48583,-0.944365,0.116214,-0.083499,1.831055,-0.183105,-6.286621,0,0
12656,2024 10 19,05:25:55.454,0.559189,0.463633,-0.485729,0.48623,-0.946806,0.112796,-0.103519,1.586914,0.244141,-7.568359,0,0
12657,2024 10 19,05:25:55.462,0.558762,0.463408,-0.485985,0.486679,-0.946318,0.109378,-0.08301,1.708984,0.488281,-8.361816,0,0
12658,2024 10 19,05:25:55.470,0.558762,0.463408,-0.485985,0.486679,-0.946318,0.109378,-0.08301,1.708984,0.488281,-8.361816,0,0
12659,2024 10 19,05:25:55.479,0.558292,0.463156,-0.486267,0.487177,-0.949248,0.107425,-0.085452,2.319336,0.244141,-9.399414,0,0
12660,2024 10 19,05:25:55.487,0.557794,0.462866,-0.48653,0.48776,-0.93704,0.106449,-0.08887,2.563477,-0.12207,-10.070801,0,0
12661,2024 10 19,05:25:55.495,0.557276,0.462567,-0.48679,0.488375,-0.933622,0.104984,-0.094729,2.929688,-0.244141,-10.375977,0,0
12662,2024 10 19,05:25:55.504,0.556694,0.462308,-0.487064,0.489011,-0.935575,0.097171,-0.096194,3.479004,0.427246,-10.620117,0,0
12663,2024 10 19,05:25:55.512,0.556058,0.4621,-0.487343,0.489653,-0.946318,0.101077,-0.092288,4.211426,1.037598,-10.620117,0,0
12664,2024 10 19,05:25:55.520,0.556058,0.4621,-0.487343,0.489653,-0.946318,0.101077,-0.092288,4.211426,1.037598,-10.620117,0,0
12665,2024 10 19,05:25:55.529,0.555325,0.461936,-0.487663,0.490321,-0.950224,0.092288,-0.101077,4.516602,1.89209,-11.535645,0,0
12666,2024 10 19,05:25:55.537,0.554415,0.461827,-0.488067,0.491049,-0.955596,0.109378,-0.111332,6.04248,3.78418,-13.427734,0,0
12667,2024 10 19,05:25:55.545,0.553322,0.461707,-0.488656,0.491809,-0.966826,0.121586,-0.099612,5.859375,6.04248,-15.869141,0,0
12668,2024 10 19,05:25:55.554,0.55194,0.461565,-0.489608,0.492548,-0.999054,0.127445,-0.095706,4.150391,10.009766,-20.080566,0,0
12669,2024 10 19,05:25:55.562,0.550225,0.461273,-0.490921,0.493433,-0.987823,0.125492,-0.086428,5.065918,12.207031,-25.695801,0,0
12670,2024 10 19,05:25:55.570,0.550225,0.461273,-0.490921,0.493433,-0.987823,0.125492,-0.086428,5.065918,12.207031,-25.695801,0,0
12671,2024 10 19,05:25:55.579,0.548209,0.460835,-0.492604,0.494408,-1.015168,0.141606,-0.070803,3.417969,15.380859,-30.822754,0,0
12672,2024 10 19,05:25:55.587,0.54577,0.460159,-0.494932,0.495411,-1.092807,0.13477,-0.100589,-0.427246,20.080566,-39.489746,0,0
12673,2024 10 19,05:25:55.595,0.542702,0.459102,-0.497838,0.496847,-1.069369,0.151372,-0.106449,1.464844,23.31543,-51.208496,0,0
12674,2024 10 19,05:25:55.604,0.538714,0.457942,-0.501519,0.498553,-1.098666,0.121586,-0.08301,3.295898,32.531738,-62.866211,0,0
12675,2024 10 19,05:25:55.612,0.533814,0.456813,-0.505816,0.500514,-1.1807,0.152837,-0.135746,6.04248,39.733887,-72.08252,0,0
12676,2024 10 19,05:25:55.620,0.533814,0.456813,-0.505816,0.500514,-1.1807,0.152837,-0.135746,6.04248,39.733887,-72.08252,0,0
12677,2024 10 19,05:25:55.629,0.528342,0.455412,-0.510494,0.502843,-1.148961,0.10303,-0.070315,6.04248,40.283203,-81.481934,0,0
12678,2024 10 19,05:25:55.637,0.522111,0.453993,-0.515564,0.505454,-1.081576,0.083499,-0.036622,11.657715,48.095703,-88.867188,0,0
12679,2024 10 19,05:25:55.645,0.514745,0.453064,-0.521103,0.508155,-1.028352,-0.006348,0.087405,19.104004,60.058594,-95.031738,0,0
12680,2024 10 19,05:25:55.654,0.506051,0.45312,-0.526751,0.511007,-0.861843,-0.101077,0.312998,32.836914,73.852539,-96.191406,0,1
12681,2024 10 19,05:25:55.662,0.495531,0.455316,-0.53225,0.51366,-0.82815,-0.198737,0.457045,57.556152,98.571777,-90.637207,0,0
12682,2024 10 19,05:25:55.670,0.495531,0.455316,-0.53225,0.51366,-0.82815,-0.198737,0.457045,57.556152,98.571777,-90.637207,0,0
12683,2024 10 19,05:25:55.679,0.482738,0.460339,-0.537014,0.5164,-0.84817,-0.171392,0.57033,91.003418,124.084473,-82.03125,0,0
12684,2024 10 19,05:25:55.687,0.46796,0.467977,-0.540721,0.519261,-0.992706,-0.0918,0.542009,125.976563,142.63916,-73.669434,0,0
12685,2024 10 19,05:25:55.695,0.452145,0.476967,-0.542774,0.522937,-0.959014,-0.136723,0.615741,149.108887,137.939453,-67.443848,0,0
12686,2024 10 19,05:25:55.704,0.436172,0.487025,-0.542325,0.527678,-1.184118,0.557146,0.26661,179.138184,122.802734,-49.926758,0,0
12687,2024 10 19,05:25:55.712,0.425526,0.496347,-0.536087,0.53402,-1.602588,0.663594,-0.354503,184.631348,24.841309,8.911133,0,0
12688,2024 10 19,05:25:55.720,0.422999,0.502501,-0.521794,0.54433,-0.864772,0.759789,-0.22364,208.129883,-97.77832,57.556152,0,0
12689,2024 10 19,05:25:55.729,0.422999,0.502501,-0.521794,0.54433,-0.864772,0.759789,-0.22364,208.129883,-97.77832,57.556152,0,0
12690,2024 10 19,05:25:55.737,0.421527,0.509058,-0.50389,0.55612,-0.208991,0.57326,0.446303,226.989746,-95.64209,76.538086,0,0
12691,2024 10 19,05:25:55.745,0.417637,0.518813,-0.486379,0.565551,-0.529801,0.681661,-0.037111,235.778809,-49.621582,87.097168,0,0
12692,2024 10 19,05:25:55.754,0.414179,0.528192,-0.467941,0.574891,-0.542985,0.834986,0.130863,235.595703,-68.29834,91.674805,0,0
12693,2024 10 19,05:25:55.762,0.411265,0.537385,-0.449579,0.583059,-0.500015,0.782739,0.009766,222.473145,-57.373047,100.158691,0,0
12694,2024 10 19,05:25:55.770,0.409118,0.54613,-0.431717,0.589902,-0.501968,0.65041,0.147465,205.078125,-56.884766,104.797363,0,0
12695,2024 10 19,05:25:55.779,0.409118,0.54613,-0.431717,0.589902,-0.501968,0.65041,0.147465,205.078125,-56.884766,104.797363,0,0
12696,2024 10 19,05:25:55.787,0.406892,0.554814,-0.414936,0.595356,-0.543962,0.549821,0.092776,191.650391,-38.94043,103.33252,0,0
12697,2024 10 19,05:25:55.795,0.40444,0.563488,-0.399289,0.599565,-0.631855,0.469741,0.104984,179.931641,-27.038574,100.952148,0,0
12698,2024 10 19,05:25:55.804,0.401992,0.572149,-0.384533,0.602646,-0.69631,0.338878,0.042482,168.823242,-15.319824,101.745605,0,0
12699,2024 10 19,05:25:55.812,0.399551,0.580817,-0.370402,0.604825,-0.693869,0.15186,0.038575,161.376953,-7.263184,102.539063,0,0
12700,2024 10 19,05:25:55.820,0.396676,0.589695,-0.356957,0.60621,-0.782739,-0.062014,-0.02588,158.325195,6.04248,99.42627,0,0
12701,2024 10 19,05:25:55.829,0.396676,0.589695,-0.356957,0.60621,-0.782739,-0.062014,-0.02588,158.325195,6.04248,99.42627,0,0
12702,2024 10 19,05:25:55.837,0.392922,0.598582,-0.344231,0.607303,-0.934599,-0.23487,-0.089846,158.996582,13.061523,89.233398,0,0
12703,2024 10 19,05:25:55.845,0.388182,0.606977,-0.332139,0.608751,-1.042512,-0.363292,-0.138188,160.644531,12.573242,74.523926,0,0
12704,2024 10 19,05:25:55.854,0.382545,0.614459,-0.32067,0.610958,-1.0889,-0.456557,-0.159673,160.949707,5.92041,57.189941,0,0
12705,2024 10 19,05:25:55.862,0.376108,0.620863,-0.310102,0.613928,-1.04593,-0.509781,-0.187017,157.348633,1.159668,38.085938,0,0
12706,2024 10 19,05:25:55.870,0.368871,0.626429,-0.300967,0.617204,-0.979034,-0.525895,-0.212897,148.986816,4.455566,17.944336,0,0
12707,2024 10 19,05:25:55.879,0.368871,0.626429,-0.300967,0.617204,-0.979034,-0.525895,-0.212897,148.986816,4.455566,17.944336,0,0
12708,2024 10 19,05:25:55.887,0.361062,0.631235,-0.29391,0.620317,-0.973662,-0.506851,-0.280282,132.507324,11.474609,-3.356934,0,0
12709,2024 10 19,05:25:55.895,0.350386,0.638268,-0.290388,0.620901,-4.084597,0.485855,-4.794092,166.07666,80.993652,-39.18457,0,0
12710,2024 10 19,05:25:55.904,0.354438,0.612886,-0.280504,0.648122,1.464889,-2.40144,1.803277,-8.728027,-521.54541,-76.660156,1,0
12711,2024 10 19,05:25:55.912,0.351675,0.611009,-0.272967,0.654585,-0.318857,-0.407239,-2.826258,45.593262,75.012207,39.611816,0,0
12712,2024 10 19,05:25:55.920,0.346437,0.616294,-0.263607,0.656258,-1.063997,2.227607,-0.539079,194.030762,-48.461914,19.104004,0,0
12713,2024 10 19,05:25:55.929,0.346437,0.616294,-0.263607,0.656258,-1.063997,2.227607,-0.539079,194.030762,-48.461914,19.104004,0,0
12714,2024 10 19,05:25:55.937,0.350061,0.612007,-0.259667,0.659908,-0.093753,0.125004,0.092776,-23.864746,-30.273438,21.606445,0,0
12715,2024 10 19,05:25:55.945,0.348948,0.615742,-0.261186,0.656414,-1.281777,-0.135746,-0.888211,-17.211914,43.640137,5.493164,0,0
12716,2024 10 19,05:25:55.954,0.348238,0.615851,-0.260473,0.656972,-1.026887,0.417982,0.712912,12.695313,5.249023,-3.540039,0,0
12717,2024 10 19,05:25:55.962,0.34917,0.61646,-0.261679,0.655424,-1.178747,0.08594,-0.227546,-11.59668,5.79834,6.103516,0,0
12718,2024 10 19,05:25:55.970,0.350107,0.615703,-0.261485,0.655714,-0.893582,0.142582,0.002441,-10.681152,-8.117676,4.211426,0,0
12719,2024 10 19,05:25:55.979,0.350107,0.615703,-0.261485,0.655714,-0.893582,0.142582,0.002441,-10.681152,-8.117676,4.211426,0,0
12720,2024 10 19,05:25:55.987,0.350405,0.615393,-0.261707,0.655757,-0.927763,0.15186,-0.149419,-3.540039,-4.821777,-2.197266,0,0
12721,2024 10 19,05:25:55.995,0.350364,0.615226,-0.261831,0.655886,-0.944853,0.108402,-0.058596,0.793457,2.197266,-2.258301,0,0
12722,2024 10 19,05:25:56.004,0.350134,0.615392,-0.261738,0.65589,-0.934111,0.134281,-0.089358,3.90625,-0.244141,-0.427246,0,0
12723,2024 10 19,05:25:56.012,0.349906,0.615604,-0.261532,0.655895,-0.963408,0.161626,-0.08301,2.624512,2.441406,0.366211,0,0
12724,2024 10 19,05:25:56.020,0.34998,0.615608,-0.261422,0.655896,-0.947783,0.163579,-0.075198,-0.366211,-1.953125,1.098633,0,0
12725,2024 10 19,05:25:56.029,0.34998,0.615608,-0.261422,0.655896,-0.947783,0.163579,-0.075198,-0.366211,-1.953125,1.098633,0,0
12726,2024 10 19,05:25:56.037,0.350247,0.615568,-0.261428,0.655789,-0.916044,0.156255,-0.138676,-3.173828,0.732422,2.197266,0,0
12727,2024 10 19,05:25:56.045,0.35052,0.615609,-0.261545,0.655557,-0.930692,0.154302,-0.08594,-3.173828,2.380371,1.831055,0,0
12728,2024 10 19,05:25:56.054,0.350551,0.615824,-0.261742,0.65526,-0.995636,0.15186,-0.064943,-1.098633,4.516602,-0.244141,0,0
12729,2024 10 19,05:25:56.062,0.350319,0.615903,-0.261855,0.655265,-1.003449,0.176763,-0.044435,1.953125,0.549316,-3.601074,0,0
12730,2024 10 19,05:25:56.070,0.349971,0.615739,-0.261953,0.655565,-0.976104,0.142094,-0.086917,2.01416,-2.929688,-5.92041,0,0
12731,2024 10 19,05:25:56.079,0.349971,0.615739,-0.261953,0.655565,-0.976104,0.142094,-0.086917,2.01416,-2.929688,-5.92041,0,0
12732,2024 10 19,05:25:56.087,0.3495,0.61543,-0.261995,0.65609,-0.938994,0.153813,-0.10303,3.356934,-4.699707,-7.263184,0,0
12733,2024 10 19,05:25:56.095,0.349048,0.615122,-0.26208,0.656586,-0.930692,0.156743,-0.10889,2.563477,-3.662109,-7.141113,0,0
12734,2024 10 19,05:25:56.104,0.34869,0.614869,-0.26224,0.656949,-0.932646,0.141118,-0.11475,0.854492,-2.380371,-6.164551,0,0
12735,2024 10 19,05:25:56.112,0.348403,0.614611,-0.262413,0.657273,-0.924833,0.129398,-0.103519,0.793457,-2.380371,-5.493164,0,0
12736,2024 10 19,05:25:56.120,0.348034,0.614511,-0.262549,0.657508,-0.950713,0.132817,-0.102054,2.197266,-0.488281,-5.126953,0,0
12737,2024 10 19,05:25:56.129,0.347621,0.614419,-0.262591,0.657795,-0.938505,0.141118,-0.095218,3.356934,-1.342773,-5.004883,0,0
12738,2024 10 19,05:25:56.137,0.347621,0.614419,-0.262591,0.657795,-0.938505,0.141118,-0.095218,3.356934,-1.342773,-5.004883,0,0
12739,2024 10 19,05:25:56.145,0.347178,0.614392,-0.262611,0.658047,-0.949248,0.142582,-0.098636,3.479004,-0.427246,-4.821777,0,0
12740,2024 10 19,05:25:56.154,0.346761,0.614313,-0.262614,0.658339,-0.938505,0.145512,-0.105472,3.234863,-1.525879,-4.821777,0,0
12741,2024 10 19,05:25:56.162,0.346391,0.614217,-0.262648,0.65861,-0.938505,0.144536,-0.106937,2.685547,-1.342773,-4.699707,0,0
12742,2024 10 19,05:25:56.170,0.346055,0.614103,-0.262707,0.658869,-0.949248,0.150395,-0.083987,1.89209,-1.464844,-4.699707,0,0
12743,2024 10 19,05:25:56.179,0.345808,0.61389,-0.262809,0.659157,-0.937529,0.135258,-0.10596,0.671387,-2.868652,-4.699707,0,0
12744,2024 10 19,05:25:56.187,0.345808,0.61389,-0.262809,0.659157,-0.937529,0.135258,-0.10596,0.671387,-2.868652,-4.699707,0,0
12745,2024 10 19,05:25:56.195,0.345568,0.613658,-0.262885,0.659468,-0.928251,0.134281,-0.107425,1.159668,-2.502441,-4.455566,0,0
12746,2024 10 19,05:25:56.204,0.345309,0.613488,-0.262953,0.659734,-0.930692,0.138188,-0.099612,1.464844,-2.01416,-4.150391,0,0
12747,2024 10 19,05:25:56.212,0.345068,0.613334,-0.263001,0.659985,-0.932157,0.135258,-0.104007,1.342773,-2.01416,-3.78418,0,0
12748,2024 10 19,05:25:56.220,0.344857,0.613174,-0.263036,0.66023,-0.927274,0.1377,-0.107425,1.159668,-2.13623,-3.479004,0,0
12749,2024 10 19,05:25:56.229,0.344696,0.613013,-0.263072,0.660449,-0.931669,0.134281,-0.106937,0.793457,-2.01416,-3.051758,0,0
12750,2024 10 19,05:25:56.237,0.344696,0.613013,-0.263072,0.660449,-0.931669,0.134281,-0.106937,0.793457,-2.01416,-3.051758,0,0
12751,2024 10 19,05:25:56.245,0.344543,0.612866,-0.263101,0.660654,-0.933622,0.139653,-0.109378,0.854492,-1.89209,-2.868652,0,0
12752,2024 10 19,05:25:56.254,0.344428,0.612709,-0.263122,0.660851,-0.936552,0.129398,-0.096194,0.488281,-2.075195,-2.502441,0,0
12753,2024 10 19,05:25:56.262,0.344342,0.612531,-0.263114,0.661064,-0.922391,0.127445,-0.118168,0.549316,-2.746582,-2.13623,0,0
12754,2024 10 19,05:25:56.270,0.344203,0.612414,-0.263053,0.661269,-0.926786,0.135746,-0.10596,1.77002,-1.647949,-2.01416,0,0
12755,2024 10 19,05:25:56.279,0.344051,0.61235,-0.262984,0.661435,-0.931669,0.127934,-0.106449,1.831055,-1.525879,-1.77002,0,0
12756,2024 10 19,05:25:56.287,0.344051,0.61235,-0.262984,0.661435,-0.931669,0.127934,-0.106449,1.831055,-1.525879,-1.77002,0,0
12757,2024 10 19,05:25:56.295,0.343849,0.612293,-0.262867,0.661639,-0.928251,0.1377,-0.110843,2.685547,-1.586914,-2.01416,0,0
12758,2024 10 19,05:25:56.304,0.343599,0.612258,-0.26278,0.661836,-0.930204,0.142094,-0.109867,2.990723,-0.976563,-2.685547,0,0
12759,2024 10 19,05:25:56.312,0.343286,0.612275,-0.262759,0.661991,-0.941923,0.144536,-0.103519,2.624512,0.183105,-3.356934,0,0
12760,2024 10 19,05:25:56.320,0.34294,0.612276,-0.262824,0.662143,-0.944365,0.141118,-0.10596,2.13623,0.366211,-4.211426,0,0
12761,2024 10 19,05:25:56.329,0.342553,0.612279,-0.262982,0.662278,-0.944853,0.141118,-0.109378,1.77002,1.037598,-5.065918,0,0
12762,2024 10 19,05:25:56.337,0.342553,0.612279,-0.262982,0.662278,-0.944853,0.141118,-0.109378,1.77002,1.037598,-5.065918,0,0
12763,2024 10 19,05:25:56.345,0.342136,0.612292,-0.263209,0.662391,-0.954131,0.132328,-0.099124,1.281738,1.647949,-5.615234,0,0
12764,2024 10 19,05:25:56.354,0.341608,0.612333,-0.263501,0.66251,-0.950713,0.143559,-0.104984,1.586914,2.380371,-6.958008,0,0
12765,2024 10 19,05:25:56.362,0.341011,0.612379,-0.26397,0.662588,-0.967803,0.162603,-0.097171,0.610352,3.967285,-8.850098,0,0
12766,2024 10 19,05:25:56.370,0.340337,0.612431,-0.264743,0.662578,-1.006378,0.175298,-0.089358,-1.708984,5.67627,-11.535645,0,0
12767,2024 10 19,05:25:56.379,0.339682,0.612228,-0.265867,0.662652,-1.006867,0.199225,-0.085452,-5.554199,3.967285,-15.441895,0,0
12768,2024 10 19,05:25:56.387,0.339682,0.612228,-0.265867,0.662652,-1.006867,0.199225,-0.085452,-5.554199,3.967285,-15.441895,0,0
12769,2024 10 19,05:25:56.395,0.33902,0.611803,-0.267698,0.662646,-1.004425,0.187506,-0.093265,-12.939453,7.080078,-21.606445,0,0
12770,2024 10 19,05:25:56.404,0.337638,0.611683,-0.270499,0.662325,-1.127476,0.24366,-0.082522,-12.817383,20.263672,-33.325195,0,0
12771,2024 10 19,05:25:56.412,0.334612,0.611852,-0.274345,0.662123,-1.208045,0.26368,-0.268075,-6.652832,27.709961,-55.786133,0,0
12772,2024 10 19,05:25:56.420,0.329936,0.611537,-0.279168,0.662744,-1.234413,0.207526,-0.046388,-2.13623,28.747559,-78.735352,0,0
12773,2024 10 19,05:25:56.429,0.323387,0.611671,-0.285275,0.663247,-1.488815,0.256844,-0.084964,2.380371,43.518066,-100.708008,0,0
12774,2024 10 19,05:25:56.437,0.323387,0.611671,-0.285275,0.663247,-1.488815,0.256844,-0.084964,2.380371,43.518066,-100.708008,0,0
12775,2024 10 19,05:25:56.445,0.316066,0.610805,-0.292178,0.664569,-1.543504,0.293466,-0.122074,-2.197266,27.22168,-117.370605,0,0
12776,2024 10 19,05:25:56.454,0.308772,0.607949,-0.299699,0.667261,-1.330607,0.205573,0.028809,-8.422852,8.728027,-132.446289,0,0
12777,2024 10 19,05:25:56.462,0.300562,0.605229,-0.308026,0.669687,-1.194372,0.078616,-0.000977,-6.713867,24.169922,-142.211914,0,0
12778,2024 10 19,05:25:56.470,0.291024,0.603178,-0.316442,0.671822,-0.986358,-0.058107,0.247078,4.638672,33.203125,-147.460938,0,1
12779,2024 10 19,05:25:56.479,0.27993,0.602732,-0.324165,0.673254,-0.830592,-0.124516,0.486831,27.587891,58.959961,-143.615723,0,0
12780,2024 10 19,05:25:56.487,0.27993,0.602732,-0.324165,0.673254,-0.830592,-0.124516,0.486831,27.587891,58.959961,-143.615723,0,0
12781,2024 10 19,05:25:56.495,0.266846,0.604885,-0.33059,0.673512,-0.955596,-0.163091,0.446303,57.678223,87.585449,-135.375977,0,0
12782,2024 10 19,05:25:56.504,0.251848,0.609054,-0.334473,0.673612,-0.866237,-0.097171,0.595721,95.76416,99.67041,-124.389648,0,0
12783,2024 10 19,05:25:56.512,0.235752,0.614617,-0.33489,0.674178,-0.976592,0.775903,0.426283,141.479492,95.76416,-100.463867,0,0
12784,2024 10 19,05:25:56.520,0.22406,0.618678,-0.330107,0.676804,-1.287149,0.831568,0.085452,138.916016,19.897461,-36.254883,0,0
12785,2024 10 19,05:25:56.529,0.217675,0.61939,-0.320233,0.682953,-0.754906,0.89993,0.072756,149.597168,-55.358887,13.000488,0,0
12786,2024 10 19,05:25:56.537,0.213718,0.619671,-0.307175,0.689911,-0.299814,0.752464,0.538591,158.02002,-63.354492,47.790527,0,0
12787,2024 10 19,05:25:56.545,0.213718,0.619671,-0.307175,0.689911,-0.299814,0.752464,0.538591,158.02002,-63.354492,47.790527,0,0
12788,2024 10 19,05:25:56.554,0.209654,0.62196,-0.29323,0.695145,-0.315439,0.693869,0.328135,164.916992,-36.254883,60.058594,0,0
12789,2024 10 19,05:25:56.562,0.205172,0.625093,-0.278907,0.699553,-0.309091,0.785668,0.394543,169.250488,-23.498535,63.110352,0,0
12790,2024 10 19,05:25:56.570,0.200818,0.629437,-0.264637,0.702459,-0.447279,0.832057,0.189459,162.658691,-4.02832,72.44873,0,0
12791,2024 10 19,05:25:56.579,0.197654,0.633735,-0.250536,0.70466,-0.503922,0.766625,0.195807,149.536133,-5.92041,81.542969,0,0
12792,2024 10 19,05:25:56.587,0.195335,0.638047,-0.236993,0.706098,-0.515152,0.653829,0.145024,137.023926,1.708984,85.083008,0,0
12793,2024 10 19,05:25:56.595,0.195335,0.638047,-0.236993,0.706098,-0.515152,0.653829,0.145024,137.023926,1.708984,85.083008,0,0
12794,2024 10 19,05:25:56.604,0.193353,0.642646,-0.224189,0.706655,-0.55324,0.553728,0.152837,127.502441,11.413574,85.205078,0,0
12795,2024 10 19,05:25:56.612,0.191503,0.647765,-0.211931,0.706267,-0.606952,0.492691,0.104495,121.582031,24.230957,86.669922,0,0
12796,2024 10 19,05:25:56.620,0.189866,0.653439,-0.199943,0.704976,-0.74514,0.400891,0.031251,117.370605,34.790039,90.942383,0,0
12797,2024 10 19,05:25:56.629,0.188503,0.659264,-0.187761,0.703266,-0.828639,0.265145,0.007813,117.248535,36.010742,96.557617,0,0
12798,2024 10 19,05:25:56.637,0.1871,0.665064,-0.175192,0.701421,-0.881375,0.100101,-0.037111,121.582031,36.804199,99.304199,0,0
12799,2024 10 19,05:25:56.645,0.1871,0.665064,-0.175192,0.701421,-0.881375,0.100101,-0.037111,121.582031,36.804199,99.304199,0,0
12800,2024 10 19,05:25:56.654,0.185008,0.670809,-0.16227,0.699612,-0.963408,-0.04297,-0.078127,130.981445,35.949707,95.52002,0,0
12801,2024 10 19,05:25:56.662,0.181681,0.676214,-0.149034,0.698223,-0.972198,-0.18067,-0.112796,144.104004,31.005859,86.05957,0,0
12802,2024 10 19,05:25:56.670,0.17672,0.681288,-0.135543,0.697313,-1.014191,-0.321787,-0.141118,159.362793,28.137207,73.608398,0,0
12803,2024 10 19,05:25:56.679,0.169977,0.686068,-0.121997,0.696804,-1.084018,-0.391614,-0.207526,172.973633,24.597168,58.71582,0,0
12804,2024 10 19,05:25:56.687,0.161651,0.690317,-0.10866,0.696795,-1.106479,-0.41261,-0.239753,182.067871,19.714355,43.09082,0,0
12805,2024 10 19,05:25:56.695,0.161651,0.690317,-0.10866,0.696795,-1.106479,-0.41261,-0.239753,182.067871,19.714355,43.09082,0,0
12806,2024 10 19,05:25:56.704,0.15223,0.694162,-0.095846,0.696978,-1.049348,-0.407727,-0.28956,184.387207,18.554688,30.334473,0,0
12807,2024 10 19,05:25:56.712,0.142426,0.697926,-0.083933,0.696828,-0.9888,-0.420911,-0.340831,177.368164,25.024414,21.606445,0,0
12808,2024 10 19,05:25:56.720,0.132831,0.70199,-0.073331,0.695836,-2.51033,-0.805689,0.598163,162.536621,37.902832,14.831543,0,0
12809,2024 10 19,05:25:56.729,0.120031,0.707088,-0.063995,0.693919,-2.276925,1.412153,-4.569963,228.820801,-13.73291,-47.180176,1,0
12810,2024 10 19,05:25:56.737,0.118456,0.681052,-0.058918,0.720184,0.110843,-2.788171,2.303782,36.010742,-410.15625,-10.620117,0,0
12811,2024 10 19,05:25:56.745,0.118456,0.681052,-0.058918,0.720184,0.110843,-2.788171,2.303781,36.010742,-410.15625,-10.620117,0,0
12812,2024 10 19,05:25:56.754,0.110266,0.680219,-0.05342,0.722697,-0.866237,-1.387249,-5.412274,70.556641,-19.165039,-18.005371,0,0
12813,2024 10 19,05:25:56.762,0.105579,0.664619,-0.044697,0.738334,0.884793,0.520524,1.37846,137.817383,-205.505371,13.977051,0,0
12814,2024 10 19,05:25:56.770,0.101791,0.67051,-0.036833,0.733961,-1.202185,1.110385,-2.60506,57.617188,81.542969,38.269043,0,0
12815,2024 10 19,05:25:56.779,0.104151,0.667093,-0.034433,0.736854,-0.321787,0.379894,1.305216,-15.014648,-44.311523,22.827148,0,0
12816,2024 10 19,05:25:56.787,0.105076,0.671398,-0.035477,0.732752,-1.314982,0.099124,-1.111362,-10.314941,69.091797,-0.427246,0,0
12817,2024 10 19,05:25:56.795,0.105076,0.671398,-0.035477,0.732752,-1.314982,0.099124,-1.111362,-10.314941,69.091797,-0.427246,0,0
12818,2024 10 19,05:25:56.804,0.104744,0.670081,-0.035812,0.733987,-0.945341,0.176763,0.800317,0.366211,-28.137207,-7.019043,0,0
12819,2024 10 19,05:25:56.812,0.105546,0.671051,-0.036604,0.732947,-1.276894,0.085452,-0.265633,-17.944336,16.906738,5.126953,0,0
12820,2024 10 19,05:25:56.820,0.107037,0.669175,-0.037052,0.734422,-0.863308,0.129398,0.140629,-13.916016,-35.705566,6.04248,0,0
12821,2024 10 19,05:25:56.829,0.107611,0.668205,-0.03713,0.735217,-0.908231,0.129887,-0.284677,-3.234863,-8.666992,1.464844,0,0
12822,2024 10 19,05:25:56.837,0.107751,0.66734,-0.036879,0.735994,-0.919462,0.084475,-0.014161,1.342773,-13.977051,1.953125,0,0
12823,2024 10 19,05:25:56.845,0.107751,0.66734,-0.036879,0.735994,-0.919462,0.084475,-0.014161,1.342773,-13.977051,1.953125,0,0
12824,2024 10 19,05:25:56.854,0.107615,0.666948,-0.036187,0.736403,-0.986358,0.170415,-0.099612,8.056641,-5.92041,3.662109,0,0
12825,2024 10 19,05:25:56.862,0.107588,0.666328,-0.035473,0.737003,-0.987335,0.194342,-0.030274,4.089355,-12.756348,3.78418,0,0
12826,2024 10 19,05:25:56.870,0.107992,0.665438,-0.035167,0.737762,-0.887234,0.179205,-0.17774,-2.868652,-13.549805,4.02832,0,0
12827,2024 10 19,05:25:56.879,0.10866,0.664883,-0.035161,0.738164,-0.886258,0.173345,-0.152348,-6.408691,-5.004883,4.516602,0,0
12828,2024 10 19,05:25:56.887,0.109413,0.6647,-0.035371,0.738209,-0.916532,0.143559,-0.129398,-7.995605,-1.037598,4.089355,0,0
12829,2024 10 19,05:25:56.895,0.109972,0.664719,-0.035551,0.7381,-0.916532,0.143559,-0.129398,-7.995605,-1.037598,4.089355,0,0
12830,2024 10 19,05:25:56.904,0.109972,0.664719,-0.035551,0.7381,-0.938017,0.124027,-0.109867,-4.882813,2.13623,2.990723,0,0
12831,2024 10 19,05:25:56.912,0.110145,0.664928,-0.035489,0.737888,-0.969756,0.145024,-0.061525,0.305176,3.173828,1.953125,0,0
12832,2024 10 19,05:25:56.920,0.110073,0.665088,-0.035301,0.737764,-0.959502,0.156743,-0.093753,2.624512,1.403809,0.488281,0,0
12833,2024 10 19,05:25:56.929,0.109922,0.665172,-0.035114,0.73772,-0.936552,0.166021,-0.111332,2.685547,1.037598,-0.12207,0,0
12834,2024 10 19,05:25:56.937,0.109783,0.665301,-0.034986,0.73763,-0.943388,0.170415,-0.106449,1.77002,1.831055,-0.549316,0,0
12835,2024 10 19,05:25:56.945,0.109693,0.665389,-0.034995,0.737563,-0.931181,0.161626,-0.116703,0.183105,1.281738,-1.220703,0,0
12836,2024 10 19,05:25:56.954,0.109693,0.665389,-0.034995,0.737563,-0.931181,0.161626,-0.116703,0.183105,1.281738,-1.220703,0,0
12837,2024 10 19,05:25:56.962,0.109543,0.665533,-0.03508,0.737452,-0.948759,0.166509,-0.090335,0.488281,2.685547,-2.319336,0,0
12838,2024 10 19,05:25:56.970,0.109332,0.665654,-0.035225,0.737367,-0.949736,0.146001,-0.096194,0.488281,1.586914,-3.356934,0,0
12839,2024 10 19,05:25:56.979,0.108939,0.665742,-0.035323,0.737341,-0.957549,0.149907,-0.089358,2.624512,1.098633,-4.577637,0,0
12840,2024 10 19,05:25:56.987,0.108394,0.665807,-0.035376,0.737361,-0.960479,0.153813,-0.094729,3.845215,0.366211,-5.493164,0,0
12841,2024 10 19,05:25:56.995,0.10779,0.665815,-0.035433,0.737438,-0.949736,0.160649,-0.101077,4.02832,-0.366211,-6.04248,0,0
12842,2024 10 19,05:25:57.004,0.10779,0.665815,-0.035433,0.737438,-0.949736,0.160649,-0.101077,4.02832,-0.366211,-6.04248,0,0
12843,2024 10 19,05:25:57.012,0.107216,0.665779,-0.035527,0.73755,-0.940458,0.158208,-0.10889,3.234863,-0.915527,-6.103516,0,0
12844,2024 10 19,05:25:57.020,0.106711,0.665688,-0.035684,0.737699,-0.930204,0.149907,-0.111332,2.075195,-1.464844,-5.92041,0,0
12845,2024 10 19,05:25:57.029,0.106263,0.665615,-0.035872,0.73782,-0.943388,0.146977,-0.100101,1.708984,-0.915527,-5.615234,0,0
12846,2024 10 19,05:25:57.037,0.105839,0.66551,-0.036047,0.737967,-0.941923,0.142582,-0.099124,1.403809,-1.77002,-5.371094,0,0
12847,2024 10 19,05:25:57.045,0.105417,0.665375,-0.036221,0.738141,-0.945341,0.145512,-0.096683,1.464844,-2.319336,-5.432129,0,0
12848,2024 10 19,05:25:57.054,0.105417,0.665375,-0.036221,0.738141,-0.945341,0.145512,-0.096683,1.464844,-2.319336,-5.432129,0,0
12849,2024 10 19,05:25:57.062,0.104991,0.665184,-0.036374,0.738365,-0.943876,0.148442,-0.100589,1.89209,-3.051758,-5.432129,0,0
12850,2024 10 19,05:25:57.070,0.104577,0.664952,-0.036538,0.738625,-0.934111,0.147465,-0.10596,1.403809,-3.723145,-5.554199,0,0
12851,2024 10 19,05:25:57.079,0.104201,0.664708,-0.036731,0.738889,-0.927763,0.139653,-0.116703,0.915527,-3.479004,-5.371094,0,0
12852,2024 10 19,05:25:57.087,0.103821,0.664516,-0.03693,0.739105,-0.934111,0.143559,-0.112796,0.976563,-2.563477,-5.371094,0,0
12853,2024 10 19,05:25:57.095,0.103458,0.664341,-0.037148,0.739303,-0.931181,0.139653,-0.115238,0.671387,-2.563477,-5.371094,0,0
12854,2024 10 19,05:25:57.104,0.103458,0.664341,-0.037148,0.739303,-0.931181,0.139653,-0.115238,0.671387,-2.563477,-5.371094,0,0
12855,2024 10 19,05:25:57.112,0.103091,0.664179,-0.037363,0.739488,-0.934111,0.139653,-0.11182,0.732422,-2.197266,-5.249023,0,0
12856,2024 10 19,05:25:57.120,0.102732,0.66402,-0.037552,0.739671,-0.929716,0.132328,-0.109378,0.976563,-2.258301,-5.004883,0,0
12857,2024 10 19,05:25:57.129,0.102349,0.663871,-0.037676,0.739852,-0.934599,0.135258,-0.110355,2.01416,-2.258301,-4.577637,0,0
12858,2024 10 19,05:25:57.137,0.101944,0.663685,-0.037721,0.740072,-0.928739,0.13477,-0.123051,2.502441,-3.234863,-4.272461,0,0
12859,2024 10 19,05:25:57.145,0.101522,0.663522,-0.03772,0.740276,-0.939482,0.142094,-0.104007,3.112793,-2.380371,-4.089355,0,0
12860,2024 10 19,05:25:57.154,0.101522,0.663522,-0.03772,0.740276,-0.939482,0.142094,-0.104007,3.112793,-2.380371,-4.089355,0,0
12861,2024 10 19,05:25:57.162,0.101083,0.663403,-0.037744,0.740441,-0.94583,0.145024,-0.111332,2.868652,-2.01416,-4.699707,0,0
12862,2024 10 19,05:25:57.170,0.100636,0.663265,-0.037846,0.740622,-0.946806,0.146489,-0.099612,2.197266,-2.075195,-5.371094,0,0
12863,2024 10 19,05:25:57.179,0.100143,0.663177,-0.038061,0.740756,-0.94583,0.14893,-0.105472,1.525879,-1.220703,-6.713867,0,0
12864,2024 10 19,05:25:57.187,0.099598,0.663142,-0.038427,0.740842,-0.932646,0.15186,-0.117679,0.671387,0.12207,-8.239746,0,0
12865,2024 10 19,05:25:57.195,0.098978,0.663301,-0.039007,0.740752,-0.944853,0.17188,-0.109378,-0.976563,4.272461,-10.375977,0,0
12866,2024 10 19,05:25:57.204,0.098978,0.663301,-0.039007,0.740752,-0.944853,0.17188,-0.109378,-0.976563,4.272461,-10.375977,0,0
12867,2024 10 19,05:25:57.212,0.098396,0.663661,-0.039952,0.740457,-0.968291,0.17481,-0.101566,-3.78418,7.263184,-12.756348,0,0
12868,2024 10 19,05:25:57.220,0.097863,0.664103,-0.041343,0.740055,-0.964385,0.183111,-0.137211,-9.155273,9.399414,-15.869141,0,0
12869,2024 10 19,05:25:57.229,0.097296,0.664714,-0.043253,0.739472,-1.013214,0.202643,-0.102542,-11.84082,13.305664,-20.141602,0,0
12870,2024 10 19,05:25:57.237,0.09662,0.665442,-0.045802,0.738751,-1.026399,0.200201,-0.081057,-17.883301,15.136719,-26.306152,0,0
12871,2024 10 19,05:25:57.245,0.095618,0.666427,-0.049242,0.737772,-1.075716,0.199225,-0.113285,-22.705078,22.155762,-36.987305,0,0
12872,2024 10 19,05:25:57.254,0.095618,0.666427,-0.049242,0.737772,-1.075716,0.199225,-0.113285,-22.705078,22.155762,-36.987305,0,0
12873,2024 10 19,05:25:57.262,0.093244,0.668016,-0.053529,0.736339,-1.213904,0.230476,-0.163091,-14.343262,33.26416,-56.213379,0,0
12874,2024 10 19,05:25:57.270,0.088848,0.669786,-0.058576,0.734889,-1.344768,0.155766,-0.084964,-5.004883,34.423828,-79.345703,0,0
12875,2024 10 19,05:25:57.279,0.082084,0.671819,-0.064073,0.733359,-1.568407,0.272958,-0.084964,9.094238,39.18457,-103.210449,0,0
12876,2024 10 19,05:25:57.287,0.073825,0.673056,-0.070246,0.732537,-1.538133,0.285165,-0.090335,13.48877,22.399902,-121.704102,0,0
12877,2024 10 19,05:25:57.295,0.065026,0.67276,-0.077438,0.732918,-1.448775,0.229499,0.17188,5.737305,5.371094,-133.422852,0,0
12878,2024 10 19,05:25:57.304,0.055949,0.672412,-0.085628,0.733076,-1.374554,0.078127,0.082034,5.737305,5.371094,-133.422852,0,0
12879,2024 10 19,05:25:57.312,0.055949,0.672412,-0.085628,0.733076,-1.374554,0.078127,0.082034,-1.281738,8.117676,-143.188477,0,0
12880,2024 10 19,05:25:57.320,0.046412,0.6715,-0.094219,0.733523,-1.109897,-0.086917,0.371105,3.601074,3.540039,-149.047852,0,1
12881,2024 10 19,05:25:57.329,0.035452,0.671998,-0.101687,0.732681,-0.904813,-0.216315,0.580584,27.282715,30.822754,-148.864746,0,0
12882,2024 10 19,05:25:57.337,0.022721,0.674201,-0.106602,0.730461,-0.949248,-0.056154,0.543962,65.368652,53.771973,-136.779785,0,0
12883,2024 10 19,05:25:57.345,0.008691,0.676336,-0.107344,0.728678,-0.835963,0.832545,0.647969,116.394043,41.625977,-114.074707,0,0
12884,2024 10 19,05:25:57.354,-0.002137,0.67695,-0.103563,0.728704,-0.979522,0.991241,0.265145,113.15918,1.831055,-49.560547,0,0
12885,2024 10 19,05:25:57.362,-0.002137,0.67695,-0.103563,0.728704,-0.979522,0.991241,0.265145,113.15918,1.831055,-49.560547,0,0
12886,2024 10 19,05:25:57.370,-0.010211,0.674524,-0.096588,0.731836,-0.431654,0.866237,0.43556,129.150391,-44.98291,-14.343262,0,0
12887,2024 10 19,05:25:57.379,-0.017686,0.673086,-0.08679,0.734241,-0.270516,0.776879,0.638203,145.812988,-13.427734,12.817383,0,0
12888,2024 10 19,05:25:57.387,-0.024975,0.672822,-0.0754,0.735528,-0.414075,0.789575,0.504898,156.616211,-6.896973,24.475098,0,0
12889,2024 10 19,05:25:57.395,-0.032217,0.67283,-0.062873,0.736416,-0.414563,0.874538,0.442885,163.452148,4.760742,34.179688,0,0
12890,2024 10 19,05:25:57.404,-0.038398,0.673154,-0.049568,0.736839,-0.509781,0.846217,0.346202,158.14209,4.699707,49.743652,0,0
12891,2024 10 19,05:25:57.412,-0.038398,0.673154,-0.049568,0.736839,-0.509781,0.846217,0.346202,158.14209,4.699707,49.743652,0,0
12892,2024 10 19,05:25:57.420,-0.043452,0.673226,-0.035937,0.737284,-0.446791,0.758324,0.341319,152.893066,5.79834,60.36377,0,0
12893,2024 10 19,05:25:57.429,-0.047728,0.673986,-0.022117,0.736869,-0.474136,0.67629,0.311045,147.949219,19.958496,68.359375,0,0
12894,2024 10 19,05:25:57.437,-0.051318,0.67552,-0.008075,0.735509,-0.54445,0.607929,0.237312,144.042969,33.569336,75.805664,0,0
12895,2024 10 19,05:25:57.445,-0.054345,0.677664,0.006245,0.733334,-0.614765,0.515641,0.142582,141.967773,44.98291,82.519531,0,0
12896,2024 10 19,05:25:57.454,-0.057002,0.680309,0.020952,0.730405,-0.669454,0.397961,0.076662,143.005371,55.847168,88.684082,0,0
12897,2024 10 19,05:25:57.462,-0.057002,0.680309,0.020952,0.730405,-0.669454,0.397961,0.076662,143.005371,55.847168,88.684082,0,0
12898,2024 10 19,05:25:57.470,-0.059549,0.68343,0.036257,0.726679,-0.746117,0.256355,-0.019532,148.132324,66.589355,93.933105,0,0
12899,2024 10 19,05:25:57.479,-0.062377,0.686833,0.05229,0.722243,-0.875515,0.132328,-0.125004,157.714844,74.645996,96.984863,0,0
12900,2024 10 19,05:25:57.487,-0.065807,0.690042,0.069113,0.71745,-0.993194,0.046876,-0.203619,169.677734,74.21875,98.449707,0,0
12901,2024 10 19,05:25:57.495,-0.069965,0.692649,0.086641,0.712626,-1.031281,-0.021485,-0.273934,181.640625,69.152832,98.632813,0,0
12902,2024 10 19,05:25:57.504,-0.074867,0.694624,0.104595,0.70778,-1.0347,-0.095706,-0.327158,190.734863,64.819336,96.313477,0,0
12903,2024 10 19,05:25:57.512,-0.074867,0.694624,0.104595,0.70778,-1.0347,-0.095706,-0.327158,190.734863,64.819336,96.313477,0,0
12904,2024 10 19,05:25:57.520,-0.080393,0.696224,0.122335,0.70274,-1.067415,-0.173345,-0.420911,192.504883,63.049316,88.806152,0,0
12905,2024 10 19,05:25:57.529,-0.086461,0.697519,0.138829,0.697652,-1.073275,-0.257332,-0.497085,184.692383,59.265137,73.364258,0,0
12906,2024 10 19,05:25:57.537,-0.09289,0.698826,0.152998,0.692535,-1.061068,-0.328623,-0.596698,166.564941,57.861328,50.537109,0,0
12907,2024 10 19,05:25:57.545,-0.099266,0.700645,0.163751,0.687334,-4.979156,-1.483932,1.655812,133.972168,62.255859,21.789551,0,0
12908,2024 10 19,05:25:57.554,-0.109216,0.701972,0.171267,0.682623,-2.773522,0.939482,-4.90054,221.374512,-80.871582,-69.030762,1,0
12909,2024 10 19,05:25:57.562,-0.109216,0.701972,0.171267,0.682623,-2.773522,0.939482,-4.90054,221.374512,-80.871582,-69.030762,0,0
12910,2024 10 19,05:25:57.570,-0.11984,0.670663,0.162335,0.713791,0.832545,-4.233039,1.8858,-14.770508,-515.991211,-33.752441,0,0
12911,2024 10 19,05:25:57.579,-0.134508,0.664153,0.168644,0.715798,-0.260262,0.324229,-3.814081,167.297363,-34.118652,-37.109375,0,0
12912,2024 10 19,05:25:57.587,-0.139724,0.653401,0.172949,0.723625,-0.020508,0.884304,0.179205,113.586426,-119.384766,33.14209,0,0
12913,2024 10 19,05:25:57.595,-0.13804,0.652269,0.17838,0.723651,-0.992706,0.39259,-1.925352,-20.690918,4.882813,53.466797,0,0
12914,2024 10 19,05:25:57.604,-0.137049,0.649526,0.179204,0.726099,-0.755882,0.391614,1.079623,21.850586,-18.676758,14.465332,0,0
12915,2024 10 19,05:25:57.612,-0.137049,0.649526,0.179204,0.726099,-0.755882,0.391614,1.079623,21.850586,-18.676758,14.465332,0,0
12916,2024 10 19,05:25:57.620,-0.135902,0.650586,0.180267,0.725102,-1.132847,-0.053713,-0.897488,-4.333496,6.896973,12.268066,0,0
12917,2024 10 19,05:25:57.629,-0.135345,0.648129,0.180832,0.727262,-1.129429,0.140141,0.878933,-8.666992,-31.066895,21.179199,0,0
12918,2024 10 19,05:25:57.637,-0.133374,0.647229,0.181218,0.728331,-1.007843,0.254402,-0.554216,-9.155273,-17.822266,20.751953,0,0
12919,2024 10 19,05:25:57.645,-0.132721,0.645471,0.181112,0.730035,-0.999054,0.24073,0.266121,-6.164551,-18.737793,6.713867,0,0
12920,2024 10 19,05:25:57.654,-0.132175,0.644819,0.180529,0.730853,-1.016144,0.121097,-0.222175,-11.535645,-17.51709,1.464844,0,0
12921,2024 10 19,05:25:57.662,-0.132175,0.644819,0.180529,0.730853,-1.016144,0.121097,-0.222175,-11.535645,-17.51709,1.464844,0,0
12922,2024 10 19,05:25:57.670,-0.132155,0.643555,0.179871,0.732133,-0.873562,0.155278,-0.072756,-4.760742,-15.808105,-0.549316,0,0
12923,2024 10 19,05:25:57.679,-0.132043,0.643048,0.179459,0.732699,-0.901883,0.145512,-0.163091,-5.004883,-9.765625,-0.488281,0,0
12924,2024 10 19,05:25:57.687,-0.131853,0.642581,0.179044,0.733244,-0.85403,0.160161,-0.178228,-5.737305,-4.821777,0.366211,0,0
12925,2024 10 19,05:25:57.695,-0.13146,0.642682,0.178763,0.733296,-0.929228,0.145512,-0.117191,-5.187988,2.197266,0.732422,0,0
12926,2024 10 19,05:25:57.704,-0.131183,0.642852,0.178603,0.733235,-0.913114,0.115238,-0.119633,-2.868652,2.929688,0.366211,0,0
12927,2024 10 19,05:25:57.712,-0.131223,0.643175,0.1788,0.732896,-0.977081,0.130375,-0.057619,3.662109,6.04248,-0.244141,0,0
12928,2024 10 19,05:25:57.720,-0.131223,0.643175,0.1788,0.732896,-0.977081,0.130375,-0.057619,3.662109,6.04248,-0.244141,0,0
12929,2024 10 19,05:25:57.729,-0.131556,0.643358,0.179206,0.732577,-0.963408,0.147954,-0.069338,6.652832,2.624512,-0.976563,0,0
12930,2024 10 19,05:25:57.737,-0.13199,0.643397,0.179638,0.732359,-0.920438,0.157231,-0.122074,7.080078,1.708984,-1.098633,0,0
12931,2024 10 19,05:25:57.745,-0.132322,0.643506,0.180048,0.732102,-0.923368,0.162114,-0.120609,5.737305,3.295898,-0.549316,0,0
12932,2024 10 19,05:25:57.754,-0.132538,0.643699,0.180379,0.731812,-0.949736,0.166021,-0.099124,4.211426,4.02832,-0.671387,0,0
12933,2024 10 19,05:25:57.762,-0.132741,0.643892,0.180592,0.731553,-0.963408,0.161626,-0.076662,2.990723,3.112793,-1.464844,0,0
12934,2024 10 19,05:25:57.770,-0.132741,0.643892,0.180592,0.731553,-0.963408,0.161626,-0.076662,2.990723,3.112793,-1.464844,0,0
12935,2024 10 19,05:25:57.779,-0.133014,0.644014,0.180709,0.731367,-0.953642,0.150395,-0.089358,3.173828,1.586914,-2.502441,0,0
12936,2024 10 19,05:25:57.787,-0.133382,0.644083,0.180826,0.73121,-0.943388,0.150884,-0.093265,3.967285,1.098633,-2.929688,0,0
12937,2024 10 19,05:25:57.795,-0.133811,0.644109,0.180967,0.731074,-0.953154,0.155278,-0.08301,4.516602,0.244141,-3.051758,0,0
12938,2024 10 19,05:25:57.804,-0.134226,0.644075,0.181053,0.731007,-0.943388,0.153325,-0.092776,3.540039,-0.671387,-3.112793,0,0
12939,2024 10 19,05:25:57.812,-0.134574,0.644007,0.181093,0.730993,-0.93704,0.152837,-0.094241,2.746582,-1.220703,-2.685547,0,0
12940,2024 10 19,05:25:57.820,-0.134574,0.644007,0.181093,0.730993,-0.93704,0.152837,-0.094241,2.746582,-1.220703,-2.685547,0,0
12941,2024 10 19,05:25:57.829,-0.134855,0.64391,0.181112,0.731022,-0.934599,0.149907,-0.100589,2.13623,-1.586914,-2.197266,0,0
12942,2024 10 19,05:25:57.837,-0.135092,0.643818,0.181128,0.731055,-0.940458,0.155278,-0.095706,1.708984,-1.342773,-1.77002,0,0
12943,2024 10 19,05:25:57.845,-0.13529,0.643719,0.181135,0.731104,-0.936064,0.147465,-0.099124,1.403809,-1.647949,-1.525879,0,0
12944,2024 10 19,05:25:57.854,-0.13549,0.6436,0.181153,0.731167,-0.925321,0.142094,-0.10596,1.831055,-1.647949,-1.403809,0,0
12945,2024 10 19,05:25:57.862,-0.135725,0.643543,0.181245,0.731151,-0.924345,0.146977,-0.110355,2.685547,-0.366211,-1.525879,0,0
12946,2024 10 19,05:25:57.870,-0.135725,0.643543,0.181245,0.731151,-0.924345,0.146977,-0.110355,2.685547,-0.366211,-1.525879,0,0
12947,2024 10 19,05:25:57.879,-0.136014,0.643551,0.181378,0.731057,-0.936064,0.158696,-0.104495,3.417969,0.732422,-2.075195,0,0
12948,2024 10 19,05:25:57.887,-0.136354,0.643602,0.181495,0.73092,-0.934599,0.152837,-0.098636,3.662109,0.976563,-2.807617,0,0
12949,2024 10 19,05:25:57.895,-0.136757,0.643684,0.181612,0.730743,-0.938017,0.149419,-0.102542,3.967285,1.525879,-3.356934,0,0
12950,2024 10 19,05:25:57.904,-0.137229,0.643769,0.181734,0.73055,-0.931669,0.15186,-0.103519,4.760742,1.342773,-4.02832,0,0
12951,2024 10 19,05:25:57.912,-0.13772,0.643859,0.181854,0.730348,-0.925321,0.148442,-0.106937,4.821777,1.525879,-4.02832,0,0
12952,2024 10 19,05:25:57.920,-0.13772,0.643859,0.181854,0.730348,-0.925321,0.148442,-0.106937,4.821777,1.525879,-4.02832,0,0
12953,2024 10 19,05:25:57.929,-0.13822,0.64396,0.181985,0.730132,-0.925321,0.149907,-0.104007,4.882813,1.831055,-4.02832,0,0
12954,2024 10 19,05:25:57.937,-0.138697,0.644083,0.182104,0.729903,-0.938994,0.145512,-0.101566,4.638672,1.953125,-4.02832,0,0
12955,2024 10 19,05:25:57.945,-0.139155,0.644167,0.182206,0.729716,-0.926298,0.149419,-0.108402,4.150391,1.342773,-3.78418,0,0
12956,2024 10 19,05:25:57.954,-0.139555,0.644256,0.182273,0.729545,-0.93997,0.145024,-0.100101,3.479004,1.403809,-3.540039,0,0
12957,2024 10 19,05:25:57.962,-0.139953,0.644332,0.182314,0.729391,-0.943388,0.149419,-0.093265,3.295898,0.915527,-3.723145,0,0
12958,2024 10 19,05:25:57.970,-0.139953,0.644332,0.182314,0.729391,-0.943388,0.149419,-0.093265,3.295898,0.915527,-3.723145,0,0
12959,2024 10 19,05:25:57.979,-0.140385,0.644383,0.182334,0.729258,-0.952178,0.14893,-0.087893,3.356934,0.305176,-4.272461,0,0
12960,2024 10 19,05:25:57.987,-0.140877,0.644369,0.182282,0.729189,-0.943388,0.144047,-0.10303,3.234863,-1.037598,-5.065918,0,0
12961,2024 10 19,05:25:57.995,-0.141442,0.64436,0.182207,0.729106,-0.940458,0.155766,-0.095218,3.90625,-0.244141,-6.04248,0,0
12962,2024 10 19,05:25:58.004,-0.142042,0.644392,0.182069,0.728995,-0.948271,0.159185,-0.089358,3.234863,-0.671387,-6.835938,0,0
12963,2024 10 19,05:25:58.012,-0.142635,0.644464,0.181793,0.728885,-0.960479,0.150884,-0.093753,1.647949,-0.183105,-8.056641,0,0
12964,2024 10 19,05:25:58.020,-0.142635,0.644464,0.181793,0.728885,-0.960479,0.150884,-0.093753,1.647949,-0.183105,-8.056641,0,0
12965,2024 10 19,05:25:58.029,-0.143237,0.644531,0.181388,0.728808,-0.949248,0.15479,-0.105472,0.488281,-0.671387,-8.911133,0,0
12966,2024 10 19,05:25:58.037,-0.143815,0.644721,0.180836,0.728664,-0.956084,0.148442,-0.075686,-0.610352,1.159668,-10.375977,0,0
12967,2024 10 19,05:25:58.045,-0.144455,0.64498,0.180183,0.728469,-0.943388,0.146489,-0.101077,-0.793457,1.098633,-11.71875,0,0
12968,2024 10 19,05:25:58.054,-0.145158,0.645379,0.179475,0.728151,-0.944853,0.143071,-0.084964,-0.671387,4.333496,-13.183594,0,0
12969,2024 10 19,05:25:58.062,-0.14592,0.646017,0.178734,0.727615,-0.964385,0.165044,-0.118656,-0.854492,6.896973,-15.014648,0,0
12970,2024 10 19,05:25:58.070,-0.14592,0.646017,0.178734,0.727615,-0.964385,0.165044,-0.118656,-0.854492,6.896973,-15.014648,0,0
12971,2024 10 19,05:25:58.079,-0.146706,0.646774,0.177731,0.72703,-0.970733,0.182134,-0.101077,-3.479004,8.056641,-17.700195,0,0
12972,2024 10 19,05:25:58.087,-0.147426,0.647898,0.176309,0.726229,-1.001495,0.219733,-0.115238,-7.568359,13.244629,-22.216797,0,0
12973,2024 10 19,05:25:58.095,-0.148201,0.649565,0.174262,0.725076,-1.061556,0.203619,-0.093753,-13.305664,18.676758,-29.724121,0,0
12974,2024 10 19,05:25:58.104,-0.149798,0.652096,0.171645,0.723097,-1.147984,0.254402,-0.17774,-10.131836,31.188965,-46.630859,0,0
12975,2024 10 19,05:25:58.112,-0.152732,0.655146,0.168117,0.72055,-1.15482,0.242683,-0.094729,-4.638672,33.935547,-67.871094,0,0
12976,2024 10 19,05:25:58.120,-0.156961,0.658862,0.163764,0.717249,-1.346233,0.292489,-0.158208,-2.624512,43.212891,-86.120605,0,0
12977,2024 10 19,05:25:58.129,-0.156961,0.658862,0.163764,0.717249,-1.346233,0.292489,-0.158208,-2.624512,43.212891,-86.120605,0,0
12978,2024 10 19,05:25:58.137,-0.162231,0.66275,0.158155,0.713744,-1.446821,0.181646,0.010743,-10.742188,35.217285,-104.614258,0,0
12979,2024 10 19,05:25:58.145,-0.168566,0.666689,0.1515,0.710041,-1.482467,0.306162,-0.110355,-8.422852,35.400391,-121.398926,0,0
12980,2024 10 19,05:25:58.154,-0.175454,0.670082,0.143434,0.706847,-1.44731,0.31251,-0.102542,-11.535645,22.888184,-135.620117,0,0
12981,2024 10 19,05:25:58.162,-0.183297,0.673527,0.134486,0.703333,-1.26957,0.164556,-0.092288,-13.000488,24.780273,-150.146484,0,0
12982,2024 10 19,05:25:58.170,-0.191833,0.677167,0.125344,0.699238,-1.068392,0.073244,0.049806,-9.033203,30.456543,-155.639648,0,1
12983,2024 10 19,05:25:58.179,-0.191833,0.677167,0.125344,0.699238,-1.068392,0.073244,0.049806,-9.033203,30.456543,-155.639648,0,0
12984,2024 10 19,05:25:58.187,-0.20092,0.681269,0.117103,0.694111,-0.773949,-0.073244,0.292001,8.300781,45.898438,-153.015137,0,0
12985,2024 10 19,05:25:58.195,-0.210739,0.686486,0.111396,0.686963,-0.586444,-0.226081,0.491226,37.658691,78.430176,-142.211914,0,0
12986,2024 10 19,05:25:58.204,-0.221667,0.693036,0.109627,0.677161,-0.569353,0.076662,0.541032,78.491211,116.149902,-127.319336,0,0
12987,2024 10 19,05:25:58.212,-0.233048,0.698908,0.112647,0.666728,-0.957549,1.088412,0.22071,118.652344,113.464355,-87.341309,0,0
12988,2024 10 19,05:25:58.220,-0.240643,0.699354,0.118146,0.662598,-1.190954,1.115268,0.004883,101.928711,10.681152,-14.953613,0,0
12989,2024 10 19,05:25:58.229,-0.240643,0.699354,0.118146,0.662598,-1.190954,1.115268,0.004883,101.928711,10.681152,-14.953613,0,0
12990,2024 10 19,05:25:58.237,-0.245391,0.693837,0.124728,0.665444,-0.520035,1.245643,0.092776,105.041504,-66.894531,36.071777,0,0
12991,2024 10 19,05:25:58.245,-0.24887,0.686479,0.133523,0.670062,0.047853,0.888211,0.61916,111.572266,-69.885254,66.772461,0,0
12992,2024 10 19,05:25:58.254,-0.251538,0.681091,0.144737,0.672231,-0.095218,0.89114,0.3755,120.361328,-23.071289,80.26123,0,0
12993,2024 10 19,05:25:58.262,-0.253747,0.676502,0.157299,0.673213,-0.217292,1.021516,0.411634,126.708984,-9.70459,89.233398,0,0
12994,2024 10 19,05:25:58.270,-0.254371,0.672611,0.170988,0.673537,-0.371593,0.968291,0.201666,118.652344,7.8125,108.947754,0,0
12995,2024 10 19,05:25:58.279,-0.254371,0.672611,0.170988,0.673537,-0.371593,0.968291,0.201666,118.652344,7.8125,108.947754,0,0
12996,2024 10 19,05:25:58.287,-0.253317,0.668686,0.185096,0.674113,-0.457533,0.750511,0.265145,108.825684,7.69043,124.328613,0,0
12997,2024 10 19,05:25:58.295,-0.251343,0.665348,0.199574,0.674024,-0.572283,0.522965,0.202155,106.384277,24.169922,130.065918,0,0
12998,2024 10 19,05:25:58.304,-0.249233,0.662407,0.214476,0.673127,-0.712912,0.296396,0.218757,111.328125,32.409668,131.896973,0,0
12999,2024 10 19,05:25:58.312,-0.247427,0.659543,0.23025,0.671393,-0.881863,0.097171,0.1377,123.779297,41.564941,135.314941,0,0
13000,2024 10 19,05:25:58.320,-0.246359,0.656132,0.247096,0.669135,-1.001984,-0.070315,0.093753,141.967773,39.611816,138.549805,0,0
13001,2024 10 19,05:25:58.329,-0.246359,0.656132,0.247096,0.669135,-1.001984,-0.070315,0.093753,141.967773,39.611816,138.549805,0,0
13002,2024 10 19,05:25:58.337,-0.24637,0.651911,0.264955,0.666417,-1.055696,-0.228523,0.016114,161.560059,37.658691,139.038086,0,0
13003,2024 10 19,05:25:58.345,-0.247757,0.646994,0.283468,0.663069,-1.04886,-0.425794,-0.036134,180.480957,34.851074,133.178711,0,0
13004,2024 10 19,05:25:58.353,-0.250712,0.641795,0.30229,0.658683,-1.115268,-0.568377,-0.097659,198.120117,38.330078,121.154785,0,0
13005,2024 10 19,05:25:58.362,-0.255265,0.636458,0.320848,0.653312,-1.224158,-0.61623,-0.202643,209.838867,35.888672,104.492188,0,0
13006,2024 10 19,05:25:58.370,-0.260464,0.631808,0.338132,0.647027,-8.996368,-1.789605,1.076205,195.617676,58.044434,84.838867,0,0
13007,2024 10 19,05:25:58.378,-0.260464,0.631808,0.338132,0.647027,-8.996368,-1.789605,1.076205,195.617676,58.044434,84.838867,0,0
13008,2024 10 19,05:25:58.387,-0.279899,0.622529,0.349781,0.641691,-0.277841,-0.587909,-2.884854,270.385742,-258.239746,-67.871094,1,0
13009,2024 10 19,05:25:58.395,-0.301871,0.599514,0.346355,0.655358,-0.481948,-1.831599,-0.206549,247.436523,-230.102539,-57.495117,0,0
13010,2024 10 19,05:25:58.403,-0.321408,0.586299,0.348822,0.656714,-0.792016,-0.886746,-3.161229,140.869141,-234.985352,-55.236816,0,0
13011,2024 10 19,05:25:58.412,-0.336367,0.570533,0.349138,0.662912,0.535661,1.286172,-1.256386,60.058594,-141.296387,2.807617,0,0
13012,2024 10 19,05:25:58.420,-0.333445,0.570568,0.349943,0.663933,-0.909696,-0.071779,-0.178716,-20.629883,15.319824,30.761719,0,0
13013,2024 10 19,05:25:58.428,-0.333445,0.570568,0.349943,0.663933,-0.909696,-0.07178,-0.178716,-20.629883,15.319824,30.761719,0,0
13014,2024 10 19,05:25:58.437,-0.332491,0.570424,0.350888,0.664036,-0.686544,0.242683,-0.632344,-3.112793,13.793945,5.737305,0,0
13015,2024 10 19,05:25:58.445,-0.332388,0.571362,0.351617,0.662894,-1.221717,0.443373,0.562029,15.258789,21.057129,-5.249023,0,0
13016,2024 10 19,05:25:58.453,-0.330473,0.572783,0.350711,0.663106,-1.385785,-0.068361,0.076662,-38.024902,0.244141,4.821777,0,0
13017,2024 10 19,05:25:58.462,-0.330501,0.571257,0.348821,0.665401,-0.729514,0.095706,-0.093753,-9.277344,-37.414551,2.075195,0,0
13018,2024 10 19,05:25:58.470,-0.330595,0.570891,0.348629,0.665769,-1.024934,0.188971,-0.116214,-0.854492,1.403809,0.12207,0,0
13019,2024 10 19,05:25:58.478,-0.330595,0.570891,0.348629,0.665769,-1.024934,0.188971,-0.116214,-0.854492,1.403809,0.12207,0,0
13020,2024 10 19,05:25:58.487,-0.330913,0.570222,0.34804,0.666492,-0.896512,0.100589,-0.053224,-1.098633,-17.822266,-1.77002,0,0
13021,2024 10 19,05:25:58.495,-0.331308,0.569902,0.348033,0.666573,-1.011261,0.15479,-0.098148,2.990723,-0.244141,-1.403809,0,0
13022,2024 10 19,05:25:58.503,-0.331689,0.569425,0.3478,0.666913,-0.917508,0.167974,-0.096683,0.305176,-11.71875,-1.708984,0,0
13023,2024 10 19,05:25:58.512,-0.331813,0.569149,0.347466,0.667261,-0.878933,0.148442,-0.190435,-2.746582,-2.624512,-0.732422,0,0
13024,2024 10 19,05:25:58.520,-0.331626,0.569243,0.347273,0.667374,-0.91995,0.158696,-0.109378,-3.845215,0.732422,0.183105,0,0
13025,2024 10 19,05:25:58.528,-0.331262,0.569553,0.347146,0.667356,-0.936064,0.126469,-0.118656,-4.394531,4.516602,0.244141,0,0
13026,2024 10 19,05:25:58.537,-0.331262,0.569553,0.347146,0.667356,-0.936064,0.126469,-0.118656,-4.394531,4.516602,0.244141,0,0
13027,2024 10 19,05:25:58.545,-0.331095,0.569833,0.347206,0.66717,-0.953154,0.116703,-0.07178,0.244141,4.211426,-0.549316,0,0
13028,2024 10 19,05:25:58.553,-0.331215,0.569989,0.347497,0.666824,-0.965361,0.140629,-0.078127,4.516602,3.78418,-1.342773,0,0
13029,2024 10 19,05:25:58.562,-0.331548,0.570004,0.347792,0.666492,-0.950713,0.147954,-0.090335,5.737305,1.464844,-2.380371,0,0
13030,2024 10 19,05:25:58.570,-0.331942,0.569982,0.348041,0.666185,-0.938994,0.15772,-0.116703,5.371094,1.220703,-2.807617,0,0
13031,2024 10 19,05:25:58.578,-0.332284,0.570028,0.348177,0.665904,-0.943388,0.162603,-0.106449,3.479004,1.647949,-3.540039,0,0
13032,2024 10 19,05:25:58.587,-0.332284,0.570028,0.348177,0.665904,-0.943388,0.162603,-0.106449,3.479004,1.647949,-3.540039,0,0
13033,2024 10 19,05:25:58.595,-0.332564,0.570161,0.348186,0.665645,-0.939482,0.146977,-0.106937,2.01416,1.708984,-4.089355,0,0
13034,2024 10 19,05:25:58.603,-0.332861,0.570321,0.3482,0.665353,-0.949736,0.144047,-0.102054,2.624512,2.258301,-4.272461,0,0
13035,2024 10 19,05:25:58.612,-0.333198,0.57049,0.348203,0.665037,-0.96585,0.147954,-0.081545,2.685547,1.77002,-4.821777,0,0
13036,2024 10 19,05:25:58.620,-0.333581,0.570566,0.348129,0.664819,-0.953154,0.144536,-0.092776,2.380371,-0.366211,-4.821777,0,0
13037,2024 10 19,05:25:58.628,-0.333983,0.570563,0.347996,0.664689,-0.954619,0.142582,-0.097659,2.01416,-1.525879,-4.699707,0,0
13038,2024 10 19,05:25:58.637,-0.333983,0.570563,0.347996,0.664689,-0.954619,0.142582,-0.097659,2.01416,-1.525879,-4.699707,0,0
13039,2024 10 19,05:25:58.645,-0.334396,0.570487,0.347772,0.664664,-0.949736,0.144536,-0.090335,1.098633,-3.417969,-4.699707,0,0
13040,2024 10 19,05:25:58.653,-0.334775,0.570385,0.347445,0.664732,-0.935575,0.142582,-0.109378,-0.366211,-4.02832,-4.577637,0,0
13041,2024 10 19,05:25:58.662,-0.335088,0.570288,0.347097,0.664839,-0.922391,0.134281,-0.106937,-0.793457,-3.479004,-4.02832,0,0
13042,2024 10 19,05:25:58.670,-0.335341,0.570233,0.346805,0.664911,-0.921415,0.130375,-0.112308,-0.427246,-2.685547,-3.479004,0,0
13043,2024 10 19,05:25:58.678,-0.335577,0.570199,0.346599,0.664929,-0.934599,0.133793,-0.102542,0.061035,-1.77002,-3.051758,0,0
13044,2024 10 19,05:25:58.687,-0.335577,0.570199,0.346599,0.664929,-0.934599,0.133793,-0.102542,0.061035,-1.77002,-3.051758,0,0
13045,2024 10 19,05:25:58.695,-0.335818,0.570164,0.346458,0.664911,-0.932646,0.133793,-0.111332,0.732422,-1.647949,-2.868652,0,0
13046,2024 10 19,05:25:58.703,-0.336071,0.570128,0.346356,0.664867,-0.931669,0.13184,-0.101077,1.403809,-1.037598,-2.807617,0,0
13047,2024 10 19,05:25:58.712,-0.336299,0.570118,0.346322,0.664778,-0.930204,0.13184,-0.117191,1.525879,-0.427246,-2.441406,0,0
13048,2024 10 19,05:25:58.720,-0.336521,0.570102,0.346318,0.664681,-0.932646,0.134281,-0.111332,1.77002,-0.0,-2.197266,0,0
13049,2024 10 19,05:25:58.728,-0.336724,0.570108,0.346338,0.664563,-0.941923,0.140141,-0.10596,1.708984,-0.0,-2.13623,0,0
13050,2024 10 19,05:25:58.737,-0.336724,0.570108,0.346338,0.664563,-0.941923,0.140141,-0.10596,1.708984,-0.0,-2.13623,0,0
13051,2024 10 19,05:25:58.745,-0.336917,0.570095,0.346313,0.66449,-0.938505,0.138188,-0.104007,1.342773,-0.427246,-2.13623,0,0
13052,2024 10 19,05:25:58.753,-0.337109,0.570068,0.346253,0.664446,-0.940947,0.137211,-0.099612,0.915527,-0.976563,-2.197266,0,0
13053,2024 10 19,05:25:58.762,-0.3373,0.570019,0.346169,0.664435,-0.93704,0.136235,-0.104007,0.671387,-1.586914,-2.197266,0,0
13054,2024 10 19,05:25:58.770,-0.337508,0.569932,0.346057,0.664462,-0.929228,0.130375,-0.105472,0.854492,-2.13623,-2.075195,0,0
13055,2024 10 19,05:25:58.778,-0.337738,0.569828,0.345991,0.664469,-0.92581,0.130863,-0.109378,1.403809,-1.708984,-2.01416,0,0
13056,2024 10 19,05:25:58.787,-0.337738,0.569828,0.345991,0.664469,-0.92581,0.130863,-0.109378,1.403809,-1.708984,-2.01416,0,0
13057,2024 10 19,05:25:58.795,-0.337966,0.569766,0.345967,0.664419,-0.93704,0.133793,-0.108402,1.647949,-1.037598,-2.13623,0,0
13058,2024 10 19,05:25:58.803,-0.338225,0.569684,0.345956,0.664363,-0.934599,0.13477,-0.110355,2.258301,-1.159668,-2.258301,0,0
13059,2024 10 19,05:25:58.812,-0.33851,0.569642,0.345977,0.664243,-0.93997,0.136235,-0.104984,2.685547,-0.305176,-2.685547,0,0
13060,2024 10 19,05:25:58.820,-0.338833,0.569616,0.345984,0.664096,-0.93704,0.136235,-0.104007,2.807617,-0.488281,-3.356934,0,0
13061,2024 10 19,05:25:58.828,-0.33917,0.569625,0.345954,0.663934,-0.947783,0.142094,-0.099612,2.380371,-0.183105,-3.90625,0,0
13062,2024 10 19,05:25:58.837,-0.33917,0.569625,0.345954,0.663934,-0.947783,0.142094,-0.099612,2.380371,-0.183105,-3.90625,0,0
13063,2024 10 19,05:25:58.845,-0.339524,0.569682,0.345846,0.663759,-0.951201,0.144536,-0.104984,1.647949,-0.183105,-4.882813,0,0
13064,2024 10 19,05:25:58.853,-0.339881,0.569803,0.345646,0.663577,-0.948271,0.145024,-0.101077,0.488281,0.12207,-5.79834,0,0
13065,2024 10 19,05:25:58.862,-0.340198,0.570072,0.345321,0.663352,-0.958525,0.159185,-0.102054,-1.281738,1.525879,-7.141113,0,0
13066,2024 10 19,05:25:58.870,-0.340414,0.570545,0.344822,0.663095,-0.970733,0.161626,-0.095218,-3.723145,2.746582,-8.728027,0,0
13067,2024 10 19,05:25:58.878,-0.340582,0.571183,0.344104,0.662832,-0.953154,0.154302,-0.112308,-6.835938,3.356934,-10.375977,0,0
13068,2024 10 19,05:25:58.887,-0.340582,0.571183,0.344104,0.662832,-0.953154,0.154302,-0.112308,-6.835938,3.356934,-10.375977,0,0
13069,2024 10 19,05:25:58.895,-0.340638,0.572158,0.343218,0.662422,-0.96585,0.152837,-0.093265,-9.460449,7.69043,-12.634277,0,0
13070,2024 10 19,05:25:58.903,-0.340648,0.573383,0.342125,0.661922,-0.969756,0.155278,-0.111332,-11.657715,8.300781,-15.075684,0,0
13071,2024 10 19,05:25:58.912,-0.340675,0.574884,0.34075,0.661316,-0.987823,0.185553,-0.113773,-14.770508,11.047363,-19.165039,0,0
13072,2024 10 19,05:25:58.920,-0.340684,0.577057,0.339071,0.66028,-1.042512,0.194342,-0.116214,-18.371582,19.104004,-26.489258,0,0
13073,2024 10 19,05:25:58.928,-0.341127,0.580108,0.337037,0.658417,-1.113804,0.222175,-0.135746,-17.456055,27.648926,-40.222168,0,0
13074,2024 10 19,05:25:58.937,-0.342369,0.584004,0.334381,0.655677,-1.173376,0.217292,-0.154302,-17.39502,33.874512,-58.71582,0,0
13075,2024 10 19,05:25:58.945,-0.342369,0.584004,0.334381,0.655677,-1.173376,0.217292,-0.154302,-17.39502,33.874512,-58.71582,0,0
13076,2024 10 19,05:25:58.953,-0.344853,0.588722,0.331093,0.651813,-1.401898,0.278329,-0.116214,-8.178711,42.175293,-80.322266,0,0
13077,2024 10 19,05:25:58.962,-0.348945,0.593756,0.326909,0.647164,-1.523972,0.224128,-0.121097,-6.713867,32.958984,-102.416992,0,0
13078,2024 10 19,05:25:58.970,-0.354558,0.598386,0.321537,0.642523,-1.40141,0.205084,-0.104984,-6.774902,19.104004,-119.262695,0,0
13079,2024 10 19,05:25:58.978,-0.361043,0.603031,0.315107,0.637738,-1.320353,0.22364,0.023438,-1.708984,20.141602,-132.873535,0,0
13080,2024 10 19,05:25:58.987,-0.367917,0.608228,0.308363,0.632146,-1.365276,0.152348,-0.062014,-3.234863,21.057129,-142.76123,0,0
13081,2024 10 19,05:25:58.995,-0.367917,0.608228,0.308363,0.632146,-1.365276,0.152348,-0.062014,-3.234863,21.057129,-142.76123,0,0
13082,2024 10 19,05:25:59.003,-0.375654,0.612962,0.300768,0.626658,-1.164098,0.057619,0.046388,-1.525879,12.939453,-151.977539,0,0
13083,2024 10 19,05:25:59.012,-0.383646,0.618101,0.293669,0.620101,-0.984893,-0.053224,0.235847,10.437012,28.625488,-153.930664,0,1
13084,2024 10 19,05:25:59.020,-0.392097,0.623485,0.288407,0.611839,-0.820826,-0.19776,0.585955,33.630371,49.926758,-149.780273,0,0
13085,2024 10 19,05:25:59.028,-0.400816,0.629212,0.286809,0.600982,-0.916532,-0.078616,0.541032,69.885254,85.693359,-137.329102,0,0
13086,2024 10 19,05:25:59.037,-0.41081,0.632678,0.289259,0.589307,-1.24369,0.868191,0.56447,122.98584,77.514648,-106.445313,0,0
13087,2024 10 19,05:25:59.045,-0.41081,0.632678,0.289259,0.589307,-1.24369,0.868191,0.56447,122.98584,77.514648,-106.445313,0,0
13088,2024 10 19,05:25:59.053,-0.419435,0.630379,0.293135,0.583754,-1.331095,0.850124,-0.038087,120.300293,-14.770508,-39.428711,0,0
13089,2024 10 19,05:25:59.062,-0.429029,0.621888,0.297359,0.583753,-0.472182,0.841823,0.566912,143.432617,-76.782227,-1.647949,0,0
13090,2024 10 19,05:25:59.070,-0.437575,0.613048,0.304853,0.582894,-0.278329,0.672384,0.568377,162.04834,-37.719727,21.972656,0,0
13091,2024 10 19,05:25:59.078,-0.445901,0.604118,0.314261,0.580908,-0.334483,0.755394,0.597186,176.818848,-30.212402,28.930664,0,0
13092,2024 10 19,05:25:59.087,-0.453849,0.595247,0.32516,0.577905,-0.414563,0.912137,0.428724,185.119629,-8.728027,37.536621,0,0
13093,2024 10 19,05:25:59.095,-0.453849,0.595247,0.32516,0.577905,-0.414563,0.912137,0.428724,185.119629,-8.728027,37.536621,0,0
13094,2024 10 19,05:25:59.103,-0.460647,0.586006,0.336766,0.575317,-0.459487,0.940947,0.394543,178.588867,-13.549805,54.077148,0,0
13095,2024 10 19,05:25:59.112,-0.466121,0.576553,0.348476,0.573483,-0.413099,0.872585,0.351573,168.334961,-8.728027,66.894531,0,0
13096,2024 10 19,05:25:59.120,-0.470214,0.567712,0.360441,0.571563,-0.407239,0.784692,0.344737,157.714844,2.990723,74.035645,0,0
13097,2024 10 19,05:25:59.128,-0.472905,0.559747,0.372796,0.569269,-0.435072,0.744652,0.287118,148.132324,21.484375,80.566406,0,0
13098,2024 10 19,05:25:59.137,-0.474042,0.552751,0.385651,0.56659,-0.529313,0.706076,0.204108,137.390137,38.635254,88.195801,0,0
13099,2024 10 19,05:25:59.145,-0.474042,0.552751,0.385651,0.56659,-0.529313,0.706076,0.204108,137.390137,38.635254,88.195801,0,0
13100,2024 10 19,05:25:59.153,-0.473677,0.546591,0.398838,0.563734,-0.630879,0.652364,0.112308,126.281738,53.833008,95.275879,0,0
13101,2024 10 19,05:25:59.162,-0.47202,0.541123,0.412111,0.560846,-0.726585,0.559587,0.050295,115.356445,64.147949,100.830078,0,0
13102,2024 10 19,05:25:59.170,-0.469337,0.5362,0.425435,0.557868,-0.827174,0.44142,-0.007324,107.849121,73.242188,104.919434,0,0
13103,2024 10 19,05:25:59.178,-0.466022,0.531511,0.438827,0.554752,-0.920438,0.301767,-0.083499,105.041504,78.430176,107.971191,0,0
13104,2024 10 19,05:25:59.187,-0.462658,0.526608,0.452329,0.551389,-1.024445,0.101566,-0.104007,109.924316,78.063965,109.313965,0,0
13105,2024 10 19,05:25:59.195,-0.462658,0.526608,0.452329,0.551389,-1.024445,0.101566,-0.104007,109.924316,78.063965,109.313965,0,0
13106,2024 10 19,05:25:59.203,-0.459855,0.521018,0.46596,0.547681,-1.114292,-0.096194,-0.17481,121.337891,72.753906,109.008789,0,0
13107,2024 10 19,05:25:59.212,-0.458195,0.514415,0.479627,0.5435,-1.179724,-0.230964,-0.201666,137.084961,62.316895,104.980469,0,0
13108,2024 10 19,05:25:59.220,-0.457975,0.506756,0.493124,0.538782,-1.197791,-0.308115,-0.233406,152.770996,50.415039,98.205566,0,0
13109,2024 10 19,05:25:59.228,-0.459138,0.498327,0.506118,0.533579,-1.218787,-0.349132,-0.274422,162.536621,37.963867,88.07373,0,0
13110,2024 10 19,05:25:59.237,-0.461478,0.489649,0.518091,0.528075,-1.147496,-0.389172,-0.307627,164.123535,27.282715,74.523926,0,0
13111,2024 10 19,05:25:59.245,-0.461478,0.489649,0.518091,0.528075,-1.147496,-0.389172,-0.307627,164.123535,27.282715,74.523926,0,0
13112,2024 10 19,05:25:59.253,-0.464387,0.481561,0.528966,0.522149,-1.03177,-0.407727,-0.324229,157.958984,27.038574,58.71582,0,0
13113,2024 10 19,05:25:59.262,-0.467274,0.475029,0.538512,0.515759,-0.978057,-0.455092,-0.389172,142.333984,33.26416,38.269043,0,0
13114,2024 10 19,05:25:59.270,-0.470479,0.473983,0.550275,0.501186,-2.675863,0.701193,-5.336589,232.36084,157.653809,-61.828613,0,0
13115,2024 10 19,05:25:59.278,-0.491419,0.459297,0.531451,0.514891,-2.086489,-3.345805,2.003479,-40.039063,-452.636719,-39.550781,0,0
13116,2024 10 19,05:25:59.287,-0.504757,0.454367,0.524527,0.513461,-1.806696,-2.380444,-4.409802,-18.737793,-129.577637,-68.847656,1,0
13117,2024 10 19,05:25:59.295,-0.504757,0.454367,0.524527,0.513461,-1.806696,-2.380444,-4.409802,-18.737793,-129.577637,-68.847656,0,0
13118,2024 10 19,05:25:59.303,-0.524257,0.440706,0.505885,0.524417,2.758873,-0.691427,-1.304239,66.28418,-387.145996,-35.339355,0,0
13119,2024 10 19,05:25:59.312,-0.528347,0.435295,0.507455,0.523314,0.099612,0.59328,-1.645558,93.261719,105.773926,14.709473,0,0
13120,2024 10 19,05:25:59.320,-0.524004,0.43646,0.513218,0.521085,-1.650929,0.497085,1.173375,9.094238,60.241699,25.756836,0,0
13121,2024 10 19,05:25:59.328,-0.52175,0.437942,0.514079,0.521254,-0.991729,-0.040529,-0.840358,-29.724121,9.521484,6.958008,0,0
13122,2024 10 19,05:25:59.337,-0.521521,0.438117,0.514539,0.520882,-1.423872,0.371593,1.120151,9.521484,13.305664,1.037598,0,0
13123,2024 10 19,05:25:59.345,-0.520128,0.438946,0.513944,0.522164,-1.009308,0.056154,-0.572283,-24.536133,-14.709473,7.080078,0,0
13124,2024 10 19,05:25:59.353,-0.520128,0.438946,0.513944,0.522164,-1.009308,0.056154,-0.572283,-24.536133,-14.709473,7.080078,0,0
13125,2024 10 19,05:25:59.362,-0.520823,0.438315,0.512388,0.523528,-0.913114,0.183111,0.187017,-9.399414,-13.000488,-2.563477,0,0
13126,2024 10 19,05:25:59.370,-0.520871,0.438888,0.511717,0.523656,-0.959502,0.096683,-0.286142,-8.972168,-6.958008,-7.263184,0,0
13127,2024 10 19,05:25:59.378,-0.521434,0.438925,0.510917,0.523846,-0.947295,0.120609,0.058107,1.525879,-2.319336,-6.591797,0,0
13128,2024 10 19,05:25:59.387,-0.521858,0.439056,0.510746,0.523482,-1.001495,0.138676,-0.095706,0.793457,-6.347656,-6.591797,0,0
13129,2024 10 19,05:25:59.395,-0.522533,0.438862,0.510051,0.523648,-0.829615,0.126469,-0.179205,-0.732422,-6.896973,-5.249023,0,0
13130,2024 10 19,05:25:59.403,-0.522533,0.438862,0.510051,0.523648,-0.829615,0.126469,-0.179205,-0.732422,-6.896973,-5.249023,0,0
13131,2024 10 19,05:25:59.412,-0.522677,0.439037,0.509882,0.523522,-0.894559,0.139164,-0.121097,-0.610352,1.220703,-3.234863,0,0
13132,2024 10 19,05:25:59.420,-0.522499,0.439393,0.509972,0.523314,-0.916532,0.120609,-0.111332,-1.647949,6.530762,-1.831055,0,0
13133,2024 10 19,05:25:59.428,-0.522307,0.439794,0.510217,0.52293,-0.95999,0.107913,-0.048341,1.342773,6.774902,-2.502441,0,0
13134,2024 10 19,05:25:59.437,-0.522345,0.440008,0.510632,0.522306,-0.996124,0.119144,-0.041017,5.859375,5.92041,-3.479004,0,0
13135,2024 10 19,05:25:59.445,-0.522701,0.43997,0.510975,0.521645,-0.974151,0.144536,-0.052248,8.300781,2.13623,-4.699707,0,0
13136,2024 10 19,05:25:59.453,-0.522701,0.43997,0.510975,0.521645,-0.974151,0.144536,-0.052248,8.300781,2.13623,-4.699707,0,0
13137,2024 10 19,05:25:59.462,-0.523199,0.439897,0.511164,0.521023,-0.981964,0.159185,-0.06885,6.835938,0.183105,-6.04248,0,0
13138,2024 10 19,05:25:59.470,-0.523742,0.439876,0.511042,0.520614,-0.934111,0.146977,-0.106937,3.479004,-2.258301,-6.713867,0,0
13139,2024 10 19,05:25:59.478,-0.524186,0.439975,0.510817,0.520306,-0.938994,0.139653,-0.090335,1.708984,-1.342773,-6.469727,0,0
13140,2024 10 19,05:25:59.487,-0.524526,0.440148,0.510543,0.520084,-0.953154,0.126469,-0.081545,0.0,-1.647949,-6.04248,0,0
13141,2024 10 19,05:25:59.495,-0.524904,0.440276,0.510198,0.519933,-0.948759,0.121586,-0.086428,-0.183105,-2.929688,-5.92041,0,0
13142,2024 10 19,05:25:59.503,-0.524904,0.440276,0.510198,0.519933,-0.948759,0.121586,-0.086428,-0.183105,-2.929688,-5.92041,0,0
13143,2024 10 19,05:25:59.512,-0.525311,0.440341,0.509841,0.519817,-0.936552,0.122562,-0.08301,0.244141,-3.662109,-5.432129,0,0
13144,2024 10 19,05:25:59.520,-0.525713,0.440359,0.509513,0.519717,-0.9429,0.122562,-0.087405,0.671387,-3.723145,-4.882813,0,0
13145,2024 10 19,05:25:59.528,-0.526119,0.44032,0.50921,0.519637,-0.935575,0.119633,-0.093265,0.915527,-4.02832,-4.333496,0,0
13146,2024 10 19,05:25:59.537,-0.526494,0.440276,0.508927,0.519571,-0.929716,0.122074,-0.098148,0.671387,-3.601074,-4.02832,0,0
13147,2024 10 19,05:25:59.545,-0.526807,0.440248,0.508713,0.519486,-0.92581,0.121586,-0.109378,0.915527,-2.319336,-3.479004,0,0
13148,2024 10 19,05:25:59.553,-0.526807,0.440248,0.508713,0.519486,-0.92581,0.121586,-0.109378,0.915527,-2.319336,-3.479004,0,0
13149,2024 10 19,05:25:59.562,-0.527045,0.440253,0.5086,0.519353,-0.931181,0.122562,-0.091311,1.464844,-0.915527,-3.112793,0,0
13150,2024 10 19,05:25:59.570,-0.52725,0.440266,0.508566,0.519167,-0.928739,0.112308,-0.096683,1.77002,-0.183105,-2.868652,0,0
13151,2024 10 19,05:25:59.578,-0.527469,0.440247,0.508604,0.518924,-0.93704,0.121586,-0.088382,2.807617,0.305176,-2.685547,0,0
13152,2024 10 19,05:25:59.587,-0.527699,0.440209,0.508674,0.518653,-0.936552,0.121586,-0.0918,3.479004,0.305176,-2.746582,0,0
13153,2024 10 19,05:25:59.595,-0.527936,0.440148,0.50877,0.518369,-0.935087,0.121586,-0.090823,3.662109,0.305176,-2.502441,0,0
13154,2024 10 19,05:25:59.603,-0.527936,0.440148,0.50877,0.518369,-0.935087,0.121586,-0.090823,3.662109,0.305176,-2.502441,0,0
13155,2024 10 19,05:25:59.612,-0.52818,0.440078,0.508866,0.518085,-0.936552,0.123539,-0.094241,3.601074,0.183105,-2.563477,0,0
13156,2024 10 19,05:25:59.620,-0.528424,0.44001,0.508928,0.517833,-0.93704,0.118656,-0.092288,3.356934,-0.12207,-2.563477,0,0
13157,2024 10 19,05:25:59.628,-0.528672,0.43993,0.50899,0.517587,-0.934111,0.118168,-0.097171,3.540039,-0.305176,-2.380371,0,0
13158,2024 10 19,05:25:59.637,-0.528934,0.439831,0.509039,0.517355,-0.936552,0.122074,-0.094729,3.479004,-0.549316,-2.441406,0,0
13159,2024 10 19,05:25:59.645,-0.529193,0.439725,0.509084,0.517137,-0.938505,0.118656,-0.084475,3.356934,-0.793457,-2.197266,0,0
13160,2024 10 19,05:25:59.653,-0.529193,0.439725,0.509084,0.517137,-0.938505,0.118656,-0.084475,3.356934,-0.793457,-2.197266,0,0
13161,2024 10 19,05:25:59.662,-0.529471,0.43958,0.509116,0.516943,-0.932157,0.112308,-0.0918,3.601074,-1.342773,-2.01416,0,0
13162,2024 10 19,05:25:59.670,-0.529754,0.439398,0.50919,0.516736,-0.935087,0.115238,-0.092288,4.272461,-1.159668,-1.647949,0,0
13163,2024 10 19,05:25:59.678,-0.530036,0.439204,0.509277,0.516525,-0.93997,0.125492,-0.094241,4.150391,-1.159668,-1.708984,0,0
13164,2024 10 19,05:25:59.687,-0.530317,0.439027,0.50935,0.516315,-0.93704,0.122562,-0.098148,4.089355,-1.220703,-1.831055,0,0
13165,2024 10 19,05:25:59.695,-0.53059,0.438862,0.509417,0.516109,-0.943876,0.125492,-0.090335,3.78418,-0.976563,-2.01416,0,0
13166,2024 10 19,05:25:59.703,-0.530865,0.438713,0.509477,0.515893,-0.944365,0.122562,-0.090335,3.78418,-0.976563,-2.01416,0,0
13167,2024 10 19,05:25:59.712,-0.530865,0.438713,0.509477,0.515893,-0.944365,0.122562,-0.090335,3.78418,-1.037598,-2.075195,0,0
13168,2024 10 19,05:25:59.720,-0.531142,0.438592,0.509505,0.515684,-0.944365,0.119633,-0.092288,3.356934,-1.037598,-2.441406,0,0
13169,2024 10 19,05:25:59.728,-0.53142,0.438505,0.509529,0.515447,-0.947783,0.129887,-0.091311,3.417969,-0.732422,-2.868652,0,0
13170,2024 10 19,05:25:59.737,-0.531692,0.438484,0.509501,0.515213,-0.956084,0.12598,-0.080569,2.441406,-0.488281,-3.662109,0,0
13171,2024 10 19,05:25:59.745,-0.531967,0.438553,0.50943,0.51494,-0.955596,0.126469,-0.089846,1.89209,-0.305176,-4.699707,0,0
13172,2024 10 19,05:25:59.753,-0.532265,0.438724,0.509309,0.514606,-0.955107,0.138188,-0.091311,1.281738,0.549316,-6.04248,0,0
13173,2024 10 19,05:25:59.762,-0.532265,0.438724,0.509309,0.514606,-0.955107,0.138188,-0.091311,1.281738,0.549316,-6.04248,0,0
13174,2024 10 19,05:25:59.770,-0.532509,0.439119,0.509143,0.51418,-0.963408,0.163579,-0.114261,-0.427246,2.746582,-8.178711,0,0
13175,2024 10 19,05:25:59.778,-0.532626,0.439936,0.508796,0.513705,-0.991241,0.172369,-0.073733,-5.004883,5.126953,-11.413574,0,0
13176,2024 10 19,05:25:59.787,-0.532601,0.441282,0.508212,0.513153,-0.997101,0.190924,-0.079104,-10.192871,7.93457,-15.869141,0,0
13177,2024 10 19,05:25:59.795,-0.532427,0.443362,0.507214,0.512528,-0.986358,0.149419,-0.070315,-17.456055,11.779785,-22.644043,0,0
13178,2024 10 19,05:25:59.803,-0.532211,0.446498,0.50629,0.510941,-1.139683,0.28956,-0.124027,-15.014648,26.794434,-36.254883,0,0
13179,2024 10 19,05:25:59.812,-0.532211,0.446498,0.50629,0.510941,-1.139683,0.28956,-0.124027,-15.014648,26.794434,-36.254883,0,0
13180,2024 10 19,05:25:59.820,-0.532497,0.450969,0.505018,0.507967,-1.199744,0.26661,-0.18067,-14.221191,34.118652,-59.997559,0,0
13181,2024 10 19,05:25:59.828,-0.533711,0.45668,0.503245,0.50333,-1.204627,0.182134,-0.136723,-12.634277,42.297363,-84.16748,0,0
13182,2024 10 19,05:25:59.837,-0.535448,0.463794,0.501553,0.496624,-1.382366,0.180181,-0.096683,-3.662109,60.302734,-107.971191,0,0
13183,2024 10 19,05:25:59.845,-0.53804,0.471613,0.499663,0.488294,-1.376507,0.181646,-0.032716,5.310059,62.37793,-125.488281,0,0
13184,2024 10 19,05:25:59.853,-0.541353,0.479682,0.497711,0.478671,-1.222205,0.112308,0.160161,15.258789,68.54248,-138.48877,0,0
13185,2024 10 19,05:25:59.862,-0.541353,0.479682,0.497711,0.478671,-1.222205,0.112308,0.160161,15.258789,68.54248,-138.48877,0,0
13186,2024 10 19,05:25:59.870,-0.544802,0.487888,0.496755,0.467322,-1.073275,-0.010254,0.32667,31.982422,84.289551,-143.066406,0,1
13187,2024 10 19,05:25:59.878,-0.548371,0.495643,0.497543,0.453959,-0.865261,-0.097659,0.539567,59.387207,104.736328,-141.723633,0,0
13188,2024 10 19,05:25:59.887,-0.551738,0.502463,0.501571,0.437656,-0.864772,-0.10889,0.74221,100.646973,140.380859,-133.361816,0,0
13189,2024 10 19,05:25:59.895,-0.555074,0.507566,0.508997,0.418558,-0.908231,0.083987,0.625507,146.850586,163.757324,-121.032715,0,0
13190,2024 10 19,05:25:59.903,-0.560238,0.508065,0.519089,0.398183,-1.261269,1.522996,0.109867,205.871582,142.63916,-90.332031,0,0
13191,2024 10 19,05:25:59.912,-0.560238,0.508065,0.519089,0.398183,-1.261269,1.522996,0.109867,205.871582,142.63916,-90.332031,0,0
13192,2024 10 19,05:25:59.920,-0.56643,0.501473,0.526869,0.387416,-1.794977,1.281289,-0.320322,166.320801,7.873535,2.502441,0,0
13193,2024 10 19,05:25:59.928,-0.576415,0.487193,0.530574,0.385849,-0.563982,1.270058,-0.110843,179.016113,-114.074707,52.246094,0,0
13194,2024 10 19,05:25:59.937,-0.587054,0.470464,0.53431,0.385414,0.082034,0.941923,0.696799,198.425293,-97.77832,68.115234,0,0
13195,2024 10 19,05:25:59.945,-0.594908,0.454659,0.542116,0.381419,-0.163579,1.012238,0.245613,212.341309,-36.071777,73.364258,0,0
13196,2024 10 19,05:25:59.953,-0.602064,0.438144,0.551003,0.376754,-0.340831,1.242714,0.271493,216.85791,-33.02002,83.374023,0,0
13197,2024 10 19,05:25:59.962,-0.602064,0.438144,0.551003,0.376754,-0.340831,1.242714,0.271493,216.85791,-33.02002,83.374023,0,0
13198,2024 10 19,05:25:59.970,-0.607821,0.42124,0.56026,0.373122,-0.441908,1.177282,0.034181,204.406738,-28.198242,100.524902,0,0
13199,2024 10 19,05:25:59.978,-0.61264,0.404298,0.569099,0.370596,-0.391614,0.928739,0.18067,192.993164,-28.747559,108.398438,0,0
13200,2024 10 19,05:25:59.987,-0.61605,0.388049,0.578549,0.367671,-0.422864,0.732933,0.110843,188.476563,-6.103516,110.290527,0,0
13201,2024 10 19,05:25:59.995,-0.618147,0.372161,0.588958,0.364032,-0.568377,0.59328,0.063967,190.185547,12.756348,114.624023,0,0
13202,2024 10 19,05:26:00.003,-0.619194,0.355981,0.600355,0.359792,-0.813013,0.437513,-0.069338,197.021484,26.611328,122.314453,0,0
13203,2024 10 19,05:26:00.012,-0.619194,0.355981,0.600355,0.359792,-0.813013,0.437513,-0.069338,197.021484,26.611328,122.314453,0,0
13204,2024 10 19,05:26:00.020,-0.620114,0.33886,0.611942,0.35519,-0.984893,0.231452,-0.164556,207.336426,22.521973,127.624512,0,0
13205,2024 10 19,05:26:00.028,-0.621501,0.320555,0.62327,0.350021,-0.998566,0.027345,-0.215827,221.618652,16.113281,129.577637,0,0
13206,2024 10 19,05:26:00.037,-0.623114,0.301218,0.634608,0.343905,-1.076205,-0.149907,-0.284188,236.206055,15.075684,130.126953,0,0
13207,2024 10 19,05:26:00.045,-0.625026,0.281146,0.645584,0.336929,-1.196814,-0.283212,-0.373058,245.910645,9.094238,126.77002,0,0
13208,2024 10 19,05:26:00.053,-0.627592,0.261059,0.655377,0.329328,-1.262734,-0.401868,-0.464858,245.666504,-3.112793,114.501953,0,0
13209,2024 10 19,05:26:00.062,-0.627592,0.261059,0.655377,0.329328,-1.262734,-0.401868,-0.464858,245.666504,-3.112793,114.501953,0,0
13210,2024 10 19,05:26:00.070,-0.630968,0.242093,0.663363,0.321277,-1.205115,-0.490738,-0.502457,233.520508,-15.563965,93.017578,0,0
13211,2024 10 19,05:26:00.078,-0.632823,0.227571,0.67275,0.30847,-6.417188,-0.330088,-2.634846,262.084961,91.308594,0.854492,0,0
13212,2024 10 19,05:26:00.087,-0.648532,0.216517,0.665226,0.300002,-1.821345,-2.279855,1.471725,98.876953,-351.867676,-29.052734,0,0
13213,2024 10 19,05:26:00.095,-0.660525,0.212707,0.659221,0.289638,-0.840846,-1.544481,-2.890225,90.637207,-65.246582,-92.590332,0,0
13214,2024 10 19,05:26:00.103,-0.67414,0.214542,0.646288,0.286041,-0.189947,-1.691458,-2.913663,-0.488281,-211.608887,-113.15918,1,0
13215,2024 10 19,05:26:00.112,-0.686355,0.212381,0.631488,0.291605,1.428266,-1.606983,-1.256386,-93.688965,-119.934082,21.972656,0,0
13216,2024 10 19,05:26:00.120,-0.686355,0.212381,0.631488,0.291605,1.428266,-1.606983,-1.256386,-93.688965,-119.934082,21.972656,0,0
13217,2024 10 19,05:26:00.128,-0.681239,0.20869,0.64091,0.285652,-1.483444,1.431196,-0.228523,112.548828,123.168945,33.325195,0,0
13218,2024 10 19,05:26:00.137,-0.679098,0.20775,0.643152,0.286392,-1.242714,0.507828,0.755394,1.159668,6.04248,13.793945,0,0
13219,2024 10 19,05:26:00.145,-0.678061,0.20897,0.643179,0.287898,-1.283731,-0.136723,-0.056642,-34.729004,2.502441,2.868652,0,0
13220,2024 10 19,05:26:00.153,-0.678622,0.20948,0.642058,0.288706,-1.112827,0.25782,0.233894,-20.874023,-17.944336,-1.037598,0,0
13221,2024 10 19,05:26:00.162,-0.679314,0.210557,0.639976,0.29091,-0.727561,0.100101,-0.335948,-19.348145,-22.460938,0.488281,0,0
13222,2024 10 19,05:26:00.170,-0.679314,0.210557,0.639976,0.29091,-0.727561,0.100101,-0.335948,-19.348145,-22.460938,0.488281,0,0
13223,2024 10 19,05:26:00.178,-0.679237,0.211067,0.639706,0.291314,-0.98587,0.159673,-0.036134,-6.04248,7.446289,-2.01416,0,0
13224,2024 10 19,05:26:00.187,-0.679104,0.211677,0.639562,0.291499,-0.983428,0.088382,-0.058107,-8.850098,-3.295898,-3.234863,0,0
13225,2024 10 19,05:26:00.195,-0.679161,0.212022,0.639359,0.291558,-0.95706,0.144536,-0.090335,-2.01416,1.525879,-2.807617,0,0
13226,2024 10 19,05:26:00.203,-0.679206,0.212248,0.639268,0.291488,-0.92581,0.143559,-0.084475,-1.464844,-1.525879,-2.746582,0,0
13227,2024 10 19,05:26:00.212,-0.679137,0.212489,0.639269,0.291474,-0.900906,0.12891,-0.150884,-2.01416,3.540039,-1.708984,0,0
13228,2024 10 19,05:26:00.220,-0.679137,0.212489,0.639269,0.291474,-0.900906,0.12891,-0.150884,-2.01416,3.540039,-1.708984,0,0
13229,2024 10 19,05:26:00.228,-0.678842,0.212718,0.639588,0.291293,-0.954131,0.146977,-0.06592,0.12207,6.530762,-1.586914,0,0
13230,2024 10 19,05:26:00.237,-0.678539,0.212925,0.639922,0.291115,-0.941923,0.12598,-0.093265,0.12207,5.554199,-1.403809,0,0
13231,2024 10 19,05:26:00.245,-0.678314,0.213012,0.640279,0.290791,-0.959502,0.127934,-0.058596,3.051758,5.79834,-1.77002,0,0
13232,2024 10 19,05:26:00.253,-0.678156,0.212943,0.640684,0.290316,-0.959014,0.144047,-0.06299,5.310059,4.699707,-2.01416,0,0
13233,2024 10 19,05:26:00.262,-0.678103,0.212828,0.641006,0.289813,-0.94583,0.148442,-0.089358,5.187988,3.479004,-2.502441,0,0
13234,2024 10 19,05:26:00.270,-0.678103,0.212828,0.641006,0.289813,-0.94583,0.148442,-0.089358,5.187988,3.479004,-2.502441,0,0
13235,2024 10 19,05:26:00.278,-0.678104,0.212734,0.641243,0.289356,-0.947783,0.147954,-0.080081,4.699707,2.502441,-2.685547,0,0
13236,2024 10 19,05:26:00.287,-0.678145,0.21266,0.641414,0.288934,-0.949248,0.146489,-0.087893,4.02832,1.647949,-2.868652,0,0
13237,2024 10 19,05:26:00.295,-0.678234,0.212622,0.641514,0.28853,-0.949736,0.146489,-0.076662,3.540039,0.976563,-3.356934,0,0
13238,2024 10 19,05:26:00.303,-0.678378,0.212601,0.641548,0.288133,-0.95706,0.143071,-0.069338,3.479004,-0.305176,-3.723145,0,0
13239,2024 10 19,05:26:00.312,-0.678626,0.212552,0.641473,0.287751,-0.960967,0.144047,-0.073733,3.417969,-2.01416,-4.02832,0,0
13240,2024 10 19,05:26:00.320,-0.678626,0.212552,0.641473,0.287751,-0.960967,0.144047,-0.073733,3.417969,-2.01416,-4.02832,0,0
13241,2024 10 19,05:26:00.328,-0.678991,0.212492,0.641267,0.287394,-0.965361,0.146977,-0.067385,3.234863,-4.333496,-4.455566,0,0
13242,2024 10 19,05:26:00.337,-0.679495,0.212402,0.640896,0.287094,-0.938017,0.138676,-0.079592,2.685547,-6.469727,-4.455566,0,0
13243,2024 10 19,05:26:00.345,-0.679998,0.212321,0.6405,0.286849,-0.933134,0.138676,-0.087405,2.13623,-6.469727,-4.089355,0,0
13244,2024 10 19,05:26:00.353,-0.680462,0.212259,0.640099,0.286689,-0.935575,0.140141,-0.083987,1.037598,-6.286621,-3.479004,0,0
13245,2024 10 19,05:26:00.362,-0.680902,0.212216,0.639686,0.2866,-0.931181,0.136235,-0.097659,0.549316,-6.286621,-2.929688,0,0
13246,2024 10 19,05:26:00.370,-0.680902,0.212216,0.639686,0.2866,-0.931181,0.136235,-0.097659,0.549316,-6.286621,-2.929688,0,0
13247,2024 10 19,05:26:00.378,-0.681321,0.212159,0.639296,0.286517,-0.936064,0.137211,-0.084475,0.732422,-5.92041,-2.807617,0,0
13248,2024 10 19,05:26:00.387,-0.681719,0.212082,0.638947,0.286403,-0.94583,0.138188,-0.088382,1.159668,-5.615234,-2.868652,0,0
13249,2024 10 19,05:26:00.395,-0.682173,0.211993,0.63855,0.286275,-0.934111,0.139653,-0.082034,1.525879,-6.469727,-3.234863,0,0
13250,2024 10 19,05:26:00.403,-0.682615,0.211914,0.638166,0.286134,-0.934599,0.132817,-0.093265,1.342773,-6.04248,-3.234863,0,0
13251,2024 10 19,05:26:00.412,-0.68303,0.211838,0.637816,0.285982,-0.935575,0.138676,-0.0918,1.342773,-5.432129,-3.112793,0,0
13252,2024 10 19,05:26:00.420,-0.68303,0.211838,0.637816,0.285982,-0.935575,0.138676,-0.0918,1.342773,-5.432129,-3.112793,0,0
13253,2024 10 19,05:26:00.428,-0.68343,0.211771,0.637471,0.285844,-0.933622,0.136235,-0.096683,1.342773,-5.432129,-2.990723,0,0
13254,2024 10 19,05:26:00.437,-0.68382,0.211694,0.637131,0.285727,-0.930692,0.13477,-0.098148,1.220703,-5.371094,-2.746582,0,0
13255,2024 10 19,05:26:00.445,-0.68418,0.211621,0.636821,0.285611,-0.933134,0.135258,-0.100101,1.098633,-4.943848,-2.502441,0,0
13256,2024 10 19,05:26:00.453,-0.684522,0.211561,0.636516,0.285514,-0.92581,0.130375,-0.107425,0.915527,-4.760742,-2.441406,0,0
13257,2024 10 19,05:26:00.462,-0.68483,0.211491,0.636264,0.28539,-0.929716,0.133793,-0.100101,1.342773,-3.723145,-2.319336,0,0
13258,2024 10 19,05:26:00.470,-0.68483,0.211491,0.636264,0.28539,-0.929716,0.133793,-0.100101,1.342773,-3.723145,-2.319336,0,0
13259,2024 10 19,05:26:00.478,-0.685092,0.211422,0.636066,0.285253,-0.936064,0.130863,-0.098636,1.403809,-3.234863,-2.197266,0,0
13260,2024 10 19,05:26:00.487,-0.68535,0.211353,0.635885,0.285088,-0.935575,0.13477,-0.100589,1.831055,-2.868652,-2.380371,0,0
13261,2024 10 19,05:26:00.495,-0.685606,0.211281,0.63572,0.284893,-0.940947,0.133793,-0.102542,2.01416,-2.807617,-2.685547,0,0
13262,2024 10 19,05:26:00.503,-0.68589,0.211222,0.635532,0.284672,-0.941435,0.13477,-0.0918,2.075195,-3.234863,-3.234863,0,0
13263,2024 10 19,05:26:00.512,-0.686191,0.21118,0.635332,0.284426,-0.947783,0.133793,-0.094729,2.075195,-3.479004,-3.540039,0,0
13264,2024 10 19,05:26:00.520,-0.686534,0.211127,0.635102,0.284153,-0.933622,0.132328,-0.10596,2.563477,-3.78418,-3.90625,0,0
13265,2024 10 19,05:26:00.528,-0.686534,0.211127,0.635102,0.284153,-0.933622,0.132328,-0.10596,2.563477,-3.78418,-3.90625,0,0
13266,2024 10 19,05:26:00.537,-0.686829,0.211127,0.634936,0.283807,-0.95999,0.147465,-0.087893,2.502441,-2.01416,-4.699707,0,0
13267,2024 10 19,05:26:00.545,-0.687086,0.211308,0.634782,0.283397,-0.981964,0.167974,-0.073244,1.037598,-1.708984,-6.713867,0,0
13268,2024 10 19,05:26:00.553,-0.687416,0.211771,0.634406,0.283094,-0.961455,0.173345,-0.0918,-2.624512,-3.173828,-8.728027,0,0
13269,2024 10 19,05:26:00.562,-0.687578,0.212669,0.634062,0.282797,-0.981964,0.174322,-0.067385,-6.530762,1.037598,-11.413574,0,0
13270,2024 10 19,05:26:00.570,-0.68766,0.214001,0.633702,0.282399,-0.981475,0.175787,-0.107913,-9.521484,1.342773,-15.563965,0,0
13271,2024 10 19,05:26:00.578,-0.68766,0.214001,0.633702,0.282399,-0.981475,0.175787,-0.107913,-9.521484,1.342773,-15.563965,0,0
13272,2024 10 19,05:26:00.587,-0.687788,0.215772,0.633123,0.282039,-0.98587,0.181158,-0.106937,-14.343262,1.77002,-19.042969,0,0
13273,2024 10 19,05:26:00.595,-0.687598,0.218364,0.632621,0.281633,-0.936064,0.141606,-0.080569,-23.55957,8.422852,-24.902344,0,0
13274,2024 10 19,05:26:00.603,-0.686769,0.222091,0.632878,0.28016,-1.234901,0.397961,-0.196783,-15.808105,31.738281,-42.053223,0,0
13275,2024 10 19,05:26:00.612,-0.686087,0.227451,0.633224,0.276729,-1.15775,0.098636,-0.187017,-16.662598,31.005859,-71.472168,0,0
13276,2024 10 19,05:26:00.620,-0.68596,0.233288,0.633795,0.270812,-1.352092,0.209967,-0.104495,0.366211,44.86084,-92.956543,0,0
13277,2024 10 19,05:26:00.628,-0.68596,0.233288,0.633795,0.270812,-1.352092,0.209967,-0.104495,0.366211,44.86084,-92.956543,0,0
13278,2024 10 19,05:26:00.637,-0.686116,0.23987,0.634401,0.263138,-1.406781,0.26661,-0.106449,13.244629,42.602539,-112.792969,0,0
13279,2024 10 19,05:26:00.645,-0.687152,0.246686,0.634119,0.254681,-1.282266,0.143559,0.010254,9.765625,33.203125,-123.657227,0,0
13280,2024 10 19,05:26:00.653,-0.68811,0.253899,0.63383,0.245559,-1.290078,0.123051,-0.008301,8.666992,36.804199,-129.760742,0,0
13281,2024 10 19,05:26:00.662,-0.689415,0.26133,0.632969,0.236141,-1.090854,0.021485,0.229011,13.244629,31.188965,-136.962891,0,0
13282,2024 10 19,05:26:00.670,-0.690135,0.268572,0.63299,0.225627,-0.927763,-0.135258,0.425306,25.512695,49.621582,-137.268066,0,1
13283,2024 10 19,05:26:00.678,-0.690135,0.268572,0.63299,0.225627,-0.927763,-0.135258,0.425306,25.512695,49.621582,-137.268066,0,0
13284,2024 10 19,05:26:00.687,-0.689912,0.274498,0.634901,0.213477,-0.912137,-0.177252,0.462905,50.476074,72.08252,-130.92041,0,0
13285,2024 10 19,05:26:00.695,-0.689167,0.278443,0.638497,0.199599,-0.990753,0.001953,0.468276,87.219238,88.012695,-122.741699,0,0
13286,2024 10 19,05:26:00.703,-0.689051,0.279146,0.642771,0.184746,-1.147984,0.684591,0.294443,124.87793,76.23291,-103.210449,0,0
13287,2024 10 19,05:26:00.712,-0.691754,0.274745,0.644933,0.173357,-1.355998,0.780297,-0.104007,129.272461,-0.976563,-45.410156,0,0
13288,2024 10 19,05:26:00.720,-0.698865,0.265496,0.643121,0.165815,-0.563005,0.861354,0.184576,153.503418,-73.791504,-9.155273,0,0
13289,2024 10 19,05:26:00.728,-0.698865,0.265496,0.643121,0.165815,-0.563005,0.861354,0.184576,153.503418,-73.791504,-9.155273,0,0
13290,2024 10 19,05:26:00.737,-0.705433,0.253648,0.642471,0.158928,-0.253426,0.820826,0.494156,166.564941,-45.410156,19.40918,0,0
13291,2024 10 19,05:26:00.745,-0.710304,0.240851,0.643657,0.152199,-0.374035,0.858425,0.354503,170.776367,-33.02002,31.921387,0,0
13292,2024 10 19,05:26:00.753,-0.714504,0.227759,0.645287,0.145652,-0.37257,0.953642,0.34962,168.273926,-18.859863,36.743164,0,0
13293,2024 10 19,05:26:00.762,-0.717567,0.214997,0.647514,0.139998,-0.440443,0.964873,0.271004,153.625488,-13.549805,45.776367,0,0
13294,2024 10 19,05:26:00.770,-0.719836,0.202841,0.649809,0.135796,-0.420423,0.929228,0.264657,135.498047,-4.699707,54.260254,0,0
13295,2024 10 19,05:26:00.778,-0.719836,0.202841,0.649809,0.135796,-0.420423,0.929228,0.264657,135.498047,-4.699707,54.260254,0,0
13296,2024 10 19,05:26:00.787,-0.720684,0.191644,0.652877,0.132815,-0.50441,0.866237,0.209967,116.210938,9.765625,61.096191,0,0
13297,2024 10 19,05:26:00.795,-0.720376,0.181407,0.656479,0.131093,-0.559099,0.778344,0.165044,97.53418,22.766113,67.626953,0,0
13298,2024 10 19,05:26:00.803,-0.718854,0.172039,0.660772,0.130503,-0.660176,0.7051,0.106937,80.810547,36.193848,74.157715,0,0
13299,2024 10 19,05:26:00.812,-0.716323,0.16331,0.665614,0.131033,-0.713401,0.594745,0.050783,66.52832,46.99707,82.03125,0,0
13300,2024 10 19,05:26:00.820,-0.712827,0.154869,0.671059,0.132564,-0.781762,0.479019,0.017579,56.70166,58.105469,91.491699,0,0
13301,2024 10 19,05:26:00.828,-0.712827,0.154869,0.671059,0.132564,-0.781762,0.479019,0.017579,56.70166,58.105469,91.491699,0,0
13302,2024 10 19,05:26:00.837,-0.708562,0.146499,0.676993,0.134755,-0.894559,0.315928,-0.013184,52.185059,66.101074,98.083496,0,0
13303,2024 10 19,05:26:00.845,-0.704005,0.137915,0.683086,0.136933,-0.95999,0.12598,-0.059572,55.969238,68.237305,100.463867,0,0
13304,2024 10 19,05:26:00.853,-0.699513,0.128718,0.689164,0.138441,-1.058138,-0.078616,-0.053224,68.664551,67.016602,100.402832,0,0
13305,2024 10 19,05:26:00.862,-0.6955,0.118387,0.694999,0.138709,-1.095248,-0.25782,-0.071291,89.904785,59.875488,99.060059,0,0
13306,2024 10 19,05:26:00.870,-0.692086,0.106526,0.700595,0.137244,-1.084018,-0.394543,-0.077639,117.736816,54.504395,97.167969,0,0
13307,2024 10 19,05:26:00.878,-0.692086,0.106526,0.700595,0.137244,-1.084018,-0.394543,-0.077639,117.736816,54.504395,97.167969,0,0
13308,2024 10 19,05:26:00.887,-0.689001,0.09298,0.706206,0.13381,-1.125523,-0.487808,-0.129398,147.094727,51.757813,95.397949,0,0
13309,2024 10 19,05:26:00.895,-0.686429,0.07807,0.711482,0.128509,-1.174352,-0.533219,-0.20069,171.508789,43.762207,89.660645,0,0
13310,2024 10 19,05:26:00.903,-0.68461,0.06267,0.715979,0.121474,-1.183142,-0.554704,-0.252937,186.645508,32.287598,76.782227,0,0
13311,2024 10 19,05:26:00.912,-0.680569,0.048727,0.72232,0.11272,-4.721335,-1.711966,-2.306711,185.791016,106.079102,54.992676,0,0
13312,2024 10 19,05:26:00.920,-0.695387,0.036514,0.710837,0.099069,-0.938505,-2.529862,0.670919,123.535156,-348.205566,-13.183594,0,0
13313,2024 10 19,05:26:00.928,-0.704485,0.024886,0.704162,0.085079,-1.263222,-0.737815,-2.056215,256.225586,-30.456543,-30.883789,0,0
13314,2024 10 19,05:26:00.937,-0.704485,0.024886,0.704162,0.085079,-1.263222,-0.737815,-2.056215,256.225586,-30.456543,-30.883789,0,0
13315,2024 10 19,05:26:00.945,-0.717652,0.015893,0.692376,0.073065,-0.955596,-1.959044,-1.474654,173.64502,-263.73291,-41.687012,1,0
