frame,date,time,quaternion_x,quaternion_y,quaternion_z,quaternion_w,accel_x,accel_y,accel_z,gyro_x,gyro_y,gyro_z,HS,TO
12388,2024 10 19,05:25:53.220,0.243198,-0.635475,-0.24033,-0.692292,-1.020051,-0.035646,0.063478,0.061035,-2.380371,-6.225586,0,0
12389,2024 10 19,05:25:53.229,0.242839,-0.635388,-0.24072,-0.692363,-1.008332,-0.037599,0.046876,0.610352,-0.427246,-6.04248,0,0
12390,2024 10 19,05:25:53.237,0.242545,-0.635264,-0.241107,-0.692444,-1.007355,-0.044435,0.047365,0.793457,0.0,-5.615234,0,0
12391,2024 10 19,05:25:53.245,0.242545,-0.635264,-0.241107,-0.692444,-1.007355,-0.044435,0.047365,0.793457,0.0,-5.615234,0,0
12392,2024 10 19,05:25:53.254,0.242253,-0.635134,-0.241461,-0.692543,-0.994171,-0.031251,0.081545,0.976563,0.0,-5.493164,0,0
12393,2024 10 19,05:25:53.262,0.24206,-0.634971,-0.241864,-0.692618,-1.00296,-0.037599,0.054201,2.319336,0.0,-5.126953,0,0
12394,2024 10 19,05:25:53.270,0.241894,-0.634802,-0.242293,-0.692681,-1.007843,-0.036134,0.065432,2.685547,0.427246,-4.943848,0,0
12395,2024 10 19,05:25:53.279,0.241796,-0.634536,-0.242723,-0.692809,-0.992218,-0.041017,0.065432,2.990723,2.01416,-5.004883,0,0
12396,2024 10 19,05:25:53.287,0.241724,-0.634259,-0.243143,-0.692941,-0.994659,-0.051759,0.050295,2.990723,1.647949,-4.638672,0,0
12397,2024 10 19,05:25:53.295,0.241724,-0.634259,-0.243143,-0.692941,-0.994659,-0.051759,0.050295,2.990723,1.647949,-4.638672,0,0
12398,2024 10 19,05:25:53.304,0.241623,-0.634001,-0.243498,-0.693087,-0.9888,-0.046876,0.069338,2.319336,2.01416,-4.455566,0,0
12399,2024 10 19,05:25:53.312,0.241573,-0.633712,-0.243843,-0.693248,-0.998077,-0.051271,0.049318,2.685547,2.380371,-4.089355,0,0
12400,2024 10 19,05:25:53.320,0.241471,-0.633449,-0.244167,-0.693409,-0.9888,-0.039064,0.081545,2.01416,1.89209,-4.516602,0,0
12401,2024 10 19,05:25:53.329,0.241377,-0.633203,-0.24455,-0.693532,-0.998566,-0.044435,0.048341,2.563477,1.403809,-4.638672,0,0
12402,2024 10 19,05:25:53.337,0.241245,-0.633008,-0.24494,-0.693618,-1.003449,-0.048341,0.071291,2.380371,0.793457,-4.699707,0,0
12403,2024 10 19,05:25:53.345,0.241245,-0.633008,-0.24494,-0.693618,-1.003449,-0.048341,0.071291,2.380371,0.793457,-4.699707,0,0
12404,2024 10 19,05:25:53.354,0.241166,-0.632711,-0.245301,-0.693789,-1.004913,-0.055177,0.04297,2.746582,2.929688,-4.455566,0,0
12405,2024 10 19,05:25:53.362,0.241108,-0.632404,-0.245612,-0.693979,-1.003937,-0.051759,0.057619,2.13623,2.929688,-4.02832,0,0
12406,2024 10 19,05:25:53.370,0.241087,-0.63204,-0.245866,-0.694228,-0.987823,-0.052248,0.075686,2.441406,4.333496,-3.601074,0,0
12407,2024 10 19,05:25:53.379,0.241074,-0.631664,-0.246106,-0.69449,-0.974639,-0.04297,0.082522,1.831055,3.723145,-3.601074,0,0
12408,2024 10 19,05:25:53.387,0.241017,-0.631395,-0.24639,-0.694653,-0.9888,-0.044435,0.078616,2.258301,2.01416,-3.78418,0,0
12409,2024 10 19,05:25:53.395,0.241017,-0.631395,-0.24639,-0.694653,-0.9888,-0.044435,0.078616,2.258301,2.01416,-3.78418,0,0
12410,2024 10 19,05:25:53.404,0.240947,-0.631165,-0.24674,-0.694762,-0.999542,-0.052248,0.058596,2.441406,1.159668,-4.150391,0,0
12411,2024 10 19,05:25:53.412,0.240805,-0.630957,-0.247095,-0.694874,-0.996612,-0.045412,0.071291,2.01416,1.342773,-4.638672,0,0
12412,2024 10 19,05:25:53.420,0.240687,-0.630739,-0.247444,-0.694989,-0.997101,-0.055177,0.042482,1.77002,1.037598,-4.333496,0,0
12413,2024 10 19,05:25:53.429,0.240485,-0.630593,-0.247788,-0.695069,-1.019562,-0.04297,0.084475,1.220703,0.732422,-4.882813,0,0
12414,2024 10 19,05:25:53.437,0.240412,-0.630239,-0.248116,-0.695298,-1.008332,-0.064943,0.037599,2.502441,4.02832,-4.516602,0,0
12415,2024 10 19,05:25:53.445,0.240412,-0.630239,-0.248116,-0.695298,-1.008332,-0.064943,0.037599,2.502441,4.02832,-4.516602,0,0
12416,2024 10 19,05:25:53.454,0.240262,-0.629944,-0.248447,-0.695499,-1.005402,-0.057619,0.059084,1.586914,2.01416,-5.004883,0,0
12417,2024 10 19,05:25:53.462,0.240097,-0.629668,-0.248796,-0.695682,-1.01175,-0.052736,0.069338,2.01416,2.685547,-5.126953,0,0
12418,2024 10 19,05:25:53.470,0.239926,-0.629342,-0.249167,-0.695902,-1.005402,-0.04883,0.055666,1.89209,2.258301,-5.79834,0,0
12419,2024 10 19,05:25:53.479,0.239698,-0.629115,-0.249683,-0.696001,-1.027863,-0.063967,0.051759,3.051758,0.305176,-6.652832,0,0
12420,2024 10 19,05:25:53.487,0.239412,-0.628841,-0.250252,-0.696143,-1.027863,-0.053713,0.053713,2.807617,0.976563,-7.873535,0,0
12421,2024 10 19,05:25:53.495,0.239038,-0.628572,-0.250958,-0.69626,-1.042024,-0.04883,0.046388,3.479004,-0.183105,-9.58252,0,0
12422,2024 10 19,05:25:53.504,0.239038,-0.628572,-0.250958,-0.69626,-1.042024,-0.04883,0.046388,3.479004,-0.183105,-9.58252,0,0
12423,2024 10 19,05:25:53.512,0.238544,-0.628323,-0.251847,-0.696333,-1.061556,-0.049318,0.059084,3.845215,-1.525879,-12.084961,0,0
12424,2024 10 19,05:25:53.520,0.237855,-0.62803,-0.252922,-0.696444,-1.081576,-0.041017,0.04004,3.723145,-1.77002,-15.258789,0,0
12425,2024 10 19,05:25:53.529,0.236954,-0.627732,-0.254265,-0.696531,-1.104526,-0.036134,0.070315,4.638672,-3.662109,-19.165039,0,0
12426,2024 10 19,05:25:53.537,0.235809,-0.627359,-0.25594,-0.696642,-1.126499,-0.058107,0.052248,6.835938,-3.967285,-23.742676,0,0
12427,2024 10 19,05:25:53.545,0.23426,-0.626969,-0.257964,-0.696769,-1.184118,-0.038087,0.043947,5.859375,-6.347656,-30.395508,0,0
12428,2024 10 19,05:25:53.554,0.23426,-0.626969,-0.257964,-0.696769,-1.184118,-0.038087,0.043947,5.859375,-6.347656,-30.395508,0,0
12429,2024 10 19,05:25:53.562,0.232108,-0.626548,-0.260475,-0.696933,-1.364299,-0.026368,0.008301,3.479004,-9.216309,-40.039063,0,0
12430,2024 10 19,05:25:53.570,0.228953,-0.625817,-0.263313,-0.697567,-1.492721,-0.000488,0.092288,-0.854492,-3.723145,-53.588867,0,0
12431,2024 10 19,05:25:53.579,0.2252,-0.623802,-0.266538,-0.699366,-1.58208,0.00586,-0.004395,-1.098633,13.244629,-68.237305,0,0
12432,2024 10 19,05:25:53.587,0.220743,-0.620729,-0.270424,-0.702025,-1.699271,0.033692,0.036622,-0.671387,23.132324,-84.716797,0,0
12433,2024 10 19,05:25:53.595,0.215907,-0.615979,-0.27506,-0.7059,-1.821345,0.072268,0.084964,3.78418,46.020508,-102.050781,0,0
12434,2024 10 19,05:25:53.604,0.215907,-0.615979,-0.27506,-0.7059,-1.821345,0.072268,0.084964,3.78418,46.020508,-102.050781,0,0
12435,2024 10 19,05:25:53.612,0.210781,-0.609121,-0.280442,-0.711264,-1.778863,0.021485,0.074709,9.521484,69.580078,-120.788574,0,0
12436,2024 10 19,05:25:53.620,0.204832,-0.601009,-0.286581,-0.717428,-1.730033,0.101566,0.026856,7.8125,76.35498,-138.305664,0,0
12437,2024 10 19,05:25:53.629,0.198326,-0.592069,-0.293639,-0.723807,-1.716849,0.066897,0.119144,12.756348,83.984375,-152.099609,0,0
12438,2024 10 19,05:25:53.637,0.191673,-0.58166,-0.301135,-0.730924,-1.666555,0.132328,0.156743,19.40918,97.961426,-161.132813,0,0
12439,2024 10 19,05:25:53.645,0.185785,-0.57021,-0.30934,-0.738006,-1.649464,-0.063967,0.24659,34.362793,110.290527,-162.17041,0,0
12440,2024 10 19,05:25:53.654,0.185785,-0.57021,-0.30934,-0.738006,-1.649464,-0.063967,0.24659,34.362793,110.290527,-162.17041,0,0
12441,2024 10 19,05:25:53.662,0.180555,-0.557255,-0.317296,-0.745782,-1.495163,-0.031251,0.10596,32.775879,126.647949,-158.325195,0,0
12442,2024 10 19,05:25:53.670,0.176895,-0.544091,-0.323898,-0.7535,-1.477096,0.314951,0.327158,33.14209,142.089844,-131.530762,0,0
12443,2024 10 19,05:25:53.679,0.177386,-0.528938,-0.328475,-0.762143,-1.277871,0.439467,0.225593,48.339844,189.147949,-92.834473,0,0
12444,2024 10 19,05:25:53.687,0.181933,-0.511858,-0.33253,-0.770925,-0.671407,0.446791,0.062502,67.077637,219.177246,-64.819336,0,0
12445,2024 10 19,05:25:53.695,0.189233,-0.494366,-0.335006,-0.779464,0.511734,0.997589,-1.092319,74.462891,222.473145,-25.817871,0,0
12446,2024 10 19,05:25:53.704,0.189233,-0.494366,-0.335006,-0.779464,0.511734,0.997589,-1.092319,74.462891,222.473145,-25.817871,0,0
12447,2024 10 19,05:25:53.712,0.197095,-0.485026,-0.338729,-0.781771,0.075198,1.192907,-0.732933,97.900391,83.984375,11.535645,0,0
12448,2024 10 19,05:25:53.720,0.206124,-0.481005,-0.345263,-0.779064,-0.476089,1.301798,-0.362804,132.873535,49.072266,36.499023,0,0
12449,2024 10 19,05:25:53.729,0.219345,-0.47616,-0.352291,-0.775274,-0.469253,1.067904,-0.850124,171.691895,55.969238,68.603516,0,0
12450,2024 10 19,05:25:53.737,0.234264,-0.47248,-0.360234,-0.76949,-0.408216,0.863796,-0.581072,190.368652,49.621582,88.012695,0,0
12451,2024 10 19,05:25:53.745,0.250866,-0.468558,-0.367647,-0.763122,-0.101077,0.734886,-1.142125,191.589355,46.081543,107.543945,0,0
12452,2024 10 19,05:25:53.754,0.250866,-0.468558,-0.367647,-0.763122,-0.101077,0.734886,-1.142125,191.589355,46.081543,107.543945,0,0
12453,2024 10 19,05:25:53.762,0.266874,-0.468211,-0.37475,-0.7544,-0.303232,0.664083,-0.749046,182.434082,-0.244141,126.464844,0,0
12454,2024 10 19,05:25:53.770,0.283203,-0.469148,-0.380463,-0.744945,-0.415052,0.562517,-0.826197,171.020508,-2.319336,144.042969,0,0
12455,2024 10 19,05:25:53.779,0.299529,-0.471514,-0.384757,-0.734792,-0.508805,0.471694,-0.670431,156.860352,-16.296387,160.095215,0,0
12456,2024 10 19,05:25:53.787,0.315957,-0.474852,-0.38756,-0.724213,-0.590838,0.407727,-0.626972,144.226074,-19.042969,174.621582,0,0
12457,2024 10 19,05:25:53.795,0.332468,-0.479149,-0.389248,-0.712999,-0.678243,0.387219,-0.529801,136.169434,-28.076172,188.049316,0,0
12458,2024 10 19,05:25:53.804,0.332468,-0.479149,-0.389248,-0.712999,-0.678243,0.387219,-0.529801,136.169434,-28.076172,188.049316,0,0
12459,2024 10 19,05:25:53.812,0.349273,-0.484149,-0.390282,-0.70092,-0.796899,0.337901,-0.473159,135.803223,-33.996582,200.012207,0,0
12460,2024 10 19,05:25:53.820,0.366481,-0.489423,-0.391233,-0.687818,-0.901395,0.234382,-0.440931,142.333984,-40.283203,208.190918,0,0
12461,2024 10 19,05:25:53.829,0.383858,-0.494663,-0.392631,-0.673648,-1.027863,0.087405,-0.488296,152.34375,-47.180176,210.266113,0,0
12462,2024 10 19,05:25:53.837,0.400948,-0.499493,-0.395188,-0.658464,-1.127964,-0.034669,-0.457045,167.602539,-56.640625,202.392578,0,0
12463,2024 10 19,05:25:53.845,0.417575,-0.503607,-0.399423,-0.64224,-1.130894,-0.14893,-0.496109,185.913086,-67.565918,191.467285,0,0
12464,2024 10 19,05:25:53.854,0.417575,-0.503607,-0.399423,-0.64224,-1.130894,-0.14893,-0.496109,185.913086,-67.565918,191.467285,0,0
12465,2024 10 19,05:25:53.862,0.433462,-0.507179,-0.405674,-0.624747,-1.197302,-0.374035,-0.459975,204.772949,-85.876465,177.307129,0,0
12466,2024 10 19,05:25:53.870,0.447723,-0.509966,-0.41447,-0.606378,-1.340373,-0.688498,-0.340342,220.458984,-105.895996,149.658203,0,0
12467,2024 10 19,05:25:53.879,0.459927,-0.51171,-0.425518,-0.587839,-1.480514,-0.918973,-0.210944,227.905273,-119.506836,120.666504,0,0
12468,2024 10 19,05:25:53.887,0.47072,-0.512404,-0.43765,-0.569497,-1.698294,-1.098178,-0.086428,231.018066,-121.09375,102.783203,0,0
12469,2024 10 19,05:25:53.895,0.481116,-0.511609,-0.449589,-0.551955,-1.843318,-1.370647,-0.039064,229.797363,-103.45459,91.97998,0,0
12470,2024 10 19,05:25:53.904,0.491415,-0.509324,-0.460274,-0.535955,-1.88287,-1.603076,-0.056154,219.299316,-77.575684,85.327148,0,0
12471,2024 10 19,05:25:53.912,0.491415,-0.509324,-0.460274,-0.535955,-1.88287,-1.603076,-0.056154,219.299316,-77.575684,85.327148,0,0
12472,2024 10 19,05:25:53.920,0.501807,-0.505791,-0.468831,-0.522075,-1.747124,-1.755913,-0.075198,200.98877,-42.602539,81.359863,0,0
12473,2024 10 19,05:25:53.929,0.511816,-0.501236,-0.475409,-0.510679,-1.509323,-1.833064,-0.121586,178.283691,-17.211914,68.664551,0,0
12474,2024 10 19,05:25:53.937,0.520165,-0.4962,-0.481296,-0.501566,-1.330607,-1.808161,-0.076174,155.578613,-9.460449,44.73877,0,0
12475,2024 10 19,05:25:53.945,0.526576,-0.490697,-0.487068,-0.494671,-1.188513,-1.700247,-0.041993,135.070801,-5.187988,18.127441,0,0
12476,2024 10 19,05:25:53.954,0.527034,-0.484461,-0.497744,-0.489678,-1.213416,-2.394116,1.095248,128.723145,-84.350586,-87.158203,0,0
12477,2024 10 19,05:25:53.962,0.527034,-0.484461,-0.497744,-0.489678,-1.213416,-2.394116,1.095248,128.723145,-84.350586,-87.158203,0,0
12478,2024 10 19,05:25:53.970,0.530487,-0.47181,-0.504614,-0.491267,-2.393628,-2.763268,0.564959,175.231934,70.678711,-91.247559,1,0
12479,2024 10 19,05:25:53.979,0.53642,-0.456065,-0.509585,-0.494552,-0.543962,-1.436079,1.972228,124.450684,166.748047,-71.105957,0,0
12480,2024 10 19,05:25:53.987,0.551081,-0.440005,-0.501505,-0.501195,1.021027,-2.213935,-2.678793,36.987305,217.773438,8.483887,0,0
12481,2024 10 19,05:25:53.995,0.538197,-0.451922,-0.502266,-0.503825,-0.930204,1.644093,2.307688,-125.183105,-227.233887,-21.728516,0,0
12482,2024 10 19,05:25:54.004,0.535354,-0.455277,-0.506338,-0.499741,-2.116276,-0.077151,0.277841,5.371094,1.586914,4.455566,0,0
12483,2024 10 19,05:25:54.012,0.535354,-0.455277,-0.506338,-0.499741,-2.116276,-0.077151,0.27784,5.371094,1.586914,4.455566,0,0
12484,2024 10 19,05:25:54.020,0.540327,-0.450543,-0.501785,-0.503259,-0.382824,-0.210944,-1.081576,13.427734,85.021973,0.671387,0,0
12485,2024 10 19,05:25:54.029,0.537056,-0.453106,-0.504493,-0.50175,-1.233924,-0.00293,0.603046,-7.324219,-80.200195,-7.385254,0,0
12486,2024 10 19,05:25:54.037,0.536744,-0.453349,-0.504771,-0.501585,-1.152379,-0.02002,-0.003906,-3.295898,23.071289,0.549316,0,0
12487,2024 10 19,05:25:54.045,0.537473,-0.452784,-0.503854,-0.502236,-0.911649,-0.075198,-0.439467,-3.479004,-0.061035,1.342773,0,0
12488,2024 10 19,05:25:54.054,0.535928,-0.45452,-0.505064,-0.501101,-1.232948,-0.053224,0.318369,-2.258301,-28.015137,3.051758,0,0
12489,2024 10 19,05:25:54.062,0.535928,-0.45452,-0.505064,-0.501101,-1.232948,-0.053224,0.318369,-2.258301,-28.015137,3.051758,0,0
12490,2024 10 19,05:25:54.070,0.536958,-0.454018,-0.504108,-0.501417,-0.970244,-0.047365,-0.100589,1.708984,26.367188,7.141113,0,0
12491,2024 10 19,05:25:54.079,0.537485,-0.454142,-0.503572,-0.501278,-0.978545,-0.032228,-0.053713,-2.01416,-5.432129,7.385254,0,0
12492,2024 10 19,05:25:54.087,0.537211,-0.455027,-0.503747,-0.500593,-1.097201,0.027833,0.267586,-0.671387,-6.896973,6.713867,0,0
12493,2024 10 19,05:25:54.095,0.538239,-0.454599,-0.503199,-0.500429,-0.990753,-0.008789,-0.021485,7.385254,12.634277,7.019043,0,0
12494,2024 10 19,05:25:54.104,0.538767,-0.4545,-0.503268,-0.499882,-1.000031,-0.016602,0.08301,6.103516,-3.417969,4.943848,0,0
12495,2024 10 19,05:25:54.112,0.538767,-0.4545,-0.503268,-0.499882,-1.000031,-0.016602,0.08301,6.103516,-3.417969,4.943848,0,0
12496,2024 10 19,05:25:54.120,0.539081,-0.454492,-0.503508,-0.499308,-1.063997,-0.026368,0.056642,6.04248,-0.671387,3.601074,0,0
12497,2024 10 19,05:25:54.129,0.539472,-0.454228,-0.50354,-0.499094,-1.043489,-0.034181,-0.007324,4.943848,2.441406,1.342773,0,0
12498,2024 10 19,05:25:54.137,0.53957,-0.454075,-0.50369,-0.498975,-1.037141,-0.011719,0.08301,2.319336,0.0,-0.732422,0,0
12499,2024 10 19,05:25:54.145,0.539726,-0.453784,-0.503782,-0.498979,-1.029817,-0.019532,0.055666,3.234863,2.746582,-1.464844,0,0
12500,2024 10 19,05:25:54.154,0.539938,-0.453399,-0.503868,-0.499012,-1.021027,-0.023927,0.060549,3.78418,3.051758,-1.586914,0,0
12501,2024 10 19,05:25:54.162,0.539938,-0.453399,-0.503868,-0.499012,-1.021027,-0.023927,0.060549,3.78418,3.051758,-1.586914,0,0
12502,2024 10 19,05:25:54.170,0.540195,-0.452986,-0.50394,-0.499036,-1.014191,-0.026856,0.063478,4.272461,4.02832,-1.281738,0,0
12503,2024 10 19,05:25:54.179,0.540601,-0.45248,-0.503917,-0.49908,-1.000031,-0.032228,0.060549,4.760742,6.103516,-0.610352,0,0
12504,2024 10 19,05:25:54.187,0.541026,-0.451977,-0.503849,-0.499144,-1.006378,-0.039064,0.036134,4.089355,6.164551,-0.488281,0,0
12505,2024 10 19,05:25:54.195,0.541348,-0.451572,-0.503729,-0.499281,-1.00296,-0.029786,0.072756,2.502441,5.615234,-0.671387,0,0
12506,2024 10 19,05:25:54.204,0.541635,-0.451193,-0.503572,-0.499471,-1.00882,-0.035646,0.045412,1.525879,5.92041,-0.915527,0,0
12507,2024 10 19,05:25:54.212,0.541635,-0.451193,-0.503572,-0.499471,-1.00882,-0.035646,0.045412,1.525879,5.92041,-0.915527,0,0
12508,2024 10 19,05:25:54.220,0.5419,-0.450847,-0.503386,-0.499684,-0.992706,-0.024903,0.081057,0.915527,6.04248,-0.793457,0,0
12509,2024 10 19,05:25:54.229,0.5422,-0.450489,-0.503172,-0.499897,-0.993194,-0.023438,0.067873,1.525879,6.225586,-0.488281,0,0
12510,2024 10 19,05:25:54.237,0.54252,-0.450117,-0.502992,-0.500066,-0.990265,-0.019044,0.090823,2.01416,5.92041,-0.549316,0,0
12511,2024 10 19,05:25:54.245,0.542829,-0.449728,-0.502864,-0.50021,-1.001007,-0.022462,0.068361,2.380371,5.432129,-0.854492,0,0
12512,2024 10 19,05:25:54.254,0.543097,-0.449336,-0.502767,-0.500368,-0.984405,-0.020997,0.097171,2.380371,5.126953,-1.281738,0,0
12513,2024 10 19,05:25:54.262,0.543097,-0.449336,-0.502767,-0.500368,-0.984405,-0.020997,0.097171,2.380371,5.126953,-1.281738,0,0
12514,2024 10 19,05:25:54.270,0.543336,-0.44895,-0.502729,-0.500494,-0.987335,-0.024903,0.084475,2.685547,4.089355,-1.586914,0,0
12515,2024 10 19,05:25:54.279,0.543483,-0.448621,-0.502771,-0.500587,-0.989776,-0.024415,0.084964,2.441406,2.563477,-1.89209,0,0
12516,2024 10 19,05:25:54.287,0.543631,-0.448283,-0.502824,-0.500675,-0.989288,-0.027833,0.075198,2.685547,3.112793,-1.89209,0,0
12517,2024 10 19,05:25:54.295,0.543775,-0.447944,-0.502881,-0.500766,-0.990265,-0.029786,0.080569,2.502441,2.685547,-2.075195,0,0
12518,2024 10 19,05:25:54.304,0.543856,-0.447648,-0.502957,-0.500866,-0.995636,-0.031739,0.077151,1.77002,2.075195,-2.319336,0,0
12519,2024 10 19,05:25:54.312,0.543856,-0.447648,-0.502957,-0.500866,-0.995636,-0.031739,0.077151,1.77002,2.075195,-2.319336,0,0
12520,2024 10 19,05:25:54.320,0.543916,-0.447365,-0.503017,-0.500992,-1.001984,-0.031251,0.064943,1.342773,2.441406,-2.380371,0,0
12521,2024 10 19,05:25:54.329,0.543954,-0.447101,-0.503051,-0.501153,-1.00589,-0.04297,0.064943,1.220703,2.319336,-2.502441,0,0
12522,2024 10 19,05:25:54.337,0.543949,-0.446869,-0.503059,-0.501357,-1.019074,-0.034181,0.06592,0.0,2.441406,-2.624512,0,0
12523,2024 10 19,05:25:54.345,0.543952,-0.446596,-0.503036,-0.501621,-1.022004,-0.026856,0.069338,0.12207,3.540039,-3.295898,0,0
12524,2024 10 19,05:25:54.354,0.543958,-0.446252,-0.503006,-0.501951,-1.014191,-0.030763,0.074221,0.12207,4.150391,-4.02832,0,0
12525,2024 10 19,05:25:54.362,0.543821,-0.445934,-0.503025,-0.502361,-1.03177,-0.012696,0.075198,-0.793457,2.319336,-5.737305,0,0
12526,2024 10 19,05:25:54.370,0.543821,-0.445934,-0.503025,-0.502361,-1.03177,-0.012696,0.075198,-0.793457,2.319336,-5.737305,0,0
12527,2024 10 19,05:25:54.379,0.543453,-0.445621,-0.50333,-0.502732,-1.071322,-0.014649,0.059572,-0.305176,-0.854492,-8.728027,0,0
12528,2024 10 19,05:25:54.387,0.542814,-0.445212,-0.50385,-0.503263,-1.07767,0.003906,0.050783,-0.915527,-2.258301,-13.183594,0,0
12529,2024 10 19,05:25:54.395,0.5419,-0.444705,-0.504791,-0.503754,-1.147496,-0.001953,0.008301,1.708984,-6.530762,-17.39502,0,0
12530,2024 10 19,05:25:54.404,0.540669,-0.443958,-0.506265,-0.504256,-1.273965,0.034669,-0.010743,5.065918,-9.094238,-24.108887,0,0
12531,2024 10 19,05:25:54.412,0.539631,-0.442363,-0.508101,-0.504923,-1.377483,-0.020997,-0.051759,13.122559,-2.01416,-30.700684,0,0
12532,2024 10 19,05:25:54.420,0.539631,-0.442363,-0.508101,-0.504923,-1.377483,-0.020997,-0.051759,13.122559,-2.01416,-30.700684,0,0
12533,2024 10 19,05:25:54.429,0.538484,-0.439941,-0.5102,-0.506145,-1.466842,0.092288,0.041505,15.075684,2.197266,-42.419434,0,0
12534,2024 10 19,05:25:54.437,0.53717,-0.436229,-0.51309,-0.507831,-1.977111,0.040529,0.135258,21.66748,6.347656,-61.828613,0,0
12535,2024 10 19,05:25:54.445,0.535135,-0.430655,-0.515579,-0.512196,-2.104556,0.098148,0.160161,10.070801,36.865234,-91.125488,0,0
12536,2024 10 19,05:25:54.454,0.534077,-0.422215,-0.516484,-0.519366,-1.910215,0.097171,0.089358,11.169434,84.289551,-109.924316,0,0
12537,2024 10 19,05:25:54.462,0.533133,-0.411924,-0.517032,-0.527983,-1.820856,0.139164,-0.125492,9.82666,94.970703,-127.990723,0,0
12538,2024 10 19,05:25:54.470,0.533133,-0.411924,-0.517032,-0.527983,-1.820856,0.139164,-0.125492,9.82666,94.970703,-127.990723,0,0
12539,2024 10 19,05:25:54.479,0.531446,-0.400729,-0.518304,-0.536976,-1.86285,0.133793,0.151372,16.845703,96.313477,-142.578125,0,0
12540,2024 10 19,05:25:54.487,0.530495,-0.38768,-0.518978,-0.546755,-1.83697,0.166021,0.077151,22.949219,122.131348,-149.047852,0,0
12541,2024 10 19,05:25:54.495,0.5301,-0.373206,-0.519237,-0.556869,-1.677786,0.115726,0.08594,28.686523,136.291504,-154.785156,0,1
12542,2024 10 19,05:25:54.504,0.530327,-0.358179,-0.518734,-0.566901,-1.809137,0.391613,0.241218,30.822754,147.949219,-145.629883,0,0
12543,2024 10 19,05:25:54.512,0.533759,-0.341683,-0.515737,-0.576515,-1.654836,0.67629,0.525407,43.640137,202.270508,-118.896484,0,0
12544,2024 10 19,05:25:54.520,0.533759,-0.341683,-0.515737,-0.576515,-1.654836,0.67629,0.525407,43.640137,202.270508,-118.896484,0,0
12545,2024 10 19,05:25:54.529,0.541754,-0.322313,-0.510568,-0.584754,-1.455122,0.359386,0.227058,71.533203,247.924805,-91.61377,0,0
12546,2024 10 19,05:25:54.537,0.55183,-0.301478,-0.504195,-0.591931,-0.674337,0.319346,0.215339,85.510254,270.507813,-74.523926,0,0
12547,2024 10 19,05:25:54.545,0.562516,-0.281774,-0.496743,-0.59785,0.861354,1.138218,-1.126011,80.078125,251.037598,-47.363281,0,0
12548,2024 10 19,05:25:54.554,0.568483,-0.270609,-0.496806,-0.597312,0.358898,1.169469,-0.919462,100.585938,57.312012,-19.042969,0,0
12549,2024 10 19,05:25:54.562,0.570739,-0.265086,-0.503884,-0.591682,-0.544939,1.505417,-0.247566,125.610352,-5.737305,0.061035,0,0
12550,2024 10 19,05:25:54.570,0.570739,-0.265086,-0.503884,-0.591682,-0.544939,1.505417,-0.247566,125.610352,-5.737305,0.061035,0,0
12551,2024 10 19,05:25:54.579,0.576925,-0.257405,-0.510048,-0.583739,-0.454115,1.119175,-0.780786,166.564941,25.45166,28.137207,0,0
12552,2024 10 19,05:25:54.587,0.583619,-0.249808,-0.517352,-0.573874,-0.17774,0.871609,-0.620624,182.800293,20.385742,41.992188,0,0
12553,2024 10 19,05:25:54.595,0.590645,-0.243005,-0.524591,-0.562932,0.026856,0.804224,-1.149449,176.696777,-2.319336,58.532715,0,0
12554,2024 10 19,05:25:54.604,0.59556,-0.240071,-0.533773,-0.550237,-0.32374,0.796899,-0.579608,166.07666,-50.537109,74.401855,0,0
12555,2024 10 19,05:25:54.612,0.601109,-0.238149,-0.541918,-0.536914,-0.414563,0.724631,-0.711936,159.301758,-40.893555,91.61377,0,0
12556,2024 10 19,05:25:54.620,0.601109,-0.238149,-0.541918,-0.536914,-0.414563,0.724631,-0.711936,159.301758,-40.893555,91.61377,0,0
12557,2024 10 19,05:25:54.629,0.606824,-0.237592,-0.549586,-0.522752,-0.517106,0.612323,-0.54152,153.137207,-50.78125,108.520508,0,0
12558,2024 10 19,05:25:54.637,0.612994,-0.237999,-0.556396,-0.507955,-0.598651,0.540544,-0.546892,146.54541,-46.630859,123.779297,0,0
12559,2024 10 19,05:25:54.645,0.619268,-0.239382,-0.562692,-0.492526,-0.670431,0.481948,-0.513199,141.296387,-53.100586,136.108398,0,0
12560,2024 10 19,05:25:54.654,0.625469,-0.241672,-0.568722,-0.476381,-0.807154,0.41261,-0.430677,138.366699,-56.945801,147.338867,0,0
12561,2024 10 19,05:25:54.662,0.631831,-0.24446,-0.574342,-0.459521,-0.91702,0.337413,-0.423353,138.122559,-58.044434,157.592773,0,0
12562,2024 10 19,05:25:54.670,0.631831,-0.24446,-0.574342,-0.459521,-0.91702,0.337413,-0.423353,138.122559,-58.044434,157.592773,0,0
12563,2024 10 19,05:25:54.679,0.638221,-0.247582,-0.579775,-0.441858,-1.089877,0.262703,-0.370617,141.113281,-60.546875,166.259766,0,0
12564,2024 10 19,05:25:54.687,0.644885,-0.250552,-0.584935,-0.423319,-1.229041,0.211432,-0.320811,148.681641,-56.57959,173.950195,0,0
12565,2024 10 19,05:25:54.695,0.652127,-0.252833,-0.589741,-0.403747,-1.301798,0.164068,-0.327647,162.353516,-50.170898,180.786133,0,0
12566,2024 10 19,05:25:54.704,0.659704,-0.254043,-0.594761,-0.382769,-1.3726,0.081545,-0.306162,183.47168,-50.048828,184.143066,0,0
12567,2024 10 19,05:25:54.712,0.6674,-0.253524,-0.600429,-0.36026,-1.441939,-0.042482,-0.336436,211.791992,-51.574707,181.884766,0,0
12568,2024 10 19,05:25:54.720,0.6674,-0.253524,-0.600429,-0.36026,-1.441939,-0.042482,-0.336436,211.791992,-51.574707,181.884766,0,0
12569,2024 10 19,05:25:54.729,0.674958,-0.250813,-0.607113,-0.336062,-1.488815,-0.196295,-0.375011,245.178223,-56.945801,176.452637,0,0
12570,2024 10 19,05:25:54.737,0.682194,-0.245746,-0.614844,-0.31014,-1.40434,-0.381359,-0.406262,277.832031,-62.62207,170.166016,0,0
12571,2024 10 19,05:25:54.745,0.688757,-0.238413,-0.623451,-0.282987,-1.213904,-0.695822,-0.580584,303.283691,-72.570801,158.14209,0,0
12572,2024 10 19,05:25:54.754,0.692764,-0.229556,-0.634181,-0.255336,-1.455611,-1.130406,-0.585467,313.720703,-108.093262,137.512207,0,0
12573,2024 10 19,05:25:54.762,0.694594,-0.21948,-0.645832,-0.228625,-1.679739,-1.355998,-0.421888,311.340332,-115.844727,114.074707,0,0
12574,2024 10 19,05:25:54.770,0.694594,-0.21948,-0.645832,-0.228625,-1.679739,-1.355998,-0.421888,311.340332,-115.844727,114.074707,0,0
12575,2024 10 19,05:25:54.779,0.696006,-0.208065,-0.656302,-0.203842,-1.777398,-1.629933,-0.482925,301.635742,-96.862793,92.529297,0,0
12576,2024 10 19,05:25:54.787,0.697881,-0.195695,-0.664546,-0.181779,-1.648,-1.971252,-0.563982,282.348633,-63.232422,71.899414,0,0
12577,2024 10 19,05:25:54.795,0.700096,-0.183214,-0.670528,-0.163374,-1.351115,-2.271065,-0.753929,247.619629,-38.146973,48.76709,0,0
12578,2024 10 19,05:25:54.804,0.701275,-0.171519,-0.675656,-0.149278,-2.312571,-2.852138,-0.885281,201.965332,-36.254883,19.226074,0,0
12579,2024 10 19,05:25:54.812,0.69809,-0.158196,-0.683233,-0.144348,-1.138707,-2.906827,0.976592,126.159668,-62.438965,-93.87207,0,0
12580,2024 10 19,05:25:54.820,0.699757,-0.142296,-0.684919,-0.14484,-3.338481,-4.564592,0.258797,141.967773,21.850586,-120.97168,1,0
12581,2024 10 19,05:25:54.829,0.699757,-0.142296,-0.684919,-0.14484,-3.338481,-4.564592,0.258797,141.967773,21.850586,-120.97168,0,0
12582,2024 10 19,05:25:54.837,0.706273,-0.125894,-0.680389,-0.149664,-0.434584,-2.190008,1.854549,72.692871,209.472656,-113.220215,0,0
12583,2024 10 19,05:25:54.845,0.725392,-0.117942,-0.659941,-0.156122,1.930723,-1.012726,-1.874569,17.51709,279.846191,-24.047852,0,0
12584,2024 10 19,05:25:54.854,0.72026,-0.124416,-0.664157,-0.156979,-0.616718,0.621601,0.994171,-106.262207,-182.617188,33.996582,0,0
12585,2024 10 19,05:25:54.862,0.714053,-0.130001,-0.670119,-0.155465,-2.019593,0.135258,1.400433,-2.01416,-39.611816,30.883789,0,0
12586,2024 10 19,05:25:54.870,0.720099,-0.129247,-0.663768,-0.155447,-0.717307,0.094241,-1.251503,19.65332,96.435547,11.169434,0,0
12587,2024 10 19,05:25:54.879,0.720099,-0.129247,-0.663768,-0.155447,-0.717307,0.094241,-1.251503,19.65332,96.435547,11.169434,0,0
12588,2024 10 19,05:25:54.887,0.717811,-0.129035,-0.666653,-0.153853,-1.349651,-0.028809,0.003906,3.295898,-70.43457,-0.427246,0,0
12589,2024 10 19,05:25:54.895,0.71717,-0.128742,-0.66758,-0.153069,-1.184118,-0.095218,0.545427,12.390137,20.629883,3.479004,0,0
12590,2024 10 19,05:25:54.904,0.719816,-0.12777,-0.664956,-0.152884,-0.749535,-0.043458,-0.61037,8.605957,26.550293,1.77002,0,0
12591,2024 10 19,05:25:54.912,0.717402,-0.128085,-0.667567,-0.152586,-1.231483,-0.016602,0.340342,-1.586914,-46.936035,-4.02832,0,0
12592,2024 10 19,05:25:54.920,0.717541,-0.127668,-0.667525,-0.152466,-1.055208,-0.041993,0.056642,6.896973,18.554688,-1.159668,0,0
12593,2024 10 19,05:25:54.929,0.717541,-0.127668,-0.667525,-0.152466,-1.055208,-0.041993,0.056642,6.896973,18.554688,-1.159668,0,0
12594,2024 10 19,05:25:54.937,0.71817,-0.127148,-0.666957,-0.152425,-0.905301,-0.081057,-0.225105,1.953125,-1.220703,-2.13623,0,0
12595,2024 10 19,05:25:54.945,0.716727,-0.12748,-0.668431,-0.15248,-1.087435,-0.001953,0.308115,-2.624512,-21.911621,-2.01416,0,0
12596,2024 10 19,05:25:54.954,0.717019,-0.127212,-0.668219,-0.152264,-0.960479,-0.034669,-0.013184,6.04248,9.277344,1.037598,0,0
12597,2024 10 19,05:25:54.962,0.716918,-0.127026,-0.668454,-0.151861,-0.961455,-0.036134,0.029786,3.662109,-8.789063,1.403809,0,0
12598,2024 10 19,05:25:54.970,0.716395,-0.127035,-0.669137,-0.151314,-1.031281,-0.04004,0.142582,5.371094,-7.568359,3.234863,0,0
12599,2024 10 19,05:25:54.979,0.716395,-0.127035,-0.669137,-0.151314,-1.031281,-0.04004,0.142582,5.371094,-7.568359,3.234863,0,0
12600,2024 10 19,05:25:54.987,0.716545,-0.126873,-0.669153,-0.150667,-1.00882,-0.063478,-0.074709,6.591797,0.488281,4.699707,0,0
12601,2024 10 19,05:25:54.995,0.716204,-0.126999,-0.669609,-0.15016,-1.050325,-0.035157,0.038575,2.01416,-8.300781,3.90625,0,0
12602,2024 10 19,05:25:55.004,0.716072,-0.127103,-0.669824,-0.149737,-1.036164,-0.028321,0.053713,2.441406,-1.098633,3.723145,0,0
12603,2024 10 19,05:25:55.012,0.716079,-0.12716,-0.669877,-0.149422,-1.01175,-0.028321,0.008301,1.342773,-2.01416,2.685547,0,0
12604,2024 10 19,05:25:55.020,0.7158,-0.127284,-0.670191,-0.149242,-1.02591,-0.019044,0.093265,0.305176,-4.943848,1.220703,0,0
12605,2024 10 19,05:25:55.029,0.7158,-0.127284,-0.670191,-0.149242,-1.02591,-0.019044,0.093265,0.305176,-4.943848,1.220703,0,0
12606,2024 10 19,05:25:55.037,0.715703,-0.12729,-0.670318,-0.14913,-1.001984,-0.033692,0.032716,0.854492,-1.464844,0.305176,0,0
12607,2024 10 19,05:25:55.045,0.715464,-0.127344,-0.670565,-0.149121,-1.012726,-0.033204,0.039064,-0.854492,-4.821777,-0.427246,0,0
12608,2024 10 19,05:25:55.054,0.7152,-0.127427,-0.670823,-0.149157,-1.016144,-0.037111,0.049806,-0.915527,-3.417969,-0.366211,0,0
12609,2024 10 19,05:25:55.062,0.715074,-0.127514,-0.670931,-0.149202,-0.997589,-0.04297,0.018555,-1.403809,-1.953125,0.061035,0,0
12610,2024 10 19,05:25:55.070,0.714898,-0.127675,-0.671077,-0.149251,-1.006867,-0.028809,0.057619,-1.708984,-2.807617,0.488281,0,0
12611,2024 10 19,05:25:55.079,0.714898,-0.127675,-0.671077,-0.149251,-1.006867,-0.028809,0.057619,-1.708984,-2.807617,0.488281,0,0
12612,2024 10 19,05:25:55.087,0.714821,-0.127817,-0.671134,-0.14924,-1.004913,-0.028809,0.041993,-0.976563,-0.793457,1.037598,0,0
12613,2024 10 19,05:25:55.095,0.71483,-0.127943,-0.671112,-0.149189,-0.992218,-0.028321,0.054201,-0.549316,0.061035,1.525879,0,0
12614,2024 10 19,05:25:55.104,0.714871,-0.128066,-0.67107,-0.149075,-0.984893,-0.028321,0.061037,0.0,0.244141,2.13623,0,0
12615,2024 10 19,05:25:55.112,0.714871,-0.128212,-0.671081,-0.148901,-0.994659,-0.024903,0.052248,0.12207,-0.976563,2.685547,0,0
12616,2024 10 19,05:25:55.120,0.714867,-0.128358,-0.671103,-0.148694,-1.003449,-0.029298,0.050295,0.305176,-0.488281,2.807617,0,0
12617,2024 10 19,05:25:55.129,0.714867,-0.128358,-0.671103,-0.148694,-1.003449,-0.029298,0.050295,0.305176,-0.488281,2.807617,0,0
12618,2024 10 19,05:25:55.137,0.714907,-0.128483,-0.671079,-0.148503,-0.999542,-0.026856,0.047365,0.366211,0.061035,2.502441,0,0
12619,2024 10 19,05:25:55.145,0.714903,-0.128622,-0.671089,-0.148356,-1.00589,-0.023927,0.046388,-0.183105,-0.732422,2.13623,0,0
12620,2024 10 19,05:25:55.154,0.71491,-0.128741,-0.671082,-0.148248,-0.997101,-0.024415,0.067873,-0.244141,-0.061035,1.708984,0,0
12621,2024 10 19,05:25:55.162,0.714919,-0.128831,-0.671074,-0.148164,-0.993194,-0.028321,0.047365,-0.183105,-0.427246,1.342773,0,0
12622,2024 10 19,05:25:55.170,0.714858,-0.128944,-0.671131,-0.148107,-0.994659,-0.028809,0.052248,-0.671387,-1.342773,1.098633,0,0
12623,2024 10 19,05:25:55.179,0.714858,-0.128944,-0.671131,-0.148107,-0.994659,-0.028809,0.052248,-0.671387,-1.342773,1.098633,0,0
12624,2024 10 19,05:25:55.187,0.714782,-0.12908,-0.671188,-0.148094,-0.992706,-0.030763,0.040529,-1.342773,-1.342773,0.793457,0,0
12625,2024 10 19,05:25:55.195,0.714627,-0.129269,-0.671301,-0.148168,-0.995148,-0.027345,0.053713,-2.380371,-2.807617,0.305176,0,0
12626,2024 10 19,05:25:55.204,0.714403,-0.129481,-0.671471,-0.14829,-1.008332,-0.027345,0.051271,-2.990723,-3.356934,0.0,0,0
12627,2024 10 19,05:25:55.212,0.714137,-0.129688,-0.671664,-0.148512,-1.057649,-0.008789,0.023438,-3.662109,-3.723145,-1.342773,0,0
12628,2024 10 19,05:25:55.220,0.713955,-0.129755,-0.671777,-0.148819,-1.06888,-0.013672,0.034181,-2.807617,-0.976563,-2.929688,0,0
12629,2024 10 19,05:25:55.229,0.713955,-0.129755,-0.671777,-0.148819,-1.06888,-0.013672,0.034181,-2.807617,-0.976563,-2.929688,0,0
12630,2024 10 19,05:25:55.237,0.713975,-0.129651,-0.671682,-0.149246,-1.056185,-0.025391,0.014161,-2.502441,2.502441,-4.516602,0,0
12631,2024 10 19,05:25:55.245,0.714032,-0.129476,-0.671516,-0.149868,-1.07181,-0.023438,0.013672,-3.967285,3.479004,-6.591797,0,0
12632,2024 10 19,05:25:55.254,0.714179,-0.129229,-0.671218,-0.150715,-1.092807,-0.031739,0.004395,-5.126953,6.408691,-8.789063,0,0
12633,2024 10 19,05:25:55.262,0.714408,-0.12888,-0.670774,-0.151898,-1.108921,-0.023927,-0.021973,-7.324219,8.178711,-12.390137,0,0
12634,2024 10 19,05:25:55.270,0.714542,-0.128393,-0.670361,-0.153495,-1.127476,-0.000977,0.009766,-9.033203,8.117676,-17.272949,0,0
12635,2024 10 19,05:25:55.279,0.714712,-0.127504,-0.669939,-0.15528,-1.130894,0.012207,-0.008301,-6.103516,9.643555,-21.911621,0,0
12636,2024 10 19,05:25:55.287,0.714712,-0.127504,-0.669939,-0.15528,-1.130894,0.012207,-0.008301,-6.103516,9.643555,-21.911621,0,0
12637,2024 10 19,05:25:55.295,0.714812,-0.126052,-0.669682,-0.1571,-1.119175,0.035157,0.026856,-0.671387,7.751465,-27.34375,0,0
12638,2024 10 19,05:25:55.304,0.714651,-0.123725,-0.669904,-0.158729,-1.244667,0.004883,-0.110843,8.911133,2.01416,-34.118652,0,0
12639,2024 10 19,05:25:55.312,0.713904,-0.120686,-0.670767,-0.160771,-1.290078,0.069826,-0.002441,10.681152,-4.333496,-45.837402,0,0
12640,2024 10 19,05:25:55.320,0.713154,-0.116464,-0.671794,-0.162914,-1.394086,0.069826,0.04297,21.484375,-1.77002,-56.152344,0,0
12641,2024 10 19,05:25:55.329,0.712343,-0.110804,-0.672958,-0.165584,-1.540086,0.078127,0.295907,27.282715,-1.220703,-75.561523,0,0
12642,2024 10 19,05:25:55.337,0.712343,-0.110804,-0.672958,-0.165584,-1.540086,0.078127,0.295907,27.282715,-1.220703,-75.561523,0,0
12643,2024 10 19,05:25:55.345,0.711585,-0.103789,-0.673758,-0.170073,-2.047426,0.059084,0.006836,16.845703,9.70459,-101.501465,0,0
12644,2024 10 19,05:25:55.354,0.711927,-0.095726,-0.672763,-0.177164,-1.919981,0.169439,0.35548,9.94873,47.241211,-123.901367,0,0
12645,2024 10 19,05:25:55.362,0.714589,-0.085609,-0.669147,-0.185139,-1.682669,0.041505,-0.228034,20.080566,83.679199,-138.61084,0,0
12646,2024 10 19,05:25:55.370,0.716222,-0.074768,-0.66629,-0.19363,-1.712455,0.17188,0.150395,17.089844,65.917969,-151.367188,0,0
12647,2024 10 19,05:25:55.379,0.718755,-0.062848,-0.662296,-0.202003,-1.668508,0.129398,0.122074,31.555176,95.397949,-152.648926,0,1
12648,2024 10 19,05:25:55.387,0.718755,-0.062848,-0.662296,-0.202003,-1.668508,0.129398,0.122074,31.555176,95.397949,-152.648926,0,0
12649,2024 10 19,05:25:55.395,0.72248,-0.049902,-0.657024,-0.209407,-1.630909,0.0,0.227546,43.09082,108.520508,-146.54541,0,0
12650,2024 10 19,05:25:55.404,0.727654,-0.038144,-0.649804,-0.216378,-1.136265,0.912137,0.287118,29.174805,142.272949,-125.244141,0,0
12651,2024 10 19,05:25:55.412,0.735999,-0.02725,-0.640038,-0.218895,-0.139164,1.588427,-0.081057,59.631348,177.55127,-69.091797,0,0
12652,2024 10 19,05:25:55.420,0.743125,-0.01631,-0.633434,-0.215083,0.187506,1.270547,-0.697775,119.934082,113.40332,-29.174805,0,0
12653,2024 10 19,05:25:55.429,0.746166,-0.006317,-0.632416,-0.207956,0.119633,1.382855,-1.032746,142.700195,43.09082,-3.295898,0,0
12654,2024 10 19,05:25:55.437,0.746166,-0.006317,-0.632416,-0.207956,0.119633,1.382855,-1.032746,142.700195,43.09082,-3.295898,0,0
12655,2024 10 19,05:25:55.445,0.745941,0.002801,-0.635717,-0.198565,-0.247566,1.336467,-0.681173,154.968262,-17.822266,8.056641,0,0
12656,2024 10 19,05:25:55.454,0.745293,0.011351,-0.639674,-0.187688,-0.212409,1.350627,-0.722678,163.208008,-9.70459,28.625488,0,0
12657,2024 10 19,05:25:55.462,0.745016,0.017878,-0.643523,-0.174668,-0.152837,1.261269,-0.862331,157.592773,-20.935059,65.979004,0,0
12658,2024 10 19,05:25:55.470,0.744245,0.021157,-0.648113,-0.160006,-0.278817,1.084506,-0.696799,140.991211,-31.25,102.661133,0,0
12659,2024 10 19,05:25:55.479,0.743543,0.021162,-0.652533,-0.144555,-0.404309,0.917508,-0.715842,116.394043,-38.574219,133.056641,0,0
12660,2024 10 19,05:25:55.487,0.743543,0.021162,-0.652533,-0.144555,-0.404309,0.917508,-0.715842,116.394043,-38.574219,133.056641,0,0
12661,2024 10 19,05:25:55.495,0.742521,0.017881,-0.657095,-0.128719,-0.680685,0.785668,-0.430677,92.407227,-43.640137,160.15625,0,0
12662,2024 10 19,05:25:55.504,0.742202,0.012111,-0.660561,-0.112468,-0.790063,0.688986,-0.362804,74.584961,-31.982422,182.373047,0,0
12663,2024 10 19,05:25:55.512,0.741957,0.004713,-0.663581,-0.095589,-0.960967,0.569842,-0.23487,67.993164,-32.958984,199.34082,0,0
12664,2024 10 19,05:25:55.520,0.741709,-0.003247,-0.666178,-0.077867,-1.108921,0.400891,-0.183111,71.655273,-28.564453,209.777832,0,0
12665,2024 10 19,05:25:55.529,0.741236,-0.010685,-0.668531,-0.059343,-1.215857,0.160649,-0.193854,83.92334,-30.334473,210.998535,0,0
12666,2024 10 19,05:25:55.537,0.741236,-0.010685,-0.668531,-0.059343,-1.215857,0.160649,-0.193854,83.92334,-30.334473,210.998535,0,0
12667,2024 10 19,05:25:55.545,0.740085,-0.016595,-0.6711,-0.040302,-1.264199,-0.11475,-0.175298,101.867676,-37.353516,202.331543,0,0
12668,2024 10 19,05:25:55.554,0.737839,-0.020228,-0.674344,-0.021092,-1.276406,-0.426283,-0.236824,123.046875,-53.466797,185.302734,0,0
12669,2024 10 19,05:25:55.562,0.733829,-0.020835,-0.679011,-0.00221,-1.368694,-0.725608,-0.158208,146.606445,-80.13916,157.409668,0,0
12670,2024 10 19,05:25:55.570,0.728444,-0.017823,-0.684694,0.015664,-1.414594,-1.009796,-0.168462,168.273926,-95.64209,120.605469,0,0
12671,2024 10 19,05:25:55.579,0.722176,-0.011471,-0.69087,0.032087,-1.389203,-1.3184,-0.224128,181.70166,-106.323242,84.533691,0,0
12672,2024 10 19,05:25:55.587,0.722176,-0.011471,-0.69087,0.032087,-1.389203,-1.3184,-0.224128,181.70166,-106.323242,84.533691,0,0
12673,2024 10 19,05:25:55.595,0.715204,-0.002683,-0.697354,0.04662,-1.343791,-1.653859,-0.330576,183.776855,-114.746094,52.67334,0,0
12674,2024 10 19,05:25:55.604,0.707602,0.007604,-0.704137,0.058591,-1.30961,-1.938047,-0.34669,172.668457,-121.948242,22.033691,0,0
12675,2024 10 19,05:25:55.612,0.699784,0.01865,-0.710931,0.067324,-1.229041,-2.038148,-0.26368,150.512695,-123.046875,-8.911133,0,0
12676,2024 10 19,05:25:55.620,0.691478,0.030507,-0.718191,0.071617,-3.550401,-3.108982,-0.315928,115.478516,-144.65332,-61.218262,0,0
12677,2024 10 19,05:25:55.629,0.68378,0.045808,-0.725221,0.066331,-2.880459,-2.611408,1.455611,65.490723,-83.496094,-148.31543,0,0
12678,2024 10 19,05:25:55.637,0.68378,0.045808,-0.725221,0.066331,-2.880459,-2.611408,1.455611,65.490723,-83.496094,-148.31543,0,0
12679,2024 10 19,05:25:55.645,0.686849,0.062904,-0.721335,0.062905,-1.645558,-3.842891,3.24131,106.933594,70.617676,-150.390625,1,0
12680,2024 10 19,05:25:55.654,0.708538,0.067038,-0.699813,0.061166,-0.196783,-0.345714,-1.693899,-1.586914,389.648438,-46.569824,0,0
12681,2024 10 19,05:25:55.662,0.717867,0.064912,-0.690584,0.059556,0.044923,0.193854,-0.494644,-77.026367,55.908203,2.075195,0,0
12682,2024 10 19,05:25:55.670,0.713449,0.061966,-0.695561,0.057842,-1.691458,0.044923,1.234901,1.831055,-66.955566,19.714355,0,0
12683,2024 10 19,05:25:55.679,0.719406,0.061788,-0.689186,0.060502,-0.921903,0.308115,0.011231,31.25,137.023926,11.169434,0,0
12684,2024 10 19,05:25:55.687,0.723617,0.063679,-0.684259,0.064135,-0.854518,-0.222175,-0.858913,34.057617,39.794922,5.371094,0,0
12685,2024 10 19,05:25:55.695,0.723617,0.063679,-0.684259,0.064135,-0.854518,-0.222175,-0.858913,34.057617,39.794922,5.371094,0,0
12686,2024 10 19,05:25:55.704,0.722181,0.064493,-0.685635,0.064809,-1.125523,0.028321,0.715354,10.986328,-21.789551,2.685547,0,0
12687,2024 10 19,05:25:55.712,0.724132,0.065274,-0.683295,0.066925,-0.855983,-0.082034,-0.00293,25.695801,48.156738,9.521484,0,0
12688,2024 10 19,05:25:55.720,0.724897,0.065642,-0.682325,0.068169,-0.776879,-0.059084,-0.157231,7.751465,-5.004883,4.882813,0,0
12689,2024 10 19,05:25:55.729,0.722704,0.065774,-0.684651,0.068005,-1.121616,0.012696,0.295419,-1.037598,-36.560059,0.671387,0,0
12690,2024 10 19,05:25:55.737,0.722233,0.065962,-0.685112,0.068189,-1.022492,-0.055666,-0.099124,3.295898,-0.549316,0.732422,0,0
12691,2024 10 19,05:25:55.745,0.722233,0.065962,-0.685112,0.068189,-1.022492,-0.055666,-0.099124,3.295898,-0.549316,0.732422,0,0
12692,2024 10 19,05:25:55.754,0.721439,0.065967,-0.68598,0.067865,-1.041047,-0.033204,-0.144536,-4.516602,-20.324707,-1.77002,0,0
12693,2024 10 19,05:25:55.762,0.720053,0.065871,-0.687503,0.067262,-1.140172,0.002441,0.10596,-5.493164,-19.287109,-1.647949,0,0
12694,2024 10 19,05:25:55.770,0.719963,0.065823,-0.687617,0.067114,-1.04886,-0.015137,-0.0918,-0.976563,1.586914,-0.549316,0,0
12695,2024 10 19,05:25:55.779,0.719658,0.065881,-0.687948,0.066925,-1.080111,-0.00293,-0.027345,-1.037598,-7.324219,-1.89209,0,0
12696,2024 10 19,05:25:55.787,0.719528,0.066096,-0.688076,0.066805,-1.083529,-0.000488,0.075198,1.77002,1.525879,-2.807617,0,0
12697,2024 10 19,05:25:55.795,0.719528,0.066096,-0.688076,0.066805,-1.083529,-0.000488,0.075198,1.77002,1.525879,-2.807617,0,0
12698,2024 10 19,05:25:55.804,0.72005,0.066432,-0.687487,0.066907,-0.993683,-0.038087,-0.033692,3.601074,9.033203,-2.685547,0,0
12699,2024 10 19,05:25:55.812,0.720149,0.066684,-0.687371,0.066778,-1.003937,-0.030763,0.04883,0.305176,-0.732422,-3.234863,0,0
12700,2024 10 19,05:25:55.820,0.720169,0.06685,-0.687358,0.066536,-1.019562,-0.02295,0.043947,-0.549316,0.915527,-3.234863,0,0
12701,2024 10 19,05:25:55.829,0.720275,0.066949,-0.687264,0.066259,-0.997101,-0.027345,-0.000977,-1.77002,0.610352,-3.295898,0,0
12702,2024 10 19,05:25:55.837,0.720184,0.066975,-0.687397,0.065842,-1.014679,-0.021973,0.044923,-3.662109,-2.380371,-3.479004,0,0
12703,2024 10 19,05:25:55.845,0.720184,0.066975,-0.687397,0.065842,-1.014679,-0.021973,0.044923,-3.662109,-2.380371,-3.479004,0,0
12704,2024 10 19,05:25:55.854,0.720184,0.06697,-0.687441,0.065387,-1.013214,-0.018067,0.012696,-3.662109,-0.305176,-3.662109,0,0
12705,2024 10 19,05:25:55.862,0.720154,0.066991,-0.687509,0.064974,-1.010285,-0.016114,0.034181,-2.929688,-1.403809,-3.417969,0,0
12706,2024 10 19,05:25:55.870,0.720189,0.06704,-0.687498,0.064657,-1.004425,-0.014649,0.042482,-1.831055,0.854492,-2.929688,0,0
12707,2024 10 19,05:25:55.879,0.720336,0.067093,-0.687356,0.06446,-0.987335,-0.027833,0.021973,-1.098633,1.953125,-2.075195,0,0
12708,2024 10 19,05:25:55.887,0.720402,0.067101,-0.687307,0.064253,-0.994171,-0.021973,0.034669,-1.708984,0.305176,-1.77002,0,0
12709,2024 10 19,05:25:55.895,0.720402,0.067101,-0.687307,0.064253,-0.994171,-0.021973,0.034669,-1.708984,0.305176,-1.77002,0,0
12710,2024 10 19,05:25:55.904,0.720472,0.067117,-0.687253,0.06403,-1.005402,-0.016114,0.033204,-1.525879,1.098633,-2.075195,0,0
12711,2024 10 19,05:25:55.912,0.720592,0.067177,-0.68714,0.063821,-1.004425,-0.021485,0.019044,-1.281738,1.831055,-2.441406,0,0
12712,2024 10 19,05:25:55.920,0.720714,0.06725,-0.68703,0.063545,-1.000519,-0.019044,0.038575,-1.464844,1.525879,-3.173828,0,0
12713,2024 10 19,05:25:55.929,0.720838,0.067354,-0.686918,0.063244,-0.991241,-0.023438,0.033692,-1.708984,1.647949,-3.479004,0,0
12714,2024 10 19,05:25:55.937,0.720934,0.067464,-0.686835,0.062925,-0.983917,-0.024903,0.041993,-1.464844,0.793457,-3.601074,0,0
12715,2024 10 19,05:25:55.945,0.720934,0.067464,-0.686835,0.062925,-0.983917,-0.024903,0.041993,-1.464844,0.793457,-3.601074,0,0
12716,2024 10 19,05:25:55.954,0.720971,0.067565,-0.686817,0.062597,-0.980499,-0.028809,0.037599,-2.075195,-0.183105,-3.417969,0,0
12717,2024 10 19,05:25:55.962,0.720947,0.067622,-0.686867,0.062269,-0.985382,-0.029298,0.029786,-2.075195,-1.159668,-2.990723,0,0
12718,2024 10 19,05:25:55.970,0.720912,0.067658,-0.686928,0.061962,-0.989288,-0.023927,0.036622,-2.13623,-1.037598,-2.624512,0,0
12719,2024 10 19,05:25:55.979,0.720866,0.067664,-0.687,0.061679,-0.993683,-0.027345,0.027345,-2.258301,-1.464844,-2.197266,0,0
12720,2024 10 19,05:25:55.987,0.720789,0.067654,-0.687107,0.061402,-1.001007,-0.02295,0.035646,-2.441406,-1.586914,-1.953125,0,0
12721,2024 10 19,05:25:55.995,0.720789,0.067654,-0.687107,0.061402,-1.001007,-0.02295,0.035646,-2.441406,-1.586914,-1.953125,0,0
12722,2024 10 19,05:25:56.004,0.720751,0.067622,-0.687172,0.061159,-1.001007,-0.030274,0.02002,-2.258301,-0.915527,-1.708984,0,0
12723,2024 10 19,05:25:56.012,0.720705,0.067559,-0.687254,0.060844,-1.001984,-0.02588,0.030763,-3.234863,-1.464844,-2.075195,0,0
12724,2024 10 19,05:25:56.020,0.72063,0.067495,-0.687372,0.060469,-1.005402,-0.028809,0.033204,-3.662109,-1.89209,-2.502441,0,0
12725,2024 10 19,05:25:56.029,0.720552,0.067435,-0.687499,0.060018,-1.018098,-0.029298,0.019532,-4.333496,-2.075195,-3.356934,0,0
12726,2024 10 19,05:25:56.037,0.720457,0.067379,-0.687654,0.059439,-1.039582,-0.023438,0.016602,-5.249023,-2.319336,-4.394531,0,0
12727,2024 10 19,05:25:56.045,0.720457,0.067379,-0.687654,0.059439,-1.039582,-0.023438,0.016602,-5.249023,-2.319336,-4.394531,0,0
12728,2024 10 19,05:25:56.054,0.720434,0.067385,-0.687733,0.05879,-1.055696,-0.016114,0.019044,-4.882813,-0.915527,-5.615234,0,0
12729,2024 10 19,05:25:56.062,0.720552,0.067502,-0.687655,0.058119,-1.059603,-0.02002,0.007324,-4.333496,1.708984,-7.080078,0,0
12730,2024 10 19,05:25:56.070,0.720769,0.067763,-0.687465,0.057376,-1.084018,-0.013672,-0.003418,-3.540039,2.990723,-9.033203,0,0
12731,2024 10 19,05:25:56.079,0.72117,0.068204,-0.68706,0.056667,-1.086947,-0.02002,-0.00293,-1.220703,7.080078,-10.314941,0,0
12732,2024 10 19,05:25:56.087,0.72182,0.068863,-0.686363,0.056033,-1.067904,-0.016114,-0.001953,0.732422,10.864258,-11.84082,0,0
12733,2024 10 19,05:25:56.095,0.72182,0.068863,-0.686363,0.056033,-1.067904,-0.016114,-0.001953,0.732422,10.864258,-11.84082,0,0
12734,2024 10 19,05:25:56.104,0.722493,0.069774,-0.685611,0.055424,-1.085971,-0.016602,-0.018555,2.990723,10.498047,-13.977051,0,0
12735,2024 10 19,05:25:56.112,0.723104,0.071014,-0.684893,0.054771,-1.126499,-0.030274,-0.055177,6.04248,9.70459,-17.089844,0,0
12736,2024 10 19,05:25:56.120,0.723623,0.072698,-0.684234,0.053934,-1.174841,-0.004883,-0.089358,7.629395,7.568359,-22.460938,0,0
12737,2024 10 19,05:25:56.129,0.723874,0.074941,-0.683823,0.052689,-1.224647,0.020997,-0.002441,10.070801,2.685547,-30.761719,0,0
12738,2024 10 19,05:25:56.137,0.724048,0.078088,-0.683404,0.051143,-1.323771,0.012696,-0.080081,16.845703,2.01416,-40.710449,0,0
12739,2024 10 19,05:25:56.145,0.723977,0.082057,-0.683191,0.048729,-1.468307,0.021973,0.082522,13.793945,-4.394531,-56.396484,0,0
12740,2024 10 19,05:25:56.154,0.723977,0.082057,-0.683191,0.048729,-1.468307,0.021973,0.082522,13.793945,-4.394531,-56.396484,0,0
12741,2024 10 19,05:25:56.162,0.724171,0.087113,-0.682629,0.044793,-1.736381,-0.006348,0.116214,12.512207,0.915527,-79.467773,0,0
12742,2024 10 19,05:25:56.170,0.724909,0.092931,-0.681462,0.038475,-1.895566,0.118656,0.035157,-12.817383,10.009766,-108.642578,0,0
12743,2024 10 19,05:25:56.179,0.72734,0.099422,-0.678345,0.030644,-1.883358,0.059572,0.080081,-2.624512,43.579102,-125.305176,0,0
12744,2024 10 19,05:25:56.187,0.731516,0.107142,-0.672991,0.022081,-1.837947,0.185553,-0.04883,-3.90625,70.251465,-145.629883,0,0
12745,2024 10 19,05:25:56.195,0.736458,0.116608,-0.666218,0.013607,-1.930235,0.121097,0.010254,12.268066,88.07373,-159.240723,0,0
12746,2024 10 19,05:25:56.204,0.736458,0.116608,-0.666218,0.013607,-1.930235,0.121097,0.010254,12.268066,88.07373,-159.240723,0,0
12747,2024 10 19,05:25:56.212,0.742339,0.127469,-0.657772,0.004542,-2.012269,0.210944,-0.015137,16.906738,105.651855,-180.297852,0,0
12748,2024 10 19,05:25:56.220,0.748291,0.139769,-0.648456,-0.005478,-1.998596,0.285165,0.13184,23.55957,113.891602,-199.21875,0,0
12749,2024 10 19,05:25:56.229,0.75517,0.153578,-0.637102,-0.015259,-1.864315,0.050783,0.027833,37.780762,140.075684,-210.388184,0,0
12750,2024 10 19,05:25:56.237,0.762091,0.167911,-0.624805,-0.025317,-1.670461,0.023438,-0.030274,33.996582,143.615723,-215.087891,0,1
12751,2024 10 19,05:25:56.245,0.769337,0.181115,-0.611652,-0.034638,-1.532762,0.345225,0.118168,25.268555,160.644531,-196.105957,0,0
12752,2024 10 19,05:25:56.254,0.769337,0.181115,-0.611652,-0.034638,-1.532762,0.345225,0.118168,25.268555,160.644531,-196.105957,0,0
12753,2024 10 19,05:25:56.262,0.778041,0.192315,-0.59667,-0.040656,-1.759819,0.623066,0.143071,40.83252,193.847656,-153.503418,0,0
12754,2024 10 19,05:25:56.270,0.789207,0.202674,-0.578195,-0.042038,-0.888699,0.755394,0.313486,53.955078,266.113281,-114.624023,0,0
12755,2024 10 19,05:25:56.279,0.803194,0.210777,-0.555873,-0.038177,1.189978,1.222694,-1.144078,61.096191,306.091309,-50.964355,0,0
12756,2024 10 19,05:25:56.287,0.810268,0.216745,-0.543585,-0.031671,1.229041,1.658742,-1.640187,69.152832,127.746582,1.159668,0,0
12757,2024 10 19,05:25:56.295,0.808909,0.221609,-0.543945,-0.026053,0.122562,1.440474,-0.814478,90.637207,-17.822266,21.850586,0,0
12758,2024 10 19,05:25:56.304,0.808909,0.221609,-0.543945,-0.026053,0.122562,1.440474,-0.814478,90.637207,-17.822266,21.850586,0,0
12759,2024 10 19,05:25:56.312,0.805988,0.225381,-0.547032,-0.018488,-0.307138,1.780328,-0.760277,102.050781,-17.944336,55.480957,0,0
12760,2024 10 19,05:25:56.320,0.803241,0.229305,-0.549701,-0.007132,-0.335459,1.57329,-0.564959,118.652344,-3.417969,85.021973,0,0
12761,2024 10 19,05:25:56.329,0.801154,0.232306,-0.551484,0.00721,0.125492,1.303262,-1.041047,122.192383,13.183594,118.408203,0,0
12762,2024 10 19,05:25:56.337,0.797283,0.233185,-0.556278,0.022786,0.008301,1.086947,-0.914579,112.548828,-36.865234,153.198242,0,0
12763,2024 10 19,05:25:56.345,0.791874,0.231526,-0.563744,0.039041,-0.310068,0.957549,-0.718772,98.205566,-56.45752,182.373047,0,0
12764,2024 10 19,05:25:56.354,0.791874,0.231526,-0.563744,0.039041,-0.310068,0.957549,-0.718772,98.205566,-56.45752,182.373047,0,0
12765,2024 10 19,05:25:56.362,0.785758,0.227772,-0.572306,0.056298,-0.586932,0.844264,-0.513688,87.646484,-69.702148,207.03125,0,0
12766,2024 10 19,05:25:56.370,0.779264,0.222371,-0.581116,0.074851,-0.768578,0.727073,-0.346202,84.16748,-63.781738,230.34668,0,0
12767,2024 10 19,05:25:56.379,0.77249,0.215854,-0.589638,0.09483,-0.868191,0.591815,-0.336924,85.876465,-63.537598,248.840332,0,0
12768,2024 10 19,05:25:56.387,0.764626,0.209363,-0.598459,0.11559,-1.035188,0.404797,-0.215339,95.76416,-72.143555,254.882813,0,0
12769,2024 10 19,05:25:56.395,0.755624,0.203873,-0.607277,0.136684,-1.179724,0.136235,-0.264168,110.534668,-81.848145,251.586914,0,0
12770,2024 10 19,05:25:56.404,0.755624,0.203873,-0.607277,0.136684,-1.179724,0.136235,-0.264168,110.534668,-81.848145,251.586914,0,0
12771,2024 10 19,05:25:56.412,0.745209,0.200179,-0.616232,0.157641,-1.391644,-0.263192,-0.227058,128.662109,-96.130371,239.624023,0,0
12772,2024 10 19,05:25:56.420,0.733799,0.198819,-0.624837,0.177734,-1.522019,-0.752464,-0.307138,143.554688,-105.895996,216.491699,0,0
12773,2024 10 19,05:25:56.429,0.721474,0.199997,-0.633315,0.19593,-1.562548,-1.207068,-0.3296,151.794434,-122.070313,185.058594,0,0
12774,2024 10 19,05:25:56.437,0.708272,0.203479,-0.642016,0.211572,-1.618702,-1.598682,-0.334483,151.733398,-142.51709,152.22168,0,0
12775,2024 10 19,05:25:56.445,0.69424,0.209006,-0.651136,0.224431,-1.742241,-1.982482,-0.295907,147.644043,-162.597656,119.995117,0,0
12776,2024 10 19,05:25:56.454,0.69424,0.209006,-0.651136,0.224431,-1.742241,-1.982482,-0.295907,147.644043,-162.597656,119.995117,0,0
12777,2024 10 19,05:25:56.462,0.680388,0.216032,-0.659881,0.234433,-1.765191,-2.330637,-0.245125,137.573242,-164.123535,86.547852,0,0
12778,2024 10 19,05:25:56.470,0.667763,0.223947,-0.667602,0.241344,-1.516648,-2.555254,-0.290048,118.408203,-156.860352,51.391602,0,0
12779,2024 10 19,05:25:56.479,0.655929,0.232715,-0.675067,0.244713,-4.278451,-3.649525,-0.779321,98.999023,-166.137695,15.869141,0,0
12780,2024 10 19,05:25:56.487,0.642736,0.247176,-0.684404,0.239551,-1.254921,-2.685141,9.272744,-10.437012,-150.268555,-119.506836,1,0
12781,2024 10 19,05:25:56.495,0.670777,0.245096,-0.652951,0.252269,-1.248573,-7.328349,-3.132908,147.399902,542.785645,-7.69043,0,0
12782,2024 10 19,05:25:56.504,0.670777,0.245096,-0.652951,0.252269,-1.248573,-7.328349,-3.132908,147.399902,542.785645,-7.69043,0,0
12783,2024 10 19,05:25:56.512,0.686685,0.233434,-0.645263,0.240017,1.158727,2.897549,0.876492,-299.987793,54.504395,-38.818359,0,0
12784,2024 10 19,05:25:56.520,0.677226,0.234428,-0.653751,0.242936,-2.290109,-0.980011,1.093783,73.913574,-112.670898,65.917969,0,0
12785,2024 10 19,05:25:56.529,0.682981,0.22947,-0.648389,0.24591,-0.906278,0.663106,-0.265633,1.464844,140.50293,19.714355,0,0
12786,2024 10 19,05:25:56.537,0.684939,0.229998,-0.64525,0.248216,-1.049348,0.193854,-0.538591,3.78418,8.178711,-8.972168,0,0
12787,2024 10 19,05:25:56.545,0.683661,0.231988,-0.645484,0.249279,-1.325724,-0.265633,0.463393,33.14209,0.0,0.732422,0,0
12788,2024 10 19,05:25:56.554,0.683661,0.231988,-0.645484,0.249279,-1.325724,-0.265633,0.463393,33.14209,0.0,0.732422,0,0
12789,2024 10 19,05:25:56.562,0.68617,0.2318,-0.642129,0.251217,-0.699728,-0.019044,-0.211432,12.268066,52.978516,1.464844,0,0
12790,2024 10 19,05:25:56.570,0.685687,0.232517,-0.642569,0.25075,-1.113315,0.044435,-0.079104,0.854492,-29.47998,-9.094238,0,0
12791,2024 10 19,05:25:56.579,0.684964,0.233676,-0.643088,0.250316,-1.231483,-0.057619,0.234382,8.361816,2.685547,-7.263184,0,0
12792,2024 10 19,05:25:56.587,0.68668,0.233701,-0.640979,0.250999,-0.82815,-0.079104,-0.270516,2.929688,28.686523,-5.310059,0,0
12793,2024 10 19,05:25:56.595,0.686191,0.234089,-0.641767,0.249957,-1.090854,-0.02002,0.077639,-8.117676,-22.705078,-7.629395,0,0
12794,2024 10 19,05:25:56.604,0.686128,0.234305,-0.642114,0.249037,-1.089877,0.01709,0.201178,-3.417969,3.051758,-7.629395,0,0
12795,2024 10 19,05:25:56.612,0.686128,0.234305,-0.642114,0.249037,-1.089877,0.01709,0.201178,-3.417969,3.051758,-7.629395,0,0
12796,2024 10 19,05:25:56.620,0.686867,0.234492,-0.641405,0.248648,-0.972686,-0.018067,-0.124516,-1.708984,5.004883,-9.094238,0,0
12797,2024 10 19,05:25:56.629,0.686593,0.235056,-0.641878,0.247651,-1.089877,-0.000977,0.157231,-3.540039,-10.620117,-10.009766,0,0
12798,2024 10 19,05:25:56.637,0.687051,0.235492,-0.641385,0.247245,-1.050325,-0.027833,-0.026856,1.89209,9.58252,-8.544922,0,0
12799,2024 10 19,05:25:56.645,0.687592,0.235895,-0.640748,0.247009,-1.023957,-0.032228,0.005371,1.220703,5.371094,-7.93457,0,0
12800,2024 10 19,05:25:56.654,0.688061,0.236283,-0.640207,0.246733,-1.058626,-0.022462,0.052736,1.464844,7.93457,-7.751465,0,0
12801,2024 10 19,05:25:56.662,0.688061,0.236283,-0.640207,0.246733,-1.058626,-0.022462,0.052736,1.464844,7.93457,-7.751465,0,0
12802,2024 10 19,05:25:56.670,0.688903,0.236535,-0.639262,0.246593,-1.003449,-0.033692,0.0,0.793457,12.878418,-7.93457,0,0
12803,2024 10 19,05:25:56.679,0.689507,0.236858,-0.638645,0.246194,-1.019562,-0.014649,0.07178,-0.12207,5.981445,-9.216309,0,0
12804,2024 10 19,05:25:56.687,0.690055,0.237321,-0.638061,0.245726,-1.047884,-0.011231,0.050295,0.671387,6.469727,-10.742188,0,0
12805,2024 10 19,05:25:56.695,0.690621,0.237955,-0.637416,0.245195,-1.039094,-0.015137,0.029298,1.708984,5.67627,-12.695313,0,0
12806,2024 10 19,05:25:56.704,0.69116,0.238731,-0.636751,0.24465,-1.0347,-0.020508,0.056154,2.746582,6.347656,-13.61084,0,0
12807,2024 10 19,05:25:56.712,0.69116,0.238731,-0.636751,0.24465,-1.0347,-0.020508,0.056154,2.746582,6.347656,-13.61084,0,0
12808,2024 10 19,05:25:56.720,0.69183,0.239556,-0.635879,0.244216,-0.985382,-0.033204,0.067873,4.089355,8.728027,-13.916016,0,0
12809,2024 10 19,05:25:56.729,0.692487,0.240414,-0.634997,0.243807,-0.952178,-0.018067,0.102054,4.577637,7.69043,-13.61084,0,0
12810,2024 10 19,05:25:56.737,0.692951,0.241388,-0.634258,0.24345,-0.961455,-0.043458,0.093265,6.347656,4.943848,-13.061523,0,0
12811,2024 10 19,05:25:56.745,0.693331,0.242348,-0.633606,0.243111,-0.964873,-0.038575,0.091311,5.615234,3.90625,-12.329102,0,0
12812,2024 10 19,05:25:56.754,0.693585,0.243318,-0.633097,0.242742,-0.995636,-0.047365,0.062502,5.79834,1.586914,-11.901855,0,0
12813,2024 10 19,05:25:56.762,0.693585,0.243318,-0.633097,0.242742,-0.995636,-0.047365,0.062502,5.79834,1.586914,-11.901855,0,0
12814,2024 10 19,05:25:56.770,0.693838,0.244235,-0.63262,0.242343,-1.015656,-0.039552,0.055666,4.455566,2.319336,-11.779785,0,0
12815,2024 10 19,05:25:56.779,0.694146,0.245144,-0.632062,0.241997,-1.001984,-0.061525,0.051759,5.92041,3.601074,-11.657715,0,0
12816,2024 10 19,05:25:56.787,0.694562,0.245942,-0.631422,0.241667,-0.96878,-0.050295,0.079592,4.089355,5.126953,-11.291504,0,0
12817,2024 10 19,05:25:56.795,0.69493,0.246683,-0.63084,0.241373,-0.967315,-0.059572,0.069338,4.150391,4.089355,-10.131836,0,0
12818,2024 10 19,05:25:56.804,0.695247,0.24733,-0.630342,0.241098,-0.959502,-0.064455,0.075686,3.540039,3.78418,-8.728027,0,0
12819,2024 10 19,05:25:56.812,0.695247,0.24733,-0.630342,0.241098,-0.959502,-0.064455,0.075686,3.540039,3.78418,-8.728027,0,0
12820,2024 10 19,05:25:56.820,0.695559,0.247864,-0.629873,0.240875,-0.952666,-0.065432,0.073244,2.929688,3.601074,-7.385254,0,0
12821,2024 10 19,05:25:56.829,0.695783,0.248304,-0.629535,0.240659,-0.956572,-0.06006,0.076662,2.075195,2.197266,-6.103516,0,0
12822,2024 10 19,05:25:56.837,0.69595,0.248641,-0.629283,0.240486,-0.962432,-0.069338,0.067385,1.342773,1.586914,-4.699707,0,0
12823,2024 10 19,05:25:56.845,0.696075,0.248891,-0.629126,0.240278,-0.983428,-0.066408,0.062502,0.244141,0.732422,-4.02832,0,0
12824,2024 10 19,05:25:56.854,0.696189,0.249087,-0.629015,0.240036,-0.996124,-0.051759,0.083499,-0.183105,0.305176,-3.967285,0,0
12825,2024 10 19,05:25:56.862,0.696189,0.249087,-0.629015,0.240036,-0.996124,-0.051759,0.083499,-0.183105,0.305176,-3.967285,0,0
12826,2024 10 19,05:25:56.870,0.696265,0.249323,-0.628936,0.239775,-1.023957,-0.048341,0.069338,-0.12207,-0.488281,-4.455566,0,0
12827,2024 10 19,05:25:56.879,0.696285,0.249711,-0.628893,0.239426,-1.079623,-0.040529,0.069826,0.793457,-1.953125,-6.408691,0,0
12828,2024 10 19,05:25:56.887,0.696337,0.250308,-0.628778,0.238954,-1.096713,-0.046388,0.035157,1.708984,-1.098633,-9.338379,0,0
12829,2024 10 19,05:25:56.895,0.696432,0.251109,-0.628613,0.238268,-1.138218,-0.030763,0.049318,1.159668,-2.563477,-13.305664,0,0
12830,2024 10 19,05:25:56.904,0.696611,0.252194,-0.628335,0.23733,-1.173376,-0.044923,0.024415,2.197266,-1.220703,-17.944336,0,0
12831,2024 10 19,05:25:56.912,0.696611,0.252194,-0.628335,0.23733,-1.173376,-0.044923,0.024415,2.197266,-1.220703,-17.944336,0,0
12832,2024 10 19,05:25:56.920,0.69703,0.253511,-0.627856,0.235961,-1.247597,-0.036134,0.001465,0.366211,-0.305176,-25.024414,0,0
12833,2024 10 19,05:25:56.929,0.697674,0.255179,-0.627267,0.233819,-1.362835,-0.011231,0.052248,-3.723145,-0.671387,-35.766602,0,0
12834,2024 10 19,05:25:56.937,0.698887,0.257273,-0.626165,0.230837,-1.502976,0.008301,0.024415,-6.225586,5.004883,-49.621582,0,0
12835,2024 10 19,05:25:56.945,0.700885,0.259909,-0.624277,0.226907,-1.585498,0.019532,0.043947,-7.995605,13.916016,-66.28418,0,0
12836,2024 10 19,05:25:56.954,0.7037,0.263297,-0.621411,0.222102,-1.665578,0.031739,0.069826,-7.446289,22.644043,-84.04541,0,0
12837,2024 10 19,05:25:56.962,0.7037,0.263297,-0.621411,0.222102,-1.665578,0.031739,0.069826,-7.446289,22.644043,-84.04541,0,0
12838,2024 10 19,05:25:56.970,0.707442,0.267511,-0.617344,0.216449,-1.748589,0.076174,0.032228,-6.530762,35.644531,-103.210449,0,0
12839,2024 10 19,05:25:56.979,0.712153,0.272664,-0.611757,0.210344,-1.818903,0.06885,0.035646,-1.342773,52.062988,-120.97168,0,0
12840,2024 10 19,05:25:56.987,0.718015,0.278746,-0.604318,0.203848,-1.843806,0.101566,0.02002,6.469727,74.21875,-139.343262,0,0
12841,2024 10 19,05:25:56.995,0.725044,0.28595,-0.594514,0.19773,-1.952696,0.090335,0.043458,19.042969,98.937988,-153.991699,0,0
12842,2024 10 19,05:25:57.004,0.732673,0.293952,-0.583407,0.190836,-1.865291,0.08301,0.070315,21.850586,107.116699,-171.936035,0,0
12843,2024 10 19,05:25:57.012,0.732673,0.293952,-0.583407,0.190836,-1.865291,0.08301,0.070315,21.850586,107.116699,-171.936035,0,0
12844,2024 10 19,05:25:57.020,0.74116,0.302366,-0.570431,0.184026,-1.684622,0.025391,0.091311,26.428223,130.79834,-179.56543,0,1
12845,2024 10 19,05:25:57.029,0.749822,0.310745,-0.556479,0.177584,-1.522019,-0.129887,0.02002,28.442383,137.695313,-177.124023,0,0
12846,2024 10 19,05:25:57.037,0.758407,0.318139,-0.542311,0.171771,-1.390179,-0.030274,0.251473,21.728516,145.446777,-161.743164,0,0
12847,2024 10 19,05:25:57.045,0.767678,0.323163,-0.527105,0.168513,-1.061068,0.406262,0.303232,18.859863,175.842285,-126.525879,0,0
12848,2024 10 19,05:25:57.054,0.776591,0.327279,-0.510912,0.169598,-1.032258,0.249519,0.219733,49.499512,197.998047,-87.280273,0,0
12849,2024 10 19,05:25:57.062,0.785924,0.330228,-0.493029,0.173767,0.138188,0.580096,-0.166509,49.743652,232.849121,-61.889648,0,0
12850,2024 10 19,05:25:57.070,0.785924,0.330228,-0.493029,0.173767,0.138188,0.580096,-0.166509,49.743652,232.849121,-61.889648,0,0
12851,2024 10 19,05:25:57.079,0.793091,0.331647,-0.47834,0.179464,0.784692,1.099643,-1.467818,47.180176,163.574219,-17.700195,0,0
12852,2024 10 19,05:25:57.087,0.793264,0.333807,-0.474968,0.183603,-0.06299,1.081088,-0.424329,54.6875,17.76123,15.563965,0,0
12853,2024 10 19,05:25:57.095,0.791135,0.336706,-0.474212,0.18936,-0.429701,1.412153,-0.443373,69.335938,22.338867,38.574219,0,0
12854,2024 10 19,05:25:57.104,0.788282,0.340148,-0.472852,0.198299,-0.335459,1.154332,-0.577166,100.646973,21.179199,60.36377,0,0
12855,2024 10 19,05:25:57.112,0.784175,0.343989,-0.472239,0.209123,-0.158208,1.02884,-0.611835,115.41748,24.047852,85.021973,0,0
12856,2024 10 19,05:25:57.120,0.784175,0.343989,-0.472239,0.209123,-0.158208,1.02884,-0.611835,115.41748,24.047852,85.021973,0,0
12857,2024 10 19,05:25:57.129,0.778743,0.347118,-0.473131,0.221845,-0.077639,0.977569,-0.89407,117.431641,-3.173828,117.1875,0,0
12858,2024 10 19,05:25:57.137,0.770937,0.349731,-0.477454,0.235332,-0.327647,0.908231,-0.5215,117.06543,-32.958984,144.836426,0,0
12859,2024 10 19,05:25:57.145,0.762213,0.351494,-0.482614,0.250135,-0.390637,0.799341,-0.654805,118.103027,-39.0625,165.100098,0,0
12860,2024 10 19,05:25:57.154,0.752052,0.352951,-0.489247,0.265482,-0.547868,0.704123,-0.436537,120.422363,-55.175781,181.152344,0,0
12861,2024 10 19,05:25:57.162,0.741017,0.35396,-0.496209,0.28175,-0.630879,0.603534,-0.503922,124.694824,-57.678223,195.617676,0,0
12862,2024 10 19,05:25:57.170,0.741017,0.35396,-0.496209,0.28175,-0.630879,0.603534,-0.503922,124.694824,-57.678223,195.617676,0,0
12863,2024 10 19,05:25:57.179,0.728659,0.354891,-0.503914,0.29863,-0.778832,0.506851,-0.391614,131.103516,-69.396973,208.496094,0,0
12864,2024 10 19,05:25:57.187,0.715133,0.355825,-0.511818,0.316252,-0.918973,0.374523,-0.399915,139.892578,-73.974609,219.360352,0,0
12865,2024 10 19,05:25:57.195,0.700308,0.35712,-0.519828,0.334384,-1.096713,0.208014,-0.34962,151.428223,-82.214355,226.074219,0,0
12866,2024 10 19,05:25:57.204,0.684419,0.359032,-0.527438,0.352812,-1.236854,-0.047853,-0.391125,164.001465,-85.388184,226.623535,0,0
12867,2024 10 19,05:25:57.212,0.667694,0.361815,-0.534522,0.370891,-1.316935,-0.357921,-0.451186,172.546387,-92.407227,219.299316,0,0
12868,2024 10 19,05:25:57.220,0.667694,0.361815,-0.534522,0.370891,-1.316935,-0.357921,-0.451186,172.546387,-92.407227,219.299316,0,0
12869,2024 10 19,05:25:57.229,0.650296,0.365825,-0.541307,0.387652,-1.406781,-0.644551,-0.467788,176.696777,-106.323242,202.880859,0,0
12870,2024 10 19,05:25:57.237,0.632487,0.371349,-0.547846,0.402399,-1.512741,-0.908719,-0.404309,177.67334,-122.558594,179.443359,0,0
12871,2024 10 19,05:25:57.245,0.614671,0.378486,-0.553884,0.414898,-1.663137,-1.133335,-0.316904,177.429199,-134.94873,151.367188,0,0
12872,2024 10 19,05:25:57.254,0.597481,0.387062,-0.558875,0.425274,-1.749565,-1.413617,-0.31251,175.720215,-138.244629,120.483398,0,0
12873,2024 10 19,05:25:57.262,0.58158,0.39679,-0.562593,0.433373,-1.726615,-1.681204,-0.321787,167.785645,-135.437012,86.791992,0,0
12874,2024 10 19,05:25:57.270,0.58158,0.39679,-0.562593,0.433373,-1.726615,-1.681204,-0.321787,167.785645,-135.437012,86.791992,0,0
12875,2024 10 19,05:25:57.279,0.567574,0.407148,-0.565123,0.439005,-1.614307,-1.845759,-0.342296,151.611328,-129.516602,53.161621,0,0
12876,2024 10 19,05:25:57.287,0.555678,0.417725,-0.566942,0.441932,-1.446333,-1.899472,-0.284188,127.075195,-125.610352,21.728516,0,0
12877,2024 10 19,05:25:57.295,0.545897,0.428197,-0.568544,0.442043,-1.280801,-1.808649,-0.189947,98.754883,-125.0,-6.530762,0,0
12878,2024 10 19,05:25:57.304,0.537957,0.438502,-0.570189,0.439549,-1.48149,-1.739311,-0.041993,72.998047,-125.976563,-30.212402,0,0
12879,2024 10 19,05:25:57.312,0.529503,0.452891,-0.573479,0.430857,-2.411695,-2.043519,6.838099,43.579102,-211.608887,-101.135254,1,0
12880,2024 10 19,05:25:57.320,0.529503,0.452891,-0.573479,0.430857,-2.411695,-2.043519,6.838099,43.579102,-211.608887,-101.135254,0,0
12881,2024 10 19,05:25:57.329,0.544166,0.448364,-0.553246,0.44359,-2.150456,-3.617298,-1.42436,97.351074,411.193848,-46.203613,0,0
12882,2024 10 19,05:25:57.337,0.559344,0.443203,-0.538491,0.448033,0.925321,-0.628926,0.208502,-72.631836,164.245605,-76.477051,0,0
12883,2024 10 19,05:25:57.345,0.567783,0.437094,-0.535773,0.446676,-0.730979,-0.40968,0.909207,-23.55957,86.791992,-7.93457,0,0
12884,2024 10 19,05:25:57.354,0.573487,0.429999,-0.530875,0.45209,-0.544939,0.196783,-0.039064,3.356934,125.12207,35.705566,0,0
12885,2024 10 19,05:25:57.362,0.574134,0.427072,-0.52871,0.456558,-0.860378,-0.001465,0.396496,6.591797,37.109375,28.320313,0,0
12886,2024 10 19,05:25:57.370,0.574134,0.427072,-0.52871,0.456558,-0.860378,-0.001465,0.396496,6.591797,37.109375,28.320313,0,0
12887,2024 10 19,05:25:57.379,0.575339,0.42482,-0.527537,0.458495,-0.948759,0.072756,0.389172,2.13623,38.452148,12.207031,0,0
12888,2024 10 19,05:25:57.387,0.575876,0.423574,-0.526222,0.460481,-1.057161,-0.011719,-0.481948,10.375977,17.883301,10.864258,0,0
12889,2024 10 19,05:25:57.395,0.574725,0.423942,-0.526699,0.461034,-1.201697,-0.034181,0.099124,4.516602,-9.58252,8.483887,0,0
12890,2024 10 19,05:25:57.404,0.574735,0.423603,-0.52628,0.461811,-1.043001,0.064943,0.103519,8.605957,13.85498,3.90625,0,0
12891,2024 10 19,05:25:57.412,0.574686,0.423746,-0.525327,0.462826,-1.012726,-0.07178,-0.083499,11.71875,6.591797,0.671387,0,0
12892,2024 10 19,05:25:57.420,0.574686,0.423746,-0.525327,0.462826,-1.012726,-0.07178,-0.083499,11.71875,6.591797,0.671387,0,0
12893,2024 10 19,05:25:57.429,0.574433,0.424064,-0.525163,0.463033,-0.962432,-0.033692,0.159185,3.173828,-1.464844,0.244141,0,0
12894,2024 10 19,05:25:57.437,0.574245,0.424258,-0.525221,0.463023,-1.000031,-0.029786,-0.003906,1.831055,-4.394531,0.244141,0,0
12895,2024 10 19,05:25:57.445,0.573773,0.424668,-0.52574,0.462643,-1.077181,-0.008301,0.04297,-0.976563,-10.620117,0.244141,0,0
12896,2024 10 19,05:25:57.454,0.573514,0.424867,-0.525932,0.462563,-1.053743,-0.008789,0.068361,1.831055,-1.403809,0.671387,0,0
12897,2024 10 19,05:25:57.462,0.573431,0.424906,-0.525794,0.462788,-1.002472,-0.010254,0.038087,2.746582,0.915527,1.098633,0,0
12898,2024 10 19,05:25:57.470,0.573431,0.424906,-0.525794,0.462788,-1.002472,-0.010254,0.038087,2.746582,0.915527,1.098633,0,0
12899,2024 10 19,05:25:57.479,0.573192,0.425061,-0.525741,0.463003,-1.026887,-0.012207,0.079104,3.967285,-0.366211,1.586914,0,0
12900,2024 10 19,05:25:57.487,0.57306,0.425082,-0.525476,0.463447,-1.018586,-0.025391,0.035157,5.004883,4.02832,2.380371,0,0
12901,2024 10 19,05:25:57.495,0.572983,0.42502,-0.525215,0.463893,-1.005402,-0.017579,0.046388,3.540039,3.723145,2.502441,0,0
12902,2024 10 19,05:25:57.504,0.572905,0.424938,-0.525022,0.464283,-1.010773,-0.018555,0.062014,2.990723,3.112793,2.502441,0,0
12903,2024 10 19,05:25:57.512,0.572861,0.424853,-0.524878,0.464578,-1.029817,-0.006836,0.067873,2.13623,2.685547,1.708984,0,0
12904,2024 10 19,05:25:57.520,0.572922,0.424762,-0.524661,0.464831,-1.026887,-0.014161,0.050783,1.464844,4.089355,0.427246,0,0
12905,2024 10 19,05:25:57.529,0.572922,0.424762,-0.524661,0.464831,-1.026887,-0.014161,0.050783,1.464844,4.089355,0.427246,0,0
12906,2024 10 19,05:25:57.537,0.573115,0.424661,-0.524401,0.46498,-1.009308,-0.010743,0.084964,0.549316,4.150391,-1.037598,0,0
12907,2024 10 19,05:25:57.545,0.573347,0.424618,-0.524161,0.465003,-1.008332,0.0,0.078616,-0.12207,2.929688,-2.319336,0,0
12908,2024 10 19,05:25:57.554,0.57358,0.424643,-0.523925,0.464959,-1.017609,-0.011719,0.077639,0.0,2.746582,-2.990723,0,0
12909,2024 10 19,05:25:57.562,0.573874,0.424623,-0.523598,0.464982,-1.006378,-0.023927,0.054689,0.244141,4.699707,-2.807617,0,0
12910,2024 10 19,05:25:57.570,0.574219,0.42454,-0.523242,0.465033,-0.986847,-0.01709,0.074709,0.0,5.249023,-2.563477,0,0
12911,2024 10 19,05:25:57.579,0.574219,0.42454,-0.523242,0.465033,-0.986847,-0.01709,0.074709,0.0,5.249023,-2.563477,0,0
12912,2024 10 19,05:25:57.587,0.574512,0.424454,-0.522916,0.465117,-0.994171,-0.012696,0.077151,0.244141,4.699707,-1.831055,0,0
12913,2024 10 19,05:25:57.595,0.574787,0.424333,-0.522571,0.465275,-0.989776,-0.01709,0.086428,0.671387,5.554199,-1.281738,0,0
12914,2024 10 19,05:25:57.604,0.575052,0.424212,-0.522219,0.465453,-0.991729,-0.015137,0.08594,0.793457,5.249023,-1.159668,0,0
12915,2024 10 19,05:25:57.612,0.575286,0.42413,-0.521914,0.46558,-1.008332,-0.020508,0.064455,0.427246,4.272461,-1.464844,0,0
12916,2024 10 19,05:25:57.620,0.575542,0.424034,-0.521621,0.46568,-0.996124,-0.011231,0.099612,0.244141,4.882813,-1.586914,0,0
12917,2024 10 19,05:25:57.629,0.575542,0.424034,-0.521621,0.46568,-0.996124,-0.011231,0.099612,0.244141,4.882813,-1.586914,0,0
12918,2024 10 19,05:25:57.637,0.575844,0.423905,-0.521238,0.465854,-0.994659,-0.017579,0.071291,0.793457,5.79834,-1.525879,0,0
12919,2024 10 19,05:25:57.645,0.576107,0.423829,-0.520923,0.465949,-1.012726,-0.015625,0.075686,0.183105,4.333496,-1.953125,0,0
12920,2024 10 19,05:25:57.654,0.576424,0.423742,-0.520551,0.466053,-1.013703,-0.01709,0.074221,0.488281,5.92041,-2.502441,0,0
12921,2024 10 19,05:25:57.662,0.576829,0.423627,-0.520131,0.466125,-0.999542,-0.018067,0.07178,-0.305176,5.981445,-3.234863,0,0
12922,2024 10 19,05:25:57.670,0.577246,0.423569,-0.519769,0.466064,-1.009796,-0.016602,0.070803,-1.159668,4.699707,-4.272461,0,0
12923,2024 10 19,05:25:57.679,0.577246,0.423569,-0.519769,0.466064,-1.009796,-0.016602,0.070803,-1.159668,4.699707,-4.272461,0,0
12924,2024 10 19,05:25:57.687,0.577716,0.423536,-0.519396,0.465929,-1.020539,-0.014649,0.071291,-1.525879,4.943848,-5.310059,0,0
12925,2024 10 19,05:25:57.695,0.578265,0.423509,-0.518991,0.465723,-1.032258,-0.006348,0.066408,-2.075195,5.065918,-6.469727,0,0
12926,2024 10 19,05:25:57.704,0.578815,0.423609,-0.518558,0.46543,-1.061068,-0.015625,0.062014,-1.281738,4.272461,-8.117676,0,0
12927,2024 10 19,05:25:57.712,0.579504,0.423741,-0.517958,0.465122,-1.092807,-0.01709,0.030763,-0.854492,6.408691,-9.94873,0,0
12928,2024 10 19,05:25:57.720,0.580297,0.424077,-0.517273,0.46459,-1.150426,0.012207,0.016114,-0.793457,4.943848,-14.282227,0,0
12929,2024 10 19,05:25:57.729,0.580297,0.424077,-0.517273,0.46459,-1.150426,0.012207,0.016114,-0.793457,4.943848,-14.282227,0,0
12930,2024 10 19,05:25:57.737,0.581174,0.424802,-0.516336,0.463872,-1.195349,0.001953,-0.004395,2.380371,4.882813,-20.080566,0,0
12931,2024 10 19,05:25:57.745,0.582303,0.425919,-0.515117,0.462785,-1.244667,0.047365,-0.020997,2.319336,3.662109,-27.954102,0,0
12932,2024 10 19,05:25:57.754,0.583508,0.427735,-0.513461,0.461432,-1.374554,0.015137,-0.074221,7.385254,2.380371,-36.865234,0,0
12933,2024 10 19,05:25:57.762,0.585004,0.430281,-0.51138,0.459477,-1.570849,0.065432,-0.073733,9.82666,1.342773,-49.804688,0,0
12934,2024 10 19,05:25:57.770,0.587403,0.433314,-0.508759,0.456466,-1.940977,0.175787,0.509781,4.089355,3.234863,-71.350098,0,0
12935,2024 10 19,05:25:57.779,0.587403,0.433314,-0.508759,0.456466,-1.940977,0.175787,0.509781,4.089355,3.234863,-71.350098,0,0
12936,2024 10 19,05:25:57.787,0.592601,0.435874,-0.503135,0.453535,-1.874569,0.108402,0.155278,0.12207,52.79541,-97.900391,0,0
12937,2024 10 19,05:25:57.795,0.600022,0.437996,-0.495254,0.450395,-1.82281,0.079592,-0.187017,0.12207,70.983887,-118.408203,0,0
12938,2024 10 19,05:25:57.804,0.607832,0.441395,-0.487233,0.445326,-1.991272,0.206061,0.093753,-4.577637,57.250977,-142.578125,0,0
12939,2024 10 19,05:25:57.812,0.617301,0.444804,-0.476619,0.440366,-1.993225,0.164556,0.022462,2.563477,96.923828,-162.841797,0,0
12940,2024 10 19,05:25:57.820,0.628454,0.447965,-0.463202,0.435681,-1.774468,0.143071,-0.090823,10.620117,121.21582,-181.82373,0,0
12941,2024 10 19,05:25:57.829,0.628454,0.447965,-0.463202,0.435681,-1.774468,0.143071,-0.090823,10.620117,121.21582,-181.82373,0,0
12942,2024 10 19,05:25:57.837,0.639688,0.451969,-0.448691,0.430348,-1.981017,0.230476,0.10596,18.432617,117.919922,-196.166992,0,0
12943,2024 10 19,05:25:57.845,0.651721,0.455956,-0.431863,0.425275,-1.835994,0.12598,0.146001,25.146484,151.306152,-210.632324,0,0
12944,2024 10 19,05:25:57.854,0.664461,0.459096,-0.413162,0.420737,-1.57915,0.118656,0.058596,24.963379,166.19873,-211.364746,0,1
12945,2024 10 19,05:25:57.862,0.676582,0.46122,-0.394193,0.417283,-1.455122,0.083499,0.244148,26.794434,180.786133,-191.40625,0,0
12946,2024 10 19,05:25:57.870,0.688124,0.460916,-0.374467,0.416912,-1.250526,0.18067,0.314951,31.616211,213.012695,-154.174805,0,0
12947,2024 10 19,05:25:57.879,0.688124,0.460916,-0.374467,0.416912,-1.250526,0.18067,0.314951,31.616211,213.012695,-154.174805,0,0
12948,2024 10 19,05:25:57.887,0.698397,0.458934,-0.353977,0.419906,-1.095737,-0.023438,0.226081,44.433594,236.755371,-120.97168,0,0
12949,2024 10 19,05:25:57.895,0.707652,0.456135,-0.332744,0.424794,-0.632344,-0.192877,0.224128,52.79541,250.976563,-103.33252,0,0
12950,2024 10 19,05:25:57.904,0.716,0.452401,-0.311677,0.430738,0.480483,0.244148,-0.320322,49.255371,248.474121,-82.641602,0,0
12951,2024 10 19,05:25:57.912,0.721107,0.449971,-0.296549,0.435419,1.323283,1.119663,-1.230506,41.625977,143.737793,-47.119141,0,0
12952,2024 10 19,05:25:57.920,0.719657,0.453566,-0.292602,0.436756,0.035157,1.04593,-0.097171,76.721191,-12.145996,-9.643555,0,0
12953,2024 10 19,05:25:57.929,0.714437,0.460851,-0.290384,0.439174,-0.526383,1.29545,-0.202643,109.802246,-13.427734,11.169434,0,0
12954,2024 10 19,05:25:57.937,0.714437,0.460851,-0.290384,0.439174,-0.526383,1.29545,-0.202643,109.802246,-13.427734,11.169434,0,0
12955,2024 10 19,05:25:57.945,0.707261,0.468305,-0.286237,0.445579,-0.125004,1.006378,-0.677755,153.137207,7.507324,42.297363,0,0
12956,2024 10 19,05:25:57.954,0.697523,0.477583,-0.283456,0.452801,-0.140629,0.847682,-0.4756,170.166016,-19.348145,63.537598,0,0
12957,2024 10 19,05:25:57.962,0.686271,0.487158,-0.281573,0.460897,-0.056642,0.796411,-0.819361,175.537109,-28.259277,82.519531,0,0
12958,2024 10 19,05:25:57.970,0.67321,0.497494,-0.282337,0.468587,-0.209479,0.730491,-0.599628,173.64502,-64.208984,101.257324,0,0
12959,2024 10 19,05:25:57.979,0.659108,0.507302,-0.284675,0.476635,-0.339854,0.618671,-0.606464,167.724609,-66.589355,120.483398,0,0
12960,2024 10 19,05:25:57.987,0.659108,0.507302,-0.284675,0.476635,-0.339854,0.618671,-0.606464,167.724609,-66.589355,120.483398,0,0
12961,2024 10 19,05:25:57.995,0.644313,0.516112,-0.288352,0.485121,-0.41847,0.514176,-0.562517,156.677246,-73.791504,138.427734,0,0
12962,2024 10 19,05:25:58.004,0.629096,0.523689,-0.293483,0.493817,-0.504898,0.408704,-0.521989,141.845703,-75.256348,154.846191,0,0
12963,2024 10 19,05:25:58.012,0.613716,0.529902,-0.29995,0.50258,-0.612812,0.339366,-0.477065,124.938965,-78.979492,168.395996,0,0
12964,2024 10 19,05:25:58.020,0.59826,0.534868,-0.307649,0.511227,-0.769066,0.290048,-0.371105,110.290527,-80.078125,179.443359,0,0
12965,2024 10 19,05:25:58.029,0.582775,0.538551,-0.316043,0.52005,-0.888699,0.256844,-0.281259,99.54834,-75.866699,189.39209,0,0
12966,2024 10 19,05:25:58.037,0.582775,0.538551,-0.316043,0.52005,-0.888699,0.256844,-0.281259,99.54834,-75.866699,189.39209,0,0
12967,2024 10 19,05:25:58.045,0.56706,0.541164,-0.324829,0.529217,-1.009308,0.211921,-0.208502,94.238281,-71.105957,199.401855,0,0
12968,2024 10 19,05:25:58.054,0.550881,0.543033,-0.333711,0.538779,-1.127964,0.138188,-0.182134,94.421387,-66.833496,207.946777,0,0
12969,2024 10 19,05:25:58.062,0.53405,0.544531,-0.342363,0.548693,-1.267128,0.032716,-0.15479,100.463867,-63.903809,213.745117,0,0
12970,2024 10 19,05:25:58.070,0.516488,0.546064,-0.350346,0.558848,-1.377972,-0.160161,-0.164556,111.26709,-61.645508,215.026855,0,0
12971,2024 10 19,05:25:58.079,0.498326,0.548037,-0.357431,0.568831,-1.420454,-0.401379,-0.205084,122.375488,-64.086914,210.144043,0,0
12972,2024 10 19,05:25:58.087,0.498326,0.548037,-0.357431,0.568831,-1.420454,-0.401379,-0.205084,122.375488,-64.086914,210.144043,0,0
12973,2024 10 19,05:25:58.095,0.479704,0.551001,-0.363783,0.577879,-1.426313,-0.648946,-0.204596,130.92041,-76.965332,199.157715,0,0
12974,2024 10 19,05:25:58.104,0.460771,0.555464,-0.369516,0.585326,-1.50444,-0.909207,-0.118168,138.000488,-95.703125,182.373047,0,0
12975,2024 10 19,05:25:58.112,0.442009,0.561331,-0.374274,0.591147,-1.59624,-1.125523,-0.04004,144.226074,-108.520508,161.254883,0,0
12976,2024 10 19,05:25:58.120,0.423758,0.56856,-0.377637,0.595448,-1.667043,-1.334513,0.039064,149.902344,-117.736816,135.131836,0,0
12977,2024 10 19,05:25:58.129,0.406665,0.57668,-0.379301,0.598493,-1.683645,-1.555223,-0.001465,152.404785,-116.516113,107.36084,0,0
12978,2024 10 19,05:25:58.137,0.406665,0.57668,-0.379301,0.598493,-1.683645,-1.555223,-0.001465,152.404785,-116.516113,107.36084,0,0
12979,2024 10 19,05:25:58.145,0.39129,0.58518,-0.379317,0.600479,-2.34138,-2.211005,-0.050295,147.827148,-109.741211,79.772949,0,0
12980,2024 10 19,05:25:58.154,0.376456,0.5972,-0.377406,0.599331,-3.669057,-3.603626,4.251595,110.900879,-132.507324,19.40918,0,0
12981,2024 10 19,05:25:58.162,0.382212,0.584753,-0.361078,0.617738,-1.459517,-5.018219,-2.061098,163.208008,394.348145,26.489258,0,0
12982,2024 10 19,05:25:58.170,0.387762,0.580992,-0.351806,0.623154,-0.166021,-4.589007,0.645527,-57.006836,42.175293,-59.875488,1,0
12983,2024 10 19,05:25:58.179,0.398246,0.574363,-0.354943,0.620905,-0.202643,0.93704,1.953673,-68.969727,78.796387,4.089355,0,0
12984,2024 10 19,05:25:58.187,0.398246,0.574363,-0.354943,0.620905,-0.202643,0.93704,1.953673,-68.969727,78.796387,4.089355,0,0
12985,2024 10 19,05:25:58.195,0.396957,0.569772,-0.355633,0.625548,-0.611835,0.060549,-1.28666,-37.353516,18.493652,53.405762,0,0
12986,2024 10 19,05:25:58.204,0.394323,0.572641,-0.362221,0.620796,-1.590869,0.302255,1.320353,-16.235352,-100.830078,15.075684,0,0
12987,2024 10 19,05:25:58.212,0.396273,0.570782,-0.361358,0.621768,-1.142125,0.365246,0.078127,-6.591797,69.335938,-13.61084,0,0
12988,2024 10 19,05:25:58.220,0.396586,0.56939,-0.357748,0.624924,-0.98294,-0.30079,-0.91409,32.653809,25.085449,-3.967285,0,0
12989,2024 10 19,05:25:58.229,0.395885,0.571232,-0.358001,0.623542,-1.233436,-0.006836,0.438002,-2.563477,-24.169922,-6.958008,0,0
12990,2024 10 19,05:25:58.237,0.395885,0.571232,-0.358001,0.623542,-1.233436,-0.006836,0.438002,-2.563477,-24.169922,-6.958008,0,0
12991,2024 10 19,05:25:58.245,0.39678,0.570511,-0.356733,0.624359,-0.997101,0.079104,0.01709,8.056641,29.418945,-9.338379,0,0
12992,2024 10 19,05:25:58.254,0.397088,0.570677,-0.355069,0.624961,-1.07474,-0.112796,-0.17774,12.756348,3.234863,-11.291504,0,0
12993,2024 10 19,05:25:58.262,0.3974,0.571157,-0.35424,0.624793,-1.015656,-0.076662,0.239265,3.540039,5.615234,-9.399414,0,0
12994,2024 10 19,05:25:58.270,0.39812,0.570955,-0.353427,0.62498,-0.961943,-0.077151,-0.141606,-0.244141,5.493164,-8.056641,0,0
12995,2024 10 19,05:25:58.279,0.398489,0.571653,-0.353647,0.623981,-1.049348,0.013184,0.2378,-5.126953,-12.573242,-8.544922,0,0
12996,2024 10 19,05:25:58.287,0.398489,0.571653,-0.353647,0.623981,-1.049348,0.013184,0.2378,-5.126953,-12.573242,-8.544922,0,0
12997,2024 10 19,05:25:58.295,0.398914,0.571866,-0.353264,0.623732,-1.00296,-0.013672,0.086917,0.915527,4.02832,-7.385254,0,0
12998,2024 10 19,05:25:58.304,0.399218,0.572214,-0.352862,0.623446,-0.973174,-0.02588,0.077639,0.915527,-5.249023,-7.873535,0,0
12999,2024 10 19,05:25:58.312,0.399372,0.572961,-0.352674,0.622767,-1.040071,-0.036134,0.116703,1.403809,-6.896973,-8.361816,0,0
13000,2024 10 19,05:25:58.320,0.399655,0.573339,-0.352211,0.622499,-0.998566,-0.048341,0.010254,1.831055,-0.366211,-7.629395,0,0
13001,2024 10 19,05:25:58.329,0.399873,0.573759,-0.351908,0.622143,-1.013214,-0.060549,0.073244,0.976563,-3.112793,-6.408691,0,0
13002,2024 10 19,05:25:58.337,0.399873,0.573759,-0.351908,0.622143,-1.013214,-0.060549,0.073244,0.976563,-3.112793,-6.408691,0,0
13003,2024 10 19,05:25:58.345,0.400159,0.573947,-0.351597,0.621963,-1.010285,-0.034181,0.059572,0.671387,0.976563,-5.371094,0,0
13004,2024 10 19,05:25:58.353,0.400405,0.574105,-0.351275,0.62184,-1.003449,-0.043458,0.066408,0.488281,0.305176,-5.126953,0,0
13005,2024 10 19,05:25:58.362,0.400665,0.574296,-0.351026,0.621637,-0.992218,-0.033204,0.089846,0.12207,-0.854492,-5.249023,0,0
13006,2024 10 19,05:25:58.370,0.400915,0.574618,-0.350795,0.621309,-1.011261,-0.037111,0.072268,-0.061035,-2.868652,-6.408691,0,0
13007,2024 10 19,05:25:58.378,0.40117,0.575042,-0.350571,0.620878,-1.020051,-0.037111,0.064943,0.183105,-3.90625,-7.202148,0,0
13008,2024 10 19,05:25:58.387,0.401439,0.575481,-0.350302,0.620449,-1.030793,-0.040529,0.04883,0.244141,-3.295898,-7.568359,0,0
13009,2024 10 19,05:25:58.395,0.401439,0.575481,-0.350302,0.620449,-1.030793,-0.040529,0.04883,0.244141,-3.295898,-7.568359,0,0
13010,2024 10 19,05:25:58.403,0.401736,0.575865,-0.349954,0.620097,-1.037141,-0.051271,0.042482,1.098633,-1.464844,-7.507324,0,0
13011,2024 10 19,05:25:58.412,0.402087,0.576133,-0.349516,0.619867,-1.011261,-0.032716,0.072268,0.915527,0.549316,-7.507324,0,0
13012,2024 10 19,05:25:58.420,0.402415,0.576399,-0.349012,0.619691,-0.999542,-0.037111,0.079104,2.01416,0.732422,-7.629395,0,0
13013,2024 10 19,05:25:58.428,0.40275,0.576684,-0.348457,0.61952,-0.989776,-0.034669,0.106449,2.685547,0.671387,-8.117676,0,0
13014,2024 10 19,05:25:58.437,0.40303,0.57704,-0.347821,0.619364,-0.988311,-0.04297,0.094241,3.90625,0.244141,-8.483887,0,0
13015,2024 10 19,05:25:58.445,0.40303,0.57704,-0.347821,0.619364,-0.988311,-0.04297,0.094241,3.90625,0.244141,-8.483887,0,0
13016,2024 10 19,05:25:58.453,0.403298,0.577433,-0.34715,0.6192,-0.995636,-0.053224,0.063967,4.02832,0.366211,-8.728027,0,0
13017,2024 10 19,05:25:58.462,0.403588,0.577789,-0.346506,0.61904,-0.978545,-0.054689,0.072268,3.234863,0.671387,-8.422852,0,0
13018,2024 10 19,05:25:58.470,0.40388,0.578104,-0.345943,0.61887,-0.978545,-0.064943,0.078616,2.746582,0.366211,-7.568359,0,0
13019,2024 10 19,05:25:58.478,0.404176,0.57835,-0.345449,0.618722,-0.981964,-0.061525,0.073733,1.77002,0.976563,-6.713867,0,0
13020,2024 10 19,05:25:58.487,0.404463,0.578509,-0.345018,0.618626,-0.972686,-0.054689,0.085452,1.403809,1.525879,-5.737305,0,0
13021,2024 10 19,05:25:58.495,0.404463,0.578509,-0.345018,0.618626,-0.972686,-0.054689,0.085452,1.403809,1.525879,-5.737305,0,0
13022,2024 10 19,05:25:58.503,0.404713,0.578629,-0.344627,0.618569,-0.985382,-0.058107,0.076174,1.342773,1.403809,-4.943848,0,0
13023,2024 10 19,05:25:58.512,0.40494,0.578753,-0.344285,0.618495,-1.009308,-0.056154,0.062502,1.159668,1.159668,-4.760742,0,0
13024,2024 10 19,05:25:58.520,0.405194,0.578859,-0.343885,0.618452,-1.021516,-0.055666,0.066408,1.586914,2.380371,-5.249023,0,0
13025,2024 10 19,05:25:58.528,0.405483,0.578942,-0.343391,0.61846,-1.013214,-0.06006,0.059084,2.13623,3.051758,-5.615234,0,0
13026,2024 10 19,05:25:58.537,0.405801,0.57906,-0.342891,0.618417,-1.015168,-0.056154,0.059084,1.708984,2.319336,-6.408691,0,0
13027,2024 10 19,05:25:58.545,0.405801,0.57906,-0.342891,0.618417,-1.015168,-0.056154,0.059084,1.708984,2.319336,-6.408691,0,0
13028,2024 10 19,05:25:58.553,0.406134,0.579238,-0.342373,0.61832,-1.019074,-0.053713,0.076174,1.831055,1.89209,-7.202148,0,0
13029,2024 10 19,05:25:58.562,0.406492,0.579461,-0.341802,0.618192,-1.006378,-0.056154,0.08301,2.197266,1.464844,-8.117676,0,0
13030,2024 10 19,05:25:58.570,0.406869,0.579771,-0.341197,0.617987,-1.009796,-0.057619,0.078616,2.441406,0.366211,-9.216309,0,0
13031,2024 10 19,05:25:58.578,0.407287,0.580218,-0.34057,0.617638,-1.019074,-0.059084,0.074221,2.197266,-1.220703,-11.047363,0,0
13032,2024 10 19,05:25:58.587,0.407744,0.580849,-0.339906,0.617108,-1.069857,-0.052736,0.06006,2.807617,-3.90625,-13.305664,0,0
13033,2024 10 19,05:25:58.595,0.407744,0.580849,-0.339906,0.617108,-1.069857,-0.052736,0.06006,2.807617,-3.90625,-13.305664,0,0
13034,2024 10 19,05:25:58.603,0.408267,0.581754,-0.339088,0.61636,-1.109897,-0.058107,0.04883,3.845215,-5.432129,-17.272949,0,0
13035,2024 10 19,05:25:58.612,0.40898,0.582822,-0.33802,0.615464,-1.184118,-0.02588,0.049806,4.150391,-5.859375,-22.155762,0,0
13036,2024 10 19,05:25:58.620,0.409888,0.584306,-0.33656,0.614252,-1.241249,-0.031739,0.049806,7.751465,-8.239746,-29.968262,0,0
13037,2024 10 19,05:25:58.628,0.41123,0.586157,-0.33453,0.612699,-1.335978,-0.0459,-0.016602,7.202148,-8.544922,-40.710449,0,0
13038,2024 10 19,05:25:58.637,0.413511,0.588232,-0.33211,0.610487,-1.515671,-0.026856,0.004395,0.488281,-8.178711,-55.053711,0,0
13039,2024 10 19,05:25:58.645,0.413511,0.588232,-0.33211,0.610487,-1.515671,-0.026856,0.004395,0.488281,-8.178711,-55.053711,0,0
13040,2024 10 19,05:25:58.653,0.417263,0.59019,-0.328921,0.607765,-1.675832,-0.012696,0.049318,-4.333496,1.098633,-73.425293,0,0
13041,2024 10 19,05:25:58.662,0.422712,0.591789,-0.324377,0.60488,-1.851619,0.062502,0.057619,-9.399414,15.563965,-94.909668,0,0
13042,2024 10 19,05:25:58.670,0.429704,0.593044,-0.317911,0.60215,-1.976135,0.104495,0.070315,-5.615234,36.437988,-117.126465,0,0
13043,2024 10 19,05:25:58.678,0.438115,0.593489,-0.3086,0.600493,-2.069399,0.123539,0.075198,7.507324,72.143555,-138.061523,0,0
13044,2024 10 19,05:25:58.687,0.447998,0.59311,-0.296436,0.599703,-2.065004,0.149419,0.038575,13.85498,99.54834,-162.414551,0,0
13045,2024 10 19,05:25:58.695,0.447998,0.59311,-0.296436,0.599703,-2.065004,0.149419,0.038575,13.85498,99.54834,-162.414551,0,0
13046,2024 10 19,05:25:58.703,0.459014,0.592799,-0.282326,0.598488,-1.8399,0.137211,0.055177,16.418457,106.140137,-184.631348,0,0
13047,2024 10 19,05:25:58.712,0.47063,0.592314,-0.266739,0.597095,-1.723197,0.122562,0.106449,22.094727,118.225098,-196.716309,0,0
13048,2024 10 19,05:25:58.720,0.482152,0.591368,-0.249983,0.596089,-1.568896,0.009278,0.122074,31.555176,128.601074,-197.937012,0,1
13049,2024 10 19,05:25:58.728,0.493413,0.58988,-0.232607,0.595381,-1.456099,-0.087405,0.062014,28.320313,134.521484,-195.556641,0,0
13050,2024 10 19,05:25:58.737,0.503952,0.587156,-0.216342,0.595379,-1.413129,0.24659,0.260262,23.498535,144.470215,-168.518066,0,0
13051,2024 10 19,05:25:58.745,0.503952,0.587156,-0.216342,0.595379,-1.413129,0.24659,0.260262,23.498535,144.470215,-168.518066,0,0
13052,2024 10 19,05:25:58.753,0.512293,0.581509,-0.200508,0.599333,-1.287637,0.533219,0.348155,39.611816,190.124512,-117.004395,0,0
13053,2024 10 19,05:25:58.762,0.517678,0.572512,-0.183466,0.608753,-0.127934,0.776391,-0.235847,49.987793,252.868652,-67.626953,0,0
13054,2024 10 19,05:25:58.770,0.519566,0.563731,-0.169232,0.619371,0.63332,1.07767,-1.453169,57.678223,194.030762,-16.784668,0,0
13055,2024 10 19,05:25:58.778,0.517064,0.562485,-0.162477,0.624385,-0.04297,0.942412,-0.522477,73.791504,50.476074,6.225586,0,0
13056,2024 10 19,05:25:58.787,0.512175,0.56366,-0.157755,0.628552,-0.489273,1.342326,-0.585955,87.524414,44.86084,29.174805,0,0
13057,2024 10 19,05:25:58.795,0.512175,0.56366,-0.157755,0.628552,-0.489273,1.342326,-0.585955,87.524414,44.86084,29.174805,0,0
13058,2024 10 19,05:25:58.803,0.504547,0.565453,-0.152463,0.634389,-0.367687,1.259804,-0.464858,113.769531,45.043945,49.377441,0,0
13059,2024 10 19,05:25:58.812,0.49452,0.567316,-0.147047,0.641857,-0.071291,1.0889,-0.85403,131.103516,51.391602,78.918457,0,0
13060,2024 10 19,05:25:58.820,0.482052,0.570528,-0.143961,0.649153,-0.087405,0.96585,-0.831568,134.643555,13.977051,110.168457,0,0
13061,2024 10 19,05:25:58.828,0.467668,0.5747,-0.143348,0.656093,-0.249031,0.824732,-0.72805,132.324219,-4.516602,135.620117,0,0
13062,2024 10 19,05:25:58.837,0.452087,0.578966,-0.144537,0.662967,-0.3296,0.718772,-0.720237,126.037598,-19.592285,155.090332,0,0
13063,2024 10 19,05:25:58.845,0.43552,0.583506,-0.147565,0.669378,-0.460463,0.645527,-0.571795,119.32373,-33.874512,171.691895,0,0
13064,2024 10 19,05:25:58.853,0.43552,0.583506,-0.147565,0.669378,-0.460463,0.645527,-0.571795,119.32373,-33.874512,171.691895,0,0
13065,2024 10 19,05:25:58.862,0.418005,0.588014,-0.151944,0.675592,-0.5674,0.588397,-0.509293,115.600586,-44.067383,186.828613,0,0
13066,2024 10 19,05:25:58.870,0.399373,0.592732,-0.157437,0.681457,-0.723655,0.509781,-0.38966,116.394043,-54.748535,200.744629,0,0
13067,2024 10 19,05:25:58.878,0.379607,0.597547,-0.163451,0.687109,-0.889676,0.407727,-0.333506,121.09375,-61.096191,211.364746,0,0
13068,2024 10 19,05:25:58.887,0.358733,0.602496,-0.169487,0.692519,-1.014679,0.268075,-0.291513,129.150391,-65.490723,218.444824,0,0
13069,2024 10 19,05:25:58.895,0.336931,0.607677,-0.175152,0.697516,-1.120151,0.111332,-0.289071,139.099121,-71.411133,220.703125,0,0
13070,2024 10 19,05:25:58.903,0.336931,0.607677,-0.175152,0.697516,-1.120151,0.111332,-0.289071,139.099121,-71.411133,220.703125,0,0
13071,2024 10 19,05:25:58.912,0.314442,0.613352,-0.180187,0.701754,-1.26371,-0.079592,-0.267586,149.169922,-79.772949,217.224121,0,0
13072,2024 10 19,05:25:58.920,0.291792,0.619503,-0.184123,0.705105,-1.379437,-0.294443,-0.254891,158.569336,-85.81543,205.627441,0,0
13073,2024 10 19,05:25:58.928,0.269635,0.626238,-0.186561,0.707332,-1.428755,-0.497085,-0.227058,165.893555,-92.956543,185.058594,0,0
13074,2024 10 19,05:25:58.937,0.248631,0.633771,-0.187281,0.708126,-1.51616,-0.67629,-0.206061,170.532227,-103.027344,156.677246,0,0
13075,2024 10 19,05:25:58.945,0.229247,0.641968,-0.186178,0.707574,-1.61333,-0.794946,-0.16895,171.264648,-107.421875,126.098633,0,0
13076,2024 10 19,05:25:58.953,0.229247,0.641968,-0.186178,0.707574,-1.61333,-0.794946,-0.16895,171.264648,-107.421875,126.098633,0,0
13077,2024 10 19,05:25:58.962,0.211398,0.650319,-0.183469,0.706212,-1.72515,-0.952178,-0.156255,171.508789,-106.445313,102.355957,0,0
13078,2024 10 19,05:25:58.970,0.194737,0.657984,-0.179777,0.704851,-1.756401,-1.188513,-0.172857,167.785645,-92.102051,91.186523,0,0
13079,2024 10 19,05:25:58.978,0.179105,0.664239,-0.176062,0.704067,-1.640187,-1.433637,-0.299326,156.616211,-75.012207,90.759277,0,0
13080,2024 10 19,05:25:58.987,0.164447,0.669415,-0.173116,0.703471,-1.573779,-1.675832,-0.332041,139.709473,-65.246582,92.651367,0,0
13081,2024 10 19,05:25:58.995,0.151341,0.673482,-0.171008,0.703046,-1.499557,-1.867733,-0.351573,118.530273,-52.91748,88.500977,0,0
13082,2024 10 19,05:25:59.003,0.151341,0.673482,-0.171008,0.703046,-1.499557,-1.867733,-0.351573,118.530273,-52.91748,88.500977,0,0
13083,2024 10 19,05:25:59.012,0.14063,0.676738,-0.169384,0.702537,-1.327189,-1.971252,-0.340831,93.811035,-44.677734,72.20459,0,0
13084,2024 10 19,05:25:59.020,0.133955,0.681154,-0.167302,0.700068,-3.338481,-2.86581,0.180181,60.72998,-80.26123,13.305664,0,0
13085,2024 10 19,05:25:59.028,0.13523,0.68504,-0.161884,0.6973,-1.502976,-1.697806,0.514176,20.935059,17.883301,-49.377441,0,0
13086,2024 10 19,05:25:59.037,0.137904,0.686774,-0.152762,0.697128,-1.20951,-2.214911,1.469283,42.541504,-24.963379,-97.106934,0,0
13087,2024 10 19,05:25:59.045,0.142261,0.687325,-0.140803,0.698227,-2.847743,-2.571856,2.117252,80.383301,54.077148,-121.704102,1,0
13088,2024 10 19,05:25:59.053,0.142261,0.687325,-0.140803,0.698227,-2.847743,-2.571856,2.117252,80.383301,54.077148,-121.704102,0,0
13089,2024 10 19,05:25:59.062,0.146502,0.674687,-0.128165,0.711975,-0.671896,-0.508316,0.739769,42.053223,304.56543,-54.56543,0,0
13090,2024 10 19,05:25:59.070,0.148888,0.660699,-0.121414,0.72565,0.765648,-1.235878,-1.342326,30.151367,160.644531,-12.268066,0,0
13091,2024 10 19,05:25:59.078,0.152465,0.665939,-0.126832,0.719162,-0.943877,0.630879,1.20951,-77.758789,-153.198242,-4.943848,0,0
13092,2024 10 19,05:25:59.087,0.152146,0.669203,-0.12868,0.715863,-1.660207,0.270028,0.468764,-5.92041,-4.150391,2.990723,0,0
13093,2024 10 19,05:25:59.095,0.150086,0.665061,-0.126086,0.720604,-1.007355,-0.361827,-1.119175,49.560547,70.556641,13.305664,0,0
13094,2024 10 19,05:25:59.103,0.150086,0.665061,-0.126086,0.720604,-1.007355,-0.361827,-1.119175,49.560547,70.556641,13.305664,0,0
13095,2024 10 19,05:25:59.112,0.149418,0.666126,-0.125954,0.719782,-0.979034,0.062014,0.26661,-5.615234,-34.912109,-0.366211,0,0
13096,2024 10 19,05:25:59.120,0.14881,0.667272,-0.125915,0.718852,-1.174841,-0.027345,0.247078,7.629395,-2.01416,1.77002,0,0
13097,2024 10 19,05:25:59.128,0.148413,0.666223,-0.1252,0.720032,-0.956084,-0.087405,-0.34376,8.483887,14.526367,0.732422,0,0
13098,2024 10 19,05:25:59.137,0.148287,0.667366,-0.125275,0.718986,-1.097201,-0.056154,0.164068,-0.366211,-22.094727,-1.831055,0,0
13099,2024 10 19,05:25:59.145,0.148356,0.667633,-0.125252,0.718727,-1.055696,-0.006836,0.081057,0.671387,2.990723,-1.464844,0,0
13100,2024 10 19,05:25:59.153,0.148356,0.667633,-0.125252,0.718727,-1.055696,-0.006836,0.081057,0.671387,2.990723,-1.464844,0,0
13101,2024 10 19,05:25:59.162,0.148308,0.667467,-0.124986,0.718937,-0.977081,-0.035646,-0.053713,1.831055,-0.183105,-1.281738,0,0
13102,2024 10 19,05:25:59.170,0.148159,0.668039,-0.124927,0.718447,-1.02298,-0.007324,0.196783,2.502441,-8.056641,-0.671387,0,0
13103,2024 10 19,05:25:59.178,0.147819,0.667998,-0.124565,0.718618,-1.00882,-0.038575,-0.005371,6.347656,3.601074,0.488281,0,0
13104,2024 10 19,05:25:59.187,0.14747,0.668109,-0.124293,0.718634,-1.027375,-0.04297,0.010743,4.333496,-2.380371,0.732422,0,0
13105,2024 10 19,05:25:59.195,0.147161,0.668227,-0.124107,0.71862,-1.053255,-0.042482,0.035646,4.02832,0.732422,1.159668,0,0
13106,2024 10 19,05:25:59.203,0.147161,0.668227,-0.124107,0.71862,-1.053255,-0.042482,0.035646,4.02832,0.732422,1.159668,0,0
13107,2024 10 19,05:25:59.212,0.146925,0.667979,-0.123917,0.718931,-1.022492,-0.041505,0.008301,2.929688,5.004883,1.464844,0,0
13108,2024 10 19,05:25:59.220,0.14679,0.667845,-0.123816,0.7191,-1.014191,-0.026856,0.081545,1.525879,1.89209,0.671387,0,0
13109,2024 10 19,05:25:59.228,0.146757,0.667715,-0.123694,0.719249,-1.016633,-0.033204,0.054201,1.037598,2.441406,-0.549316,0,0
13110,2024 10 19,05:25:59.237,0.146911,0.667692,-0.123612,0.719253,-1.013703,-0.02588,0.057619,-1.220703,-0.183105,-2.319336,0,0
13111,2024 10 19,05:25:59.245,0.147163,0.667751,-0.123544,0.719158,-1.014191,-0.027345,0.069338,-1.403809,-0.427246,-2.990723,0,0
13112,2024 10 19,05:25:59.253,0.147163,0.667751,-0.123544,0.719158,-1.014191,-0.027345,0.069338,-1.403809,-0.427246,-2.990723,0,0
13113,2024 10 19,05:25:59.262,0.147439,0.667708,-0.123424,0.719163,-1.001495,-0.032228,0.047365,-1.220703,1.281738,-3.112793,0,0
13114,2024 10 19,05:25:59.270,0.14772,0.66766,-0.123319,0.719167,-0.996124,-0.033692,0.059572,-1.525879,1.098633,-2.929688,0,0
13115,2024 10 19,05:25:59.278,0.147965,0.667568,-0.123218,0.719219,-1.000031,-0.033692,0.057619,-0.915527,1.953125,-2.441406,0,0
13116,2024 10 19,05:25:59.287,0.148168,0.667424,-0.123095,0.719332,-0.995148,-0.029786,0.06592,-0.366211,2.624512,-2.13623,0,0
13117,2024 10 19,05:25:59.295,0.148308,0.667254,-0.122938,0.719488,-0.988311,-0.031739,0.075198,0.366211,3.234863,-1.77002,0,0
13118,2024 10 19,05:25:59.303,0.148376,0.667067,-0.122761,0.719677,-0.9888,-0.037599,0.055177,0.915527,3.356934,-1.098633,0,0
13119,2024 10 19,05:25:59.312,0.148376,0.667067,-0.122761,0.719677,-0.9888,-0.037599,0.055177,0.915527,3.356934,-1.098633,0,0
13120,2024 10 19,05:25:59.320,0.148411,0.666874,-0.122595,0.719877,-0.9888,-0.035646,0.065432,0.976563,3.601074,-0.854492,0,0
13121,2024 10 19,05:25:59.328,0.148433,0.666644,-0.122445,0.720111,-0.984893,-0.037111,0.058596,0.854492,4.089355,-0.427246,0,0
13122,2024 10 19,05:25:59.337,0.148447,0.666442,-0.122328,0.720315,-0.991241,-0.034669,0.058596,0.549316,3.417969,-0.305176,0,0
13123,2024 10 19,05:25:59.345,0.148455,0.666213,-0.122243,0.72054,-0.998566,-0.031251,0.063478,0.488281,4.02832,0.061035,0,0
13124,2024 10 19,05:25:59.353,0.148448,0.665942,-0.122125,0.720812,-1.010773,-0.034181,0.04883,0.915527,4.821777,-0.12207,0,0
13125,2024 10 19,05:25:59.362,0.148448,0.665942,-0.122125,0.720812,-1.010773,-0.034181,0.04883,0.915527,4.821777,-0.12207,0,0
13126,2024 10 19,05:25:59.370,0.14848,0.66562,-0.121995,0.721124,-1.003937,-0.038575,0.068361,0.671387,5.67627,-0.366211,0,0
13127,2024 10 19,05:25:59.378,0.148552,0.665264,-0.121857,0.721462,-1.002472,-0.039552,0.056154,0.366211,5.92041,-0.549316,0,0
13128,2024 10 19,05:25:59.387,0.148644,0.664942,-0.121775,0.721754,-1.021027,-0.04004,0.047853,-0.305176,5.065918,-0.305176,0,0
13129,2024 10 19,05:25:59.395,0.148767,0.66457,-0.121717,0.72208,-1.041047,-0.030763,0.063478,-0.732422,6.530762,-0.366211,0,0
13130,2024 10 19,05:25:59.403,0.148949,0.664055,-0.121614,0.722534,-1.039582,-0.032716,0.043947,-0.854492,8.666992,-1.037598,0,0
13131,2024 10 19,05:25:59.412,0.148949,0.664055,-0.121614,0.722534,-1.039582,-0.032716,0.043947,-0.854492,8.666992,-1.037598,0,0
13132,2024 10 19,05:25:59.420,0.149305,0.663544,-0.121465,0.722955,-1.091342,-0.021973,0.007324,-2.258301,8.117676,-3.601074,0,0
13133,2024 10 19,05:25:59.428,0.150007,0.663083,-0.12112,0.72329,-1.144566,-0.008789,0.032716,-2.319336,8.789063,-8.728027,0,0
13134,2024 10 19,05:25:59.437,0.151014,0.662534,-0.120328,0.723716,-1.182165,0.008301,-0.046876,-0.915527,11.352539,-14.465332,0,0
13135,2024 10 19,05:25:59.445,0.152208,0.662151,-0.118951,0.724043,-1.258827,0.008301,-0.02002,2.563477,10.375977,-21.606445,0,0
13136,2024 10 19,05:25:59.453,0.153906,0.662048,-0.116803,0.724129,-1.301309,0.058596,-0.050295,5.67627,7.629395,-33.447266,0,0
13137,2024 10 19,05:25:59.462,0.153906,0.662048,-0.116803,0.724129,-1.301309,0.058596,-0.050295,5.67627,7.629395,-33.447266,0,0
13138,2024 10 19,05:25:59.470,0.155979,0.662643,-0.113733,0.72363,-1.431684,0.016114,-0.061037,13.122559,-1.647949,-45.898438,0,0
13139,2024 10 19,05:25:59.478,0.158892,0.663516,-0.109792,0.722804,-1.658254,0.076662,0.160649,9.643555,-0.12207,-61.035156,0,0
13140,2024 10 19,05:25:59.487,0.16353,0.663901,-0.104478,0.722203,-2.107486,0.208991,0.30079,0.366211,12.512207,-90.881348,0,0
13141,2024 10 19,05:25:59.495,0.170283,0.661218,-0.097373,0.724094,-1.863338,-0.089846,0.102542,13.061523,76.843262,-108.642578,0,0
13142,2024 10 19,05:25:59.503,0.178867,0.656192,-0.08872,0.7277,-1.679739,0.140629,-0.199713,-0.671387,93.505859,-130.310059,0,0
13143,2024 10 19,05:25:59.512,0.178867,0.656192,-0.08872,0.7277,-1.679739,0.140629,-0.199713,-0.671387,93.505859,-130.310059,0,0
13144,2024 10 19,05:25:59.520,0.188128,0.652619,-0.079138,0.729681,-1.784722,0.104984,0.187994,4.211426,73.791504,-148.254395,0,0
13145,2024 10 19,05:25:59.528,0.198218,0.647748,-0.068156,0.732453,-1.777398,0.128422,0.043458,10.864258,103.45459,-160.644531,0,0
13146,2024 10 19,05:25:59.537,0.208403,0.641745,-0.055933,0.735937,-1.608936,0.081057,0.023438,18.005371,113.647461,-166.809082,0,0
13147,2024 10 19,05:25:59.545,0.218264,0.635235,-0.042908,0.739592,-1.574267,-0.016602,0.10303,26.123047,124.511719,-168.09082,0,1
13148,2024 10 19,05:25:59.553,0.227707,0.627545,-0.029787,0.743942,-1.554735,0.019044,0.087893,24.780273,138.793945,-159.912109,0,0
13149,2024 10 19,05:25:59.562,0.227707,0.627545,-0.029787,0.743942,-1.554735,0.019044,0.087893,24.780273,138.793945,-159.912109,0,0
13150,2024 10 19,05:25:59.570,0.236056,0.61803,-0.017384,0.749676,-1.393109,0.362316,0.386242,23.864746,168.029785,-137.939453,0,0
13151,2024 10 19,05:25:59.578,0.241181,0.605999,-0.004827,0.758006,-1.336955,0.244636,0.250496,44.73877,206.726074,-104.736328,0,0
13152,2024 10 19,05:25:59.587,0.244015,0.5919,0.008277,0.768142,-0.955596,-0.021485,0.093265,57.983398,236.206055,-85.693359,0,0
13153,2024 10 19,05:25:59.595,0.246054,0.576667,0.020159,0.778785,0.434584,0.718284,-0.509781,45.593262,238.708496,-65.246582,0,0
13154,2024 10 19,05:25:59.603,0.245211,0.566754,0.029111,0.786012,0.669454,1.281777,-1.327677,58.349609,125.732422,-27.954102,0,0
13155,2024 10 19,05:25:59.612,0.245211,0.566754,0.029111,0.786012,0.669454,1.281777,-1.327677,58.349609,125.732422,-27.954102,0,0
13156,2024 10 19,05:25:59.620,0.241475,0.567644,0.035752,0.786252,-0.17481,1.00882,-0.238289,104.919434,-6.652832,-9.82666,0,0
13157,2024 10 19,05:25:59.628,0.234613,0.570015,0.043125,0.786244,-0.336436,1.331584,-0.728538,125.671387,11.71875,17.578125,0,0
13158,2024 10 19,05:25:59.637,0.224387,0.57359,0.05118,0.786146,-0.389172,1.078158,-0.505387,152.038574,-8.117676,38.452148,0,0
13159,2024 10 19,05:25:59.645,0.212288,0.576976,0.059227,0.786463,-0.006836,0.907254,-0.906766,161.865234,5.554199,58.654785,0,0
13160,2024 10 19,05:25:59.653,0.198966,0.582623,0.065324,0.7853,-0.075686,0.841823,-0.877468,156.066895,-46.325684,82.702637,0,0
13161,2024 10 19,05:25:59.662,0.198966,0.582623,0.065324,0.7853,-0.075686,0.841823,-0.877468,156.066895,-46.325684,82.702637,0,0
13162,2024 10 19,05:25:59.670,0.184667,0.590359,0.068916,0.782703,-0.342784,0.784692,-0.632832,145.141602,-63.659668,106.140137,0,0
13163,2024 10 19,05:25:59.678,0.16939,0.598063,0.070583,0.780158,-0.429212,0.681173,-0.681173,133.300781,-70.800781,127.13623,0,0
13164,2024 10 19,05:25:59.687,0.153485,0.606237,0.070204,0.777168,-0.556658,0.552751,-0.506851,120.239258,-77.636719,146.118164,0,0
13165,2024 10 19,05:25:59.695,0.137154,0.614115,0.067945,0.774232,-0.63625,0.449232,-0.561052,105.651855,-80.13916,162.780762,0,0
13166,2024 10 19,05:25:59.703,0.120669,0.62242,0.063821,0.770688,-0.807642,0.367687,-0.39845,91.97998,-90.576172,176.452637,0,0
13167,2024 10 19,05:25:59.712,0.103912,0.630504,0.058354,0.766983,-0.981475,0.295419,-0.317392,83.129883,-90.026855,187.561035,0,0
13168,2024 10 19,05:25:59.720,0.103912,0.630504,0.058354,0.766983,-0.981475,0.295419,-0.317392,83.129883,-90.026855,187.561035,0,0
13169,2024 10 19,05:25:59.728,0.086682,0.638204,0.052164,0.763191,-1.142125,0.224616,-0.221686,81.848145,-87.341309,196.105957,0,0
13170,2024 10 19,05:25:59.737,0.068803,0.645161,0.045996,0.759551,-1.230506,0.117679,-0.220222,87.585449,-78.613281,200.622559,0,0
13171,2024 10 19,05:25:59.745,0.050352,0.651714,0.040592,0.755702,-1.271523,0.003418,-0.205084,99.853516,-78.430176,198.547363,0,0
13172,2024 10 19,05:25:59.753,0.031429,0.658308,0.036671,0.751198,-1.309122,-0.146489,-0.214362,117.797852,-83.92334,190.673828,0,0
13173,2024 10 19,05:25:59.762,0.012313,0.665225,0.034878,0.745726,-1.358928,-0.384289,-0.174322,138.48877,-94.177246,174.987793,0,0
13174,2024 10 19,05:25:59.770,0.012313,0.665225,0.034878,0.745726,-1.358928,-0.384289,-0.174322,138.48877,-94.177246,174.987793,0,0
13175,2024 10 19,05:25:59.778,-0.006355,0.6725,0.03572,0.739207,-1.338908,-0.661153,-0.176763,157.043457,-106.201172,150.512695,0,0
13176,2024 10 19,05:25:59.787,-0.023949,0.680572,0.039319,0.731234,-1.365764,-0.930204,-0.175298,171.447754,-127.01416,121.459961,0,0
13177,2024 10 19,05:25:59.795,-0.04015,0.689416,0.04537,0.721828,-1.424848,-1.168981,-0.141606,180.297852,-144.165039,93.505859,0,0
13178,2024 10 19,05:25:59.803,-0.054762,0.698372,0.053318,0.711642,-1.466353,-1.39848,-0.146489,182.312012,-150.695801,67.687988,0,0
13179,2024 10 19,05:25:59.812,-0.067656,0.706883,0.062641,0.701296,-2.8829,-2.291085,-0.244148,179.382324,-148.681641,44.433594,0,0
13180,2024 10 19,05:25:59.820,-0.067656,0.706883,0.062641,0.701296,-2.8829,-2.291085,-0.244148,179.382324,-148.681641,44.433594,0,0
13181,2024 10 19,05:25:59.828,-0.077253,0.717596,0.076705,0.687899,-2.228584,-3.048433,7.252174,109.191895,-155.273438,-45.959473,0,0
13182,2024 10 19,05:25:59.837,-0.087916,0.688511,0.083509,0.715017,-1.996155,-6.549028,-3.203222,232.666016,536.743164,30.212402,0,0
13183,2024 10 19,05:25:59.845,-0.084933,0.675263,0.088299,0.72733,0.561052,-3.650502,0.062502,-107.299805,108.276367,-73.059082,1,0
13184,2024 10 19,05:25:59.853,-0.075649,0.673012,0.08014,0.731375,0.083499,0.565447,3.003998,-10.681152,40.161133,29.846191,0,0
13185,2024 10 19,05:25:59.862,-0.082281,0.668363,0.076913,0.735258,-0.589862,0.469741,-1.333537,-72.08252,60.424805,58.959961,0,0
13186,2024 10 19,05:25:59.870,-0.082281,0.668363,0.076913,0.735258,-0.589862,0.469741,-1.333537,-72.08252,60.424805,58.959961,0,0
13187,2024 10 19,05:25:59.878,-0.081796,0.674476,0.073341,0.730077,-1.704642,-0.220222,0.39259,8.666992,-117.797852,25.085449,0,0
13188,2024 10 19,05:25:59.887,-0.080116,0.675504,0.071866,0.729459,-1.480514,0.703635,0.448256,-18.066406,29.846191,-6.04248,0,0
13189,2024 10 19,05:25:59.895,-0.083521,0.671327,0.07401,0.732712,-1.016144,-0.363781,-0.91702,36.499023,53.649902,3.051758,0,0
13190,2024 10 19,05:25:59.903,-0.082777,0.67184,0.074395,0.732288,-0.894559,0.048341,0.554704,-6.469727,-20.690918,-9.338379,0,0
13191,2024 10 19,05:25:59.912,-0.081626,0.672263,0.075079,0.731958,-1.182653,0.041993,-0.034181,0.305176,-1.953125,-15.930176,0,0
13192,2024 10 19,05:25:59.920,-0.081626,0.672263,0.075079,0.731958,-1.182653,0.041993,-0.034181,0.305176,-1.953125,-15.930176,0,0
13193,2024 10 19,05:25:59.928,-0.080786,0.671799,0.076226,0.732358,-1.052278,-0.065432,-0.051271,1.89209,5.493164,-16.967773,0,0
13194,2024 10 19,05:25:59.937,-0.079473,0.671774,0.077101,0.732434,-0.998566,-0.042482,0.049806,-4.394531,-2.441406,-17.63916,0,0
13195,2024 10 19,05:25:59.945,-0.078165,0.672001,0.077789,0.732294,-1.062044,-0.041017,-0.016114,-4.882813,-4.577637,-14.892578,0,0
13196,2024 10 19,05:25:59.953,-0.077123,0.672,0.078331,0.732347,-1.02298,-0.022462,0.113285,-2.075195,1.037598,-12.145996,0,0
13197,2024 10 19,05:25:59.962,-0.076481,0.671646,0.078904,0.732678,-0.962432,0.003418,0.110355,0.427246,4.333496,-9.94873,0,0
13198,2024 10 19,05:25:59.970,-0.076481,0.671646,0.078904,0.732678,-0.962432,0.003418,0.110355,0.427246,4.333496,-9.94873,0,0
13199,2024 10 19,05:25:59.978,-0.076111,0.67142,0.079607,0.732847,-0.965361,-0.04297,0.107913,3.601074,1.464844,-8.666992,0,0
13200,2024 10 19,05:25:59.987,-0.075744,0.671331,0.080232,0.732898,-1.008332,-0.039064,0.020508,1.953125,-0.305176,-7.629395,0,0
13201,2024 10 19,05:25:59.995,-0.075359,0.671296,0.08072,0.732917,-1.024934,-0.035157,0.054689,0.488281,0.671387,-6.835938,0,0
13202,2024 10 19,05:26:00.003,-0.075058,0.671051,0.081111,0.733129,-0.9888,-0.030763,0.062014,1.037598,3.540039,-5.67627,0,0
13203,2024 10 19,05:26:00.012,-0.074783,0.670921,0.081496,0.733233,-0.995636,-0.026856,0.083499,1.220703,0.549316,-5.432129,0,0
13204,2024 10 19,05:26:00.020,-0.074783,0.670921,0.081496,0.733233,-0.995636,-0.026856,0.083499,1.220703,0.549316,-5.432129,0,0
13205,2024 10 19,05:26:00.028,-0.074516,0.670855,0.081927,0.733273,-0.991729,-0.021485,0.08594,1.77002,0.244141,-5.67627,0,0
13206,2024 10 19,05:26:00.037,-0.074259,0.670829,0.0824,0.733269,-0.98587,-0.030763,0.070803,1.586914,-0.854492,-5.92041,0,0
13207,2024 10 19,05:26:00.045,-0.073954,0.670913,0.082856,0.733172,-0.997589,-0.038575,0.067385,1.525879,-2.502441,-5.92041,0,0
13208,2024 10 19,05:26:00.053,-0.073629,0.671011,0.083279,0.733068,-1.001495,-0.046876,0.044435,0.671387,-2.075195,-5.67627,0,0
13209,2024 10 19,05:26:00.062,-0.073279,0.671136,0.083644,0.732947,-1.002472,-0.046388,0.047365,0.12207,-2.502441,-5.371094,0,0
13210,2024 10 19,05:26:00.070,-0.073279,0.671136,0.083644,0.732947,-1.002472,-0.046388,0.047365,0.12207,-2.502441,-5.371094,0,0
13211,2024 10 19,05:26:00.078,-0.072946,0.671215,0.083946,0.732873,-1.001984,-0.036622,0.065432,-0.061035,-1.342773,-4.821777,0,0
13212,2024 10 19,05:26:00.087,-0.072684,0.671233,0.084262,0.732846,-1.004425,-0.025391,0.06592,0.610352,-0.793457,-4.516602,0,0
13213,2024 10 19,05:26:00.095,-0.072469,0.671272,0.084645,0.732787,-1.014191,-0.038087,0.075686,1.831055,-1.281738,-4.699707,0,0
13214,2024 10 19,05:26:00.103,-0.072287,0.671213,0.085092,0.732808,-1.004425,-0.034181,0.073244,2.685547,0.427246,-5.187988,0,0
13215,2024 10 19,05:26:00.112,-0.072114,0.671124,0.085593,0.732848,-0.998077,-0.034181,0.066897,2.929688,0.427246,-5.432129,0,0
13216,2024 10 19,05:26:00.120,-0.072114,0.671124,0.085593,0.732848,-0.998077,-0.034181,0.066897,2.929688,0.427246,-5.432129,0,0
13217,2024 10 19,05:26:00.128,-0.071926,0.671051,0.086136,0.732869,-1.000031,-0.035646,0.067385,2.929688,0.183105,-6.04248,0,0
13218,2024 10 19,05:26:00.137,-0.07174,0.670961,0.086665,0.732907,-0.987335,-0.051271,0.057131,2.929688,0.549316,-5.615234,0,0
13219,2024 10 19,05:26:00.145,-0.071538,0.670884,0.087132,0.732942,-0.995636,-0.044923,0.057619,2.13623,0.366211,-5.249023,0,0
13220,2024 10 19,05:26:00.153,-0.071365,0.670762,0.08754,0.733023,-0.990753,-0.054689,0.065432,1.89209,1.647949,-4.516602,0,0
13221,2024 10 19,05:26:00.162,-0.071223,0.670573,0.087849,0.733172,-0.977081,-0.051759,0.064943,1.342773,2.319336,-3.662109,0,0
13222,2024 10 19,05:26:00.170,-0.071075,0.670444,0.088081,0.733277,-0.98294,-0.053224,0.070315,0.549316,1.464844,-3.051758,0,0
13223,2024 10 19,05:26:00.178,-0.071075,0.670444,0.088081,0.733277,-0.98294,-0.053224,0.070315,0.549316,1.464844,-3.051758,0,0
13224,2024 10 19,05:26:00.187,-0.070896,0.670344,0.088239,0.733367,-0.987335,-0.042482,0.072756,-0.244141,1.098633,-2.807617,0,0
13225,2024 10 19,05:26:00.195,-0.070714,0.670273,0.088414,0.733428,-1.015656,-0.041017,0.056154,0.0,0.671387,-3.234863,0,0
13226,2024 10 19,05:26:00.203,-0.070495,0.670203,0.088648,0.733484,-1.033723,-0.040529,0.043947,0.183105,0.854492,-4.02832,0,0
13227,2024 10 19,05:26:00.212,-0.070214,0.670093,0.08895,0.733575,-1.033235,-0.036622,0.052248,0.427246,1.342773,-5.310059,0,0
13228,2024 10 19,05:26:00.220,-0.069897,0.669969,0.08937,0.733668,-1.030305,-0.054689,0.04297,1.037598,1.159668,-6.408691,0,0
13229,2024 10 19,05:26:00.228,-0.069897,0.669969,0.08937,0.733668,-1.030305,-0.054689,0.04297,1.037598,1.159668,-6.408691,0,0
13230,2024 10 19,05:26:00.237,-0.069479,0.669884,0.089872,0.733724,-1.044954,-0.029298,0.06006,1.342773,0.0,-7.873535,0,0
13231,2024 10 19,05:26:00.245,-0.06905,0.669828,0.090604,0.733726,-1.055208,-0.046876,0.041505,2.990723,-0.244141,-9.887695,0,0
13232,2024 10 19,05:26:00.253,-0.068512,0.669726,0.091508,0.733757,-1.061068,-0.031739,0.04883,3.417969,0.0,-12.207031,0,0
13233,2024 10 19,05:26:00.262,-0.067847,0.669719,0.092669,0.733679,-1.104038,-0.030763,0.051271,5.065918,-2.746582,-15.380859,0,0
13234,2024 10 19,05:26:00.270,-0.066927,0.669831,0.094224,0.733463,-1.16068,-0.02588,0.027345,6.103516,-5.310059,-21.118164,0,0
13235,2024 10 19,05:26:00.278,-0.066927,0.669831,0.094224,0.733463,-1.16068,-0.02588,0.027345,6.103516,-5.310059,-21.118164,0,0
13236,2024 10 19,05:26:00.287,-0.065586,0.670054,0.096251,0.733118,-1.240272,-0.018067,0.015625,6.774902,-7.873535,-28.564453,0,0
13237,2024 10 19,05:26:00.295,-0.063541,0.670254,0.098803,0.732775,-1.318888,-0.018067,0.020997,6.225586,-7.385254,-39.367676,0,0
13238,2024 10 19,05:26:00.303,-0.060471,0.670216,0.10188,0.732648,-1.545946,-0.01709,-0.035157,0.366211,-5.310059,-53.771973,0,0
13239,2024 10 19,05:26:00.312,-0.055802,0.669738,0.10553,0.73294,-1.759331,0.024415,0.047365,-7.385254,1.953125,-73.913574,0,0
13240,2024 10 19,05:26:00.320,-0.049688,0.667832,0.110024,0.734457,-1.900937,0.085452,0.099612,-10.437012,23.803711,-95.703125,0,0
13241,2024 10 19,05:26:00.328,-0.049688,0.667832,0.110024,0.734457,-1.900937,0.085452,0.099612,-10.437012,23.803711,-95.703125,0,0
13242,2024 10 19,05:26:00.337,-0.04243,0.663986,0.115798,0.737505,-1.949767,0.10596,-0.000488,-8.056641,49.438477,-118.713379,0,0
13243,2024 10 19,05:26:00.345,-0.034655,0.658202,0.12317,0.741888,-2.004456,0.136235,0.038575,4.699707,76.35498,-137.878418,0,0
13244,2024 10 19,05:26:00.353,-0.026662,0.650114,0.13226,0.747762,-2.090396,0.163091,0.110843,13.305664,106.445313,-159.057617,0,0
13245,2024 10 19,05:26:00.362,-0.017577,0.640166,0.142872,0.75463,-1.866756,0.150395,-0.056642,15.991211,123.10791,-181.82373,0,0
13246,2024 10 19,05:26:00.370,-0.007726,0.629758,0.154647,0.761203,-1.81695,0.099612,0.029786,23.254395,120.666504,-195.617676,0,0
13247,2024 10 19,05:26:00.378,-0.007726,0.629758,0.154647,0.761203,-1.81695,0.099612,0.029786,23.254395,120.666504,-195.617676,0,0
13248,2024 10 19,05:26:00.387,0.001827,0.618414,0.167208,0.767855,-1.737846,0.019532,0.115238,32.104492,135.070801,-197.143555,0,1
13249,2024 10 19,05:26:00.395,0.010466,0.605634,0.179639,0.775131,-1.567919,-0.082522,0.042482,32.287598,151.733398,-187.561035,0,0
13250,2024 10 19,05:26:00.403,0.017505,0.591895,0.190384,0.783012,-1.388226,0.140629,0.144536,28.198242,170.776367,-158.447266,0,0
13251,2024 10 19,05:26:00.412,0.021584,0.576872,0.199462,0.791813,-1.39555,0.290048,0.075686,39.306641,193.42041,-124.023438,0,0
13252,2024 10 19,05:26:00.420,0.022442,0.559713,0.207989,0.801847,-0.48732,0.586444,0.004395,43.762207,237.854004,-98.815918,0,0
13253,2024 10 19,05:26:00.428,0.022442,0.559713,0.207989,0.801847,-0.48732,0.586444,0.004395,43.762207,237.854004,-98.815918,0,0
13254,2024 10 19,05:26:00.437,0.020237,0.541957,0.214609,0.812291,0.738304,1.184118,-1.482955,50.292969,222.106934,-51.879883,0,0
13255,2024 10 19,05:26:00.445,0.01664,0.535194,0.220236,0.815345,0.192389,1.242225,-0.632344,74.951172,56.274414,-14.343262,0,0
13256,2024 10 19,05:26:00.453,0.011056,0.533746,0.227038,0.814522,-0.419446,1.29252,-0.543962,101.989746,31.494141,7.019043,0,0
13257,2024 10 19,05:26:00.462,0.002472,0.532082,0.234752,0.813495,-0.356945,1.054231,-0.746117,133.666992,30.883789,24.230957,0,0
13258,2024 10 19,05:26:00.470,-0.007602,0.53124,0.243029,0.81158,-0.15479,0.92288,-0.732933,148.254395,30.334473,40.95459,0,0
13259,2024 10 19,05:26:00.478,-0.007602,0.53124,0.243029,0.81158,-0.15479,0.92288,-0.732933,148.254395,30.334473,40.95459,0,0
13260,2024 10 19,05:26:00.487,-0.019336,0.531569,0.250395,0.808927,-0.036622,0.90286,-1.000519,146.972656,6.469727,68.481445,0,0
13261,2024 10 19,05:26:00.495,-0.032251,0.534898,0.25609,0.804526,-0.317881,0.834986,-0.626484,141.296387,-19.958496,98.510742,0,0
13262,2024 10 19,05:26:00.503,-0.046949,0.538602,0.259876,0.800105,-0.362316,0.711936,-0.772485,133.789063,-16.174316,127.380371,0,0
13263,2024 10 19,05:26:00.512,-0.06285,0.543395,0.261594,0.795198,-0.453139,0.59035,-0.618671,122.375488,-25.20752,154.785156,0,0
13264,2024 10 19,05:26:00.520,-0.079754,0.548769,0.261195,0.790107,-0.522477,0.485366,-0.612812,109.558105,-27.160645,178.161621,0,0
13265,2024 10 19,05:26:00.528,-0.079754,0.548769,0.261195,0.790107,-0.522477,0.485366,-0.612812,109.558105,-27.160645,178.161621,0,0
13266,2024 10 19,05:26:00.537,-0.097206,0.555144,0.259109,0.784365,-0.646504,0.451186,-0.46144,99.79248,-38.879395,196.533203,0,0
13267,2024 10 19,05:26:00.545,-0.115392,0.56212,0.25594,0.777946,-0.797388,0.399426,-0.365246,98.388672,-43.823242,211.791992,0,0
13268,2024 10 19,05:26:00.553,-0.134473,0.569296,0.252358,0.770801,-0.91702,0.3296,-0.292978,104.064941,-47.607422,223.327637,0,0
13269,2024 10 19,05:26:00.562,-0.154469,0.576512,0.24902,0.762734,-1.030793,0.221686,-0.260262,116.455078,-52.124023,230.407715,0,0
13270,2024 10 19,05:26:00.570,-0.175159,0.583645,0.246587,0.753573,-1.151891,0.070315,-0.262703,133.239746,-59.143066,231.201172,0,0
13271,2024 10 19,05:26:00.578,-0.175159,0.583645,0.246587,0.753573,-1.151891,0.070315,-0.262703,133.239746,-59.143066,231.201172,0,0
13272,2024 10 19,05:26:00.587,-0.196108,0.590607,0.245658,0.743221,-1.270058,-0.140141,-0.258797,151.794434,-68.054199,224.304199,0,0
13273,2024 10 19,05:26:00.595,-0.216778,0.597281,0.246638,0.731733,-1.362346,-0.386731,-0.264168,169.189453,-79.162598,210.388184,0,0
13274,2024 10 19,05:26:00.603,-0.236589,0.603634,0.249622,0.719263,-1.431684,-0.637715,-0.238777,182.617188,-90.332031,191.345215,0,0
13275,2024 10 19,05:26:00.612,-0.255147,0.609634,0.25458,0.706,-1.532273,-0.856471,-0.14893,192.382813,-102.111816,169.311523,0,0
13276,2024 10 19,05:26:00.620,-0.272292,0.614886,0.261294,0.692457,-1.598193,-1.071322,-0.123051,198.913574,-105.34668,145.141602,0,0
13277,2024 10 19,05:26:00.628,-0.287839,0.619086,0.26945,0.679174,-1.588427,-1.283242,-0.163579,200.195313,-103.637695,119.262695,0,0
13278,2024 10 19,05:26:00.637,-0.287839,0.619086,0.26945,0.679174,-1.588427,-1.283242,-0.163579,200.195313,-103.637695,119.262695,0,0
13279,2024 10 19,05:26:00.645,-0.301537,0.622307,0.278634,0.666463,-1.511765,-1.524949,-0.296396,194.824219,-101.501465,94.421387,0,0
13280,2024 10 19,05:26:00.653,-0.312962,0.625013,0.288517,0.654349,-1.440474,-1.66216,-0.301279,182.617188,-102.661133,69.946289,0,0
13281,2024 10 19,05:26:00.662,-0.32219,0.627155,0.298568,0.643216,-1.266152,-1.794977,-0.359386,165.649414,-98.266602,48.278809,0,0
13282,2024 10 19,05:26:00.670,-0.328925,0.62907,0.308646,0.633101,-1.058138,-1.830134,-0.376476,144.592285,-99.975586,25.085449,0,0
13283,2024 10 19,05:26:00.678,-0.332656,0.631178,0.319218,0.623743,-0.859401,-1.820368,-0.291025,123.046875,-110.595703,-4.02832,0,0
13284,2024 10 19,05:26:00.687,-0.332656,0.631178,0.319218,0.623743,-0.859401,-1.820368,-0.291025,123.046875,-110.595703,-4.02832,0,0
13285,2024 10 19,05:26:00.695,-0.327546,0.637879,0.33687,0.610199,-2.569414,-3.711051,7.119846,103.881836,-292.96875,-115.722656,1,0
13286,2024 10 19,05:26:00.703,-0.339977,0.613401,0.337958,0.627646,-2.959563,-5.320963,-0.444349,150.45166,501.098633,-32.592773,0,0
13287,2024 10 19,05:26:00.712,-0.347072,0.588059,0.328645,0.652472,1.218299,-0.437513,-1.290078,-138.793945,348.632813,-46.569824,0,0
13288,2024 10 19,05:26:00.720,-0.344291,0.592074,0.324432,0.652423,-0.416028,-0.439955,2.293039,-1.525879,-109.924316,47.607422,0,0
13289,2024 10 19,05:26:00.728,-0.342097,0.596926,0.32076,0.65097,-1.472701,1.156774,0.505387,-81.237793,-3.90625,18.188477,0,0
13290,2024 10 19,05:26:00.737,-0.342097,0.596926,0.32076,0.65097,-1.472701,1.156774,0.505387,-81.237793,-3.90625,18.188477,0,0
13291,2024 10 19,05:26:00.745,-0.34502,0.594352,0.319367,0.652466,-1.319376,0.08594,-0.709494,19.226074,43.212891,6.469727,0,0
13292,2024 10 19,05:26:00.753,-0.347217,0.593133,0.320636,0.651787,-1.266152,-0.402844,-0.060549,47.180176,4.394531,9.82666,0,0
13293,2024 10 19,05:26:00.762,-0.348798,0.591427,0.320575,0.652523,-0.855495,0.073733,0.310068,7.263184,31.494141,2.807617,0,0
13294,2024 10 19,05:26:00.770,-0.349544,0.590438,0.320632,0.652991,-0.973662,0.073244,-0.209967,3.112793,0.244141,-2.746582,0,0
13295,2024 10 19,05:26:00.778,-0.349329,0.591005,0.321849,0.651993,-1.214881,-0.070803,0.298349,10.803223,-11.962891,-4.211426,0,0
13296,2024 10 19,05:26:00.787,-0.349329,0.591005,0.321849,0.651993,-1.214881,-0.070803,0.298349,10.803223,-11.962891,-4.211426,0,0
13297,2024 10 19,05:26:00.795,-0.35008,0.589433,0.321937,0.65297,-0.946806,-0.061525,-0.070803,9.399414,26.794434,-4.089355,0,0
13298,2024 10 19,05:26:00.803,-0.35007,0.588976,0.322232,0.653242,-0.973174,-0.039552,-0.012696,-0.732422,-5.065918,-4.882813,0,0
13299,2024 10 19,05:26:00.812,-0.349634,0.589267,0.322634,0.653015,-1.064974,-0.007324,0.24366,1.159668,-1.831055,-3.540039,0,0
13300,2024 10 19,05:26:00.820,-0.350114,0.588351,0.322556,0.653622,-0.922391,-0.028321,0.004395,4.394531,13.305664,-1.464844,0,0
13301,2024 10 19,05:26:00.828,-0.35011,0.588328,0.322825,0.653511,-1.016633,-0.034669,0.074709,1.708984,-5.371094,-1.342773,0,0
13302,2024 10 19,05:26:00.837,-0.35011,0.588328,0.322825,0.653511,-1.016633,-0.034669,0.074709,1.708984,-5.371094,-1.342773,0,0
13303,2024 10 19,05:26:00.845,-0.350156,0.588229,0.322943,0.653518,-1.02591,-0.022462,0.11475,1.77002,4.333496,-0.488281,0,0
13304,2024 10 19,05:26:00.853,-0.350457,0.587764,0.322844,0.653823,-0.980987,-0.037111,0.015625,1.525879,5.615234,0.0,0,0
13305,2024 10 19,05:26:00.862,-0.350386,0.58779,0.322888,0.653816,-1.035188,-0.009766,0.119144,-0.549316,-1.098633,-0.793457,0,0
13306,2024 10 19,05:26:00.870,-0.350473,0.587538,0.322857,0.654012,-1.025422,-0.018067,0.071291,0.854492,5.004883,-1.037598,0,0
13307,2024 10 19,05:26:00.878,-0.350482,0.587269,0.322872,0.654241,-1.018586,-0.015625,0.070315,0.183105,2.563477,-2.319336,0,0
13308,2024 10 19,05:26:00.887,-0.350482,0.587269,0.322872,0.654241,-1.018586,-0.015625,0.070315,0.183105,2.563477,-2.319336,0,0
13309,2024 10 19,05:26:00.895,-0.350401,0.587005,0.322954,0.65448,-1.028352,-0.022462,0.0918,0.12207,4.02832,-3.356934,0,0
13310,2024 10 19,05:26:00.903,-0.350359,0.586535,0.322978,0.654913,-0.991729,-0.019532,0.073733,0.488281,6.103516,-4.150391,0,0
