frame,date,time,quaternion_x,quaternion_y,quaternion_z,quaternion_w,accel_x,accel_y,accel_z,gyro_x,gyro_y,gyro_z,HS,TO
11437,2024 10 17,09:01:35.296,0.612148,-0.488301,-0.447323,-0.432133,-1.092807,0.156255,0.079592,-5.065918,-71.044922,-81.726074,0,0
11438,2024 10 17,09:01:35.304,0.617259,-0.488412,-0.439962,-0.432294,-0.983428,0.259285,0.093265,-10.375977,-80.993652,-63.659668,0,0
11439,2024 10 17,09:01:35.312,0.622069,-0.487786,-0.432739,-0.433396,-0.712424,0.370617,0.233406,-10.131836,-86.425781,-54.016113,0,0
11440,2024 10 17,09:01:35.321,0.626137,-0.487199,-0.426474,-0.434407,-0.485855,0.521989,0.333995,-9.460449,-69.824219,-45.654297,0,0
11441,2024 10 17,09:01:35.329,0.628682,-0.487441,-0.421739,-0.435083,-0.396008,0.420423,0.26075,-16.174316,-44.677734,-36.560059,0,0
11442,2024 10 17,09:01:35.337,0.629558,-0.488266,-0.4193,-0.435247,-0.480483,0.594745,0.364757,-14.038086,-11.535645,-19.042969,0,0
11443,2024 10 17,09:01:35.346,0.629558,-0.488266,-0.4193,-0.435247,-0.480483,0.594745,0.364757,-14.038086,-11.535645,-19.042969,0,0
11444,2024 10 17,09:01:35.354,0.628918,-0.489548,-0.418644,-0.435364,-0.608905,0.591327,0.294443,-16.662598,4.150391,-7.019043,0,0
11445,2024 10 17,09:01:35.362,0.627599,-0.49099,-0.418684,-0.435605,-0.632344,0.559099,0.225593,-19.714355,12.512207,-1.037598,0,0
11446,2024 10 17,09:01:35.371,0.625959,-0.492406,-0.419121,-0.435947,-0.559099,0.52736,0.28663,-18.981934,15.74707,4.272461,0,0
11447,2024 10 17,09:01:35.379,0.623816,-0.493737,-0.420505,-0.436179,-0.565935,0.50441,0.241218,-14.709473,26.306152,12.634277,0,0
11448,2024 10 17,09:01:35.387,0.621191,-0.494771,-0.423042,-0.436301,-0.61623,0.518571,0.22071,-8.728027,36.193848,22.521973,0,0
11449,2024 10 17,09:01:35.396,0.621191,-0.494771,-0.423042,-0.436301,-0.61623,0.518571,0.22071,-8.728027,36.193848,22.521973,0,0
11450,2024 10 17,09:01:35.404,0.618081,-0.495395,-0.426669,-0.436479,-0.693869,0.529313,0.172857,-3.662109,43.029785,33.752441,0,0
11451,2024 10 17,09:01:35.412,0.614614,-0.495439,-0.431151,-0.436919,-0.749535,0.519059,0.133793,0.915527,45.471191,44.86084,0,0
11452,2024 10 17,09:01:35.421,0.610875,-0.494899,-0.436291,-0.437672,-0.781762,0.49855,0.110843,5.310059,46.813965,54.748535,0,0
11453,2024 10 17,09:01:35.429,0.606893,-0.493824,-0.44204,-0.438656,-0.804712,0.48146,0.088382,9.643555,48.76709,63.476563,0,0
11454,2024 10 17,09:01:35.437,0.602691,-0.49226,-0.448347,-0.439806,-0.83401,0.471694,0.076662,13.61084,50.231934,71.228027,0,0
11455,2024 10 17,09:01:35.446,0.602691,-0.49226,-0.448347,-0.439806,-0.83401,0.471694,0.076662,13.61084,50.231934,71.228027,0,0
11456,2024 10 17,09:01:35.454,0.598271,-0.490257,-0.455126,-0.441113,-0.862819,0.469253,0.052248,16.784668,51.635742,78.186035,0,0
11457,2024 10 17,09:01:35.462,0.593602,-0.4879,-0.462297,-0.442574,-0.882351,0.462416,0.043947,18.615723,53.161621,84.594727,0,0
11458,2024 10 17,09:01:35.471,0.588546,-0.48525,-0.469926,-0.444202,-0.918973,0.470229,0.021973,19.714355,56.335449,92.224121,0,0
11459,2024 10 17,09:01:35.479,0.582971,-0.482355,-0.477965,-0.446125,-0.975616,0.469741,0.00293,18.493652,58.959961,100.463867,0,0
11460,2024 10 17,09:01:35.487,0.576907,-0.479259,-0.486184,-0.448458,-1.005402,0.448256,-0.015137,15.014648,59.082031,107.543945,0,0
11461,2024 10 17,09:01:35.496,0.576907,-0.479259,-0.486184,-0.448458,-1.005402,0.448256,-0.015137,15.014648,59.082031,107.543945,0,0
11462,2024 10 17,09:01:35.504,0.570376,-0.47611,-0.494446,-0.451124,-1.026887,0.41847,-0.019044,11.230469,60.241699,112.243652,0,0
11463,2024 10 17,09:01:35.512,0.563416,-0.47305,-0.502661,-0.454002,-1.046419,0.388195,-0.020997,6.835938,61.950684,114.746094,0,0
11464,2024 10 17,09:01:35.521,0.55604,-0.470209,-0.510766,-0.456992,-1.074252,0.363292,-0.020997,1.831055,64.27002,115.783691,0,0
11465,2024 10 17,09:01:35.529,0.548242,-0.467612,-0.518696,-0.460135,-1.113804,0.353526,-0.023438,-3.90625,66.101074,117.004395,0,0
11466,2024 10 17,09:01:35.537,0.54002,-0.465223,-0.52637,-0.463552,-1.150914,0.347667,-0.020508,-10.864258,66.101074,118.469238,0,0
11467,2024 10 17,09:01:35.546,0.54002,-0.465223,-0.52637,-0.463552,-1.150914,0.347667,-0.020508,-10.864258,66.101074,118.469238,0,0
11468,2024 10 17,09:01:35.554,0.531402,-0.463021,-0.533691,-0.46733,-1.130406,0.320322,-0.002441,-18.066406,65.551758,119.995117,0,0
11469,2024 10 17,09:01:35.562,0.522347,-0.46104,-0.540759,-0.471354,-1.135777,0.279305,0.006348,-24.230957,67.199707,121.337891,0,0
11470,2024 10 17,09:01:35.571,0.512883,-0.459294,-0.547652,-0.475475,-1.172887,0.244636,0.007324,-28.930664,69.335938,121.948242,0,0
11471,2024 10 17,09:01:35.579,0.503182,-0.457673,-0.554294,-0.479689,-1.184606,0.20069,0.005371,-32.714844,69.030762,121.826172,0,0
11472,2024 10 17,09:01:35.587,0.49338,-0.456141,-0.560675,-0.483896,-1.193884,0.150395,-0.009278,-34.606934,68.786621,120.544434,0,0
11473,2024 10 17,09:01:35.596,0.483611,-0.454644,-0.566839,-0.487968,-1.213416,0.095218,-0.02588,-34.484863,68.481445,118.408203,0,0
11474,2024 10 17,09:01:35.604,0.483611,-0.454644,-0.566839,-0.487968,-1.213416,0.095218,-0.02588,-34.484863,68.481445,118.408203,0,0
11475,2024 10 17,09:01:35.612,0.474036,-0.453089,-0.572786,-0.491849,-1.228065,0.050783,-0.034669,-32.775879,66.101074,115.905762,0,0
11476,2024 10 17,09:01:35.621,0.464816,-0.451356,-0.578474,-0.495572,-1.230995,-0.000977,-0.04297,-30.029297,62.133789,113.28125,0,0
11477,2024 10 17,09:01:35.629,0.456015,-0.449404,-0.583965,-0.499071,-1.235389,-0.043947,-0.057619,-26.000977,58.166504,110.412598,0,0
11478,2024 10 17,09:01:35.637,0.447767,-0.447162,-0.589227,-0.502357,-1.233436,-0.102054,-0.054689,-21.484375,52.368164,106.994629,0,0
11479,2024 10 17,09:01:35.646,0.44016,-0.444661,-0.594245,-0.505379,-1.207556,-0.158208,-0.055177,-16.418457,47.058105,102.722168,0,0
11480,2024 10 17,09:01:35.654,0.44016,-0.444661,-0.594245,-0.505379,-1.207556,-0.158208,-0.055177,-16.418457,47.058105,102.722168,0,0
11481,2024 10 17,09:01:35.662,0.433306,-0.441939,-0.598987,-0.508086,-1.183142,-0.213874,-0.039552,-11.108398,40.344238,96.862793,0,0
11482,2024 10 17,09:01:35.671,0.427263,-0.439073,-0.603423,-0.510433,-1.153844,-0.250496,-0.04297,-5.493164,34.545898,89.904785,0,0
11483,2024 10 17,09:01:35.679,0.422042,-0.436129,-0.607563,-0.512386,-1.104038,-0.28663,-0.041505,0.061035,28.991699,82.336426,0,0
11484,2024 10 17,09:01:35.687,0.417588,-0.433124,-0.611475,-0.513928,-1.052767,-0.317392,-0.0459,5.859375,24.475098,75.439453,0,0
11485,2024 10 17,09:01:35.696,0.413827,-0.430122,-0.615231,-0.515007,-0.996124,-0.344737,-0.038087,11.352539,21.728516,68.54248,0,0
11486,2024 10 17,09:01:35.704,0.413827,-0.430122,-0.615231,-0.515007,-0.996124,-0.344737,-0.038087,11.352539,21.728516,68.54248,0,0
11487,2024 10 17,09:01:35.712,0.410578,-0.427275,-0.618931,-0.515545,-0.977081,-0.356945,-0.052736,16.479492,22.094727,61.706543,0,0
11488,2024 10 17,09:01:35.721,0.407854,-0.424643,-0.622519,-0.515561,-0.987823,-0.3755,-0.054201,20.812988,21.240234,53.833008,0,0
11489,2024 10 17,09:01:35.729,0.405842,-0.42213,-0.625771,-0.515275,-0.95999,-0.397473,-0.028809,23.193359,15.441895,46.020508,0,0
11490,2024 10 17,09:01:35.737,0.404465,-0.419791,-0.628736,-0.51466,-0.935575,-0.429701,-0.031739,26.794434,13.122559,38.085938,0,0
11491,2024 10 17,09:01:35.746,0.403746,-0.417534,-0.631473,-0.51371,-0.942412,-0.471206,-0.037599,31.066895,9.155273,31.555176,0,0
11492,2024 10 17,09:01:35.754,0.403746,-0.417534,-0.631473,-0.51371,-0.942412,-0.471206,-0.037599,31.066895,9.155273,31.555176,0,0
11493,2024 10 17,09:01:35.762,0.403808,-0.41506,-0.634069,-0.512466,-0.897,-0.547868,-0.035646,37.353516,1.89209,27.46582,0,0
11494,2024 10 17,09:01:35.771,0.404576,-0.41214,-0.636809,-0.510815,-0.849147,-0.652852,-0.021973,47.607422,-1.647949,26.794434,0,0
11495,2024 10 17,09:01:35.779,0.405814,-0.408587,-0.640131,-0.508531,-0.902371,-0.690451,-0.028321,61.218262,-3.479004,29.35791,0,0
11496,2024 10 17,09:01:35.787,0.407891,-0.404305,-0.643676,-0.50581,-0.986358,-0.711936,-0.072756,72.387695,-12.756348,27.282715,0,0
11497,2024 10 17,09:01:35.796,0.411486,-0.399624,-0.646679,-0.502779,-0.95706,-0.745628,-0.073733,79.284668,-28.198242,15.380859,0,0
11498,2024 10 17,09:01:35.804,0.411486,-0.399624,-0.646679,-0.502779,-0.95706,-0.745628,-0.073733,79.284668,-28.198242,15.380859,0,0
11499,2024 10 17,09:01:35.812,0.416476,-0.395169,-0.648873,-0.499352,-0.912625,-0.693869,-0.081545,81.604004,-36.743164,-0.305176,0,0
11500,2024 10 17,09:01:35.821,0.424414,-0.396706,-0.654448,-0.483937,-3.358989,0.216315,-2.888272,243.469238,112.426758,-173.522949,1,0
11501,2024 10 17,09:01:35.829,0.447451,-0.391657,-0.641119,-0.485139,0.318857,-0.236824,1.535203,33.508301,-343.261719,-143.432617,0,0
11502,2024 10 17,09:01:35.837,0.463884,-0.393125,-0.637788,-0.472747,-1.0347,1.55913,-1.260781,85.998535,21.728516,-172.607422,0,0
11503,2024 10 17,09:01:35.846,0.47251,-0.399638,-0.630286,-0.468788,-1.589404,0.722678,1.364299,15.74707,-96.923828,-155.456543,0,0
11504,2024 10 17,09:01:35.854,0.47251,-0.399638,-0.630286,-0.468788,-1.589404,0.722678,1.364299,15.74707,-96.923828,-155.456543,0,0
11505,2024 10 17,09:01:35.862,0.480939,-0.406219,-0.619661,-0.468726,-1.520554,-0.156255,-0.819361,-81.726074,-76.843262,-138.48877,0,0
11506,2024 10 17,09:01:35.871,0.491158,-0.410067,-0.607766,-0.47035,-1.213416,-0.063967,0.219245,-44.067383,-131.225586,-119.628906,0,0
11507,2024 10 17,09:01:35.879,0.498594,-0.412213,-0.598329,-0.472744,-1.057649,-0.218268,-0.347179,-37.902832,-95.88623,-72.08252,0,0
11508,2024 10 17,09:01:35.887,0.504289,-0.412432,-0.591431,-0.475186,-0.940947,0.167486,0.14893,-30.456543,-83.068848,-44.189453,0,0
11509,2024 10 17,09:01:35.896,0.508504,-0.412872,-0.585429,-0.477737,-0.921415,0.17481,-0.064455,-30.944824,-72.44873,-39.855957,0,0
11510,2024 10 17,09:01:35.904,0.508504,-0.412872,-0.585429,-0.477737,-0.921415,0.17481,-0.064455,-30.944824,-72.44873,-39.855957,0,0
11511,2024 10 17,09:01:35.912,0.513109,-0.413071,-0.579514,-0.479849,-0.93997,0.190435,-0.02295,-25.512695,-73.913574,-43.029785,0,0
11512,2024 10 17,09:01:35.921,0.517619,-0.413226,-0.573458,-0.482142,-0.992706,0.229011,0.146001,-30.456543,-76.35498,-39.794922,0,0
11513,2024 10 17,09:01:35.929,0.521115,-0.413596,-0.566726,-0.486003,-0.9888,0.101077,0.084475,-55.114746,-81.176758,-28.015137,0,0
11514,2024 10 17,09:01:35.937,0.523671,-0.413752,-0.559564,-0.491393,-0.800806,-0.007813,-0.239265,-64.63623,-83.862305,-13.305664,0,0
11515,2024 10 17,09:01:35.946,0.525505,-0.413498,-0.553916,-0.496025,-0.801294,0.080081,-0.250496,-44.677734,-61.645508,-6.04248,0,0
11516,2024 10 17,09:01:35.954,0.526645,-0.413268,-0.549923,-0.49944,-0.875515,0.111332,-0.133305,-36.010742,-43.212891,-2.685547,0,0
11517,2024 10 17,09:01:35.962,0.526645,-0.413268,-0.549923,-0.49944,-0.875515,0.111332,-0.133305,-36.010742,-43.212891,-2.685547,0,0
11518,2024 10 17,09:01:35.971,0.527126,-0.413267,-0.547062,-0.502067,-0.853053,0.059572,-0.192877,-28.564453,-29.47998,0.183105,0,0
11519,2024 10 17,09:01:35.979,0.527595,-0.413103,-0.545386,-0.503531,-0.887234,0.152348,-0.081057,-11.108398,-16.296387,-0.732422,0,0
11520,2024 10 17,09:01:35.987,0.527834,-0.413109,-0.544605,-0.50412,-0.984893,0.163091,-0.043458,-6.713867,-8.117676,-2.380371,0,0
11521,2024 10 17,09:01:35.996,0.528321,-0.413093,-0.544006,-0.504271,-0.914579,0.169927,-0.100589,-0.12207,-6.652832,-6.04248,0,0
11522,2024 10 17,09:01:36.004,0.528951,-0.413197,-0.543773,-0.503775,-0.909207,0.168462,-0.114261,4.943848,-0.732422,-9.399414,0,0
11523,2024 10 17,09:01:36.012,0.528951,-0.413197,-0.543773,-0.503775,-0.909207,0.168462,-0.114261,4.943848,-0.732422,-9.399414,0,0
11524,2024 10 17,09:01:36.021,0.529554,-0.41346,-0.543872,-0.502818,-0.917997,0.160649,-0.084475,8.850098,4.577637,-11.169434,0,0
11525,2024 10 17,09:01:36.029,0.530055,-0.413841,-0.544259,-0.501558,-0.938994,0.158696,-0.081057,10.009766,8.117676,-11.291504,0,0
11526,2024 10 17,09:01:36.037,0.530526,-0.414261,-0.544693,-0.50024,-0.976592,0.159185,-0.036134,10.314941,8.300781,-11.413574,0,0
11527,2024 10 17,09:01:36.046,0.531115,-0.414582,-0.545049,-0.49896,-0.984893,0.161626,-0.02588,10.559082,5.615234,-11.71875,0,0
11528,2024 10 17,09:01:36.054,0.5318,-0.414837,-0.545227,-0.497821,-0.96292,0.167974,-0.057619,8.789063,2.929688,-11.962891,0,0
11529,2024 10 17,09:01:36.062,0.5318,-0.414837,-0.545227,-0.497821,-0.96292,0.167974,-0.057619,8.789063,2.929688,-11.962891,0,0
11530,2024 10 17,09:01:36.071,0.532488,-0.415106,-0.545214,-0.496875,-0.966338,0.172857,-0.061525,6.835938,1.281738,-11.71875,0,0
11531,2024 10 17,09:01:36.079,0.533208,-0.415357,-0.545007,-0.496121,-0.95999,0.169439,-0.061037,4.943848,-1.342773,-11.71875,0,0
11532,2024 10 17,09:01:36.087,0.53393,-0.415615,-0.544625,-0.495546,-0.947783,0.165532,-0.063967,2.868652,-2.685547,-11.413574,0,0
11533,2024 10 17,09:01:36.096,0.53464,-0.41592,-0.544137,-0.495061,-0.961455,0.165044,-0.052248,1.403809,-3.540039,-11.84082,0,0
11534,2024 10 17,09:01:36.104,0.535395,-0.416276,-0.543559,-0.494582,-0.951201,0.15772,-0.064943,0.793457,-4.02832,-12.756348,0,0
11535,2024 10 17,09:01:36.112,0.535395,-0.416276,-0.543559,-0.494582,-0.951201,0.15772,-0.064943,0.793457,-4.02832,-12.756348,0,0
11536,2024 10 17,09:01:36.121,0.536162,-0.416687,-0.54292,-0.494106,-0.933622,0.149907,-0.067873,0.244141,-3.90625,-13.427734,0,0
11537,2024 10 17,09:01:36.129,0.5369,-0.417157,-0.542334,-0.49355,-0.940458,0.151372,-0.067873,0.915527,-2.685547,-13.73291,0,0
11538,2024 10 17,09:01:36.137,0.537609,-0.417654,-0.541762,-0.492986,-0.936552,0.155278,-0.075198,0.488281,-2.01416,-13.73291,0,0
11539,2024 10 17,09:01:36.146,0.538258,-0.418254,-0.541218,-0.492368,-0.934599,0.156743,-0.082522,-0.183105,-0.610352,-14.404297,0,0
11540,2024 10 17,09:01:36.154,0.538805,-0.418998,-0.540671,-0.491737,-0.929716,0.149907,-0.083987,-1.403809,1.159668,-14.648438,0,0
11541,2024 10 17,09:01:36.162,0.538805,-0.418998,-0.540671,-0.491737,-0.929716,0.149907,-0.083987,-1.403809,1.159668,-14.648438,0,0
11542,2024 10 17,09:01:36.171,0.539279,-0.419861,-0.540116,-0.491091,-0.947783,0.15479,-0.072756,-2.746582,1.708984,-15.197754,0,0
11543,2024 10 17,09:01:36.179,0.5397,-0.420816,-0.539445,-0.490547,-0.939482,0.140141,-0.064455,-4.577637,1.464844,-15.197754,0,0
11544,2024 10 17,09:01:36.187,0.540058,-0.421841,-0.538744,-0.490044,-0.945341,0.136723,-0.090335,-6.408691,1.708984,-15.075684,0,0
11545,2024 10 17,09:01:36.196,0.540375,-0.422922,-0.537964,-0.489619,-0.943876,0.136235,-0.046388,-7.141113,1.647949,-15.197754,0,0
11546,2024 10 17,09:01:36.204,0.540628,-0.42407,-0.537121,-0.489273,-0.940947,0.13184,-0.068361,-9.033203,1.220703,-15.075684,0,0
11547,2024 10 17,09:01:36.212,0.540628,-0.42407,-0.537121,-0.489273,-0.940947,0.13184,-0.068361,-9.033203,1.220703,-15.075684,0,0
11548,2024 10 17,09:01:36.221,0.540865,-0.42525,-0.536192,-0.489004,-0.939482,0.123051,-0.074709,-10.070801,0.976563,-15.075684,0,0
11549,2024 10 17,09:01:36.229,0.541106,-0.426433,-0.535231,-0.488761,-0.940458,0.103519,-0.083499,-10.375977,0.183105,-15.014648,0,0
11550,2024 10 17,09:01:36.237,0.541433,-0.427515,-0.534291,-0.488481,-0.929716,0.11475,-0.084964,-8.361816,-0.061035,-15.197754,0,0
11551,2024 10 17,09:01:36.246,0.541804,-0.428565,-0.533387,-0.488138,-0.928739,0.119144,-0.075198,-6.835938,0.366211,-15.74707,0,0
11552,2024 10 17,09:01:36.254,0.542157,-0.429668,-0.532608,-0.487627,-0.950224,0.113285,-0.069338,-6.652832,2.075195,-16.174316,0,0
11553,2024 10 17,09:01:36.262,0.542157,-0.429668,-0.532608,-0.487627,-0.950224,0.113285,-0.069338,-6.652832,2.075195,-16.174316,0,0
11554,2024 10 17,09:01:36.271,0.542511,-0.430812,-0.531872,-0.487028,-0.955596,0.129398,-0.088382,-5.859375,3.295898,-16.845703,0,0
11555,2024 10 17,09:01:36.279,0.542882,-0.432025,-0.531085,-0.486398,-0.957549,0.116214,-0.064943,-6.164551,2.746582,-18.005371,0,0
11556,2024 10 17,09:01:36.287,0.543297,-0.433319,-0.530328,-0.485609,-0.963408,0.104007,-0.070315,-5.187988,4.455566,-19.65332,0,0
11557,2024 10 17,09:01:36.296,0.543876,-0.434603,-0.529553,-0.484657,-0.953154,0.103519,-0.069338,-2.868652,3.479004,-21.789551,0,0
11558,2024 10 17,09:01:36.304,0.544547,-0.435911,-0.528821,-0.483528,-0.960479,0.10303,-0.078616,-1.647949,4.821777,-23.193359,0,0
11559,2024 10 17,09:01:36.312,0.544547,-0.435911,-0.528821,-0.483528,-0.960479,0.10303,-0.078616,-1.647949,4.821777,-23.193359,0,0
11560,2024 10 17,09:01:36.321,0.545345,-0.437189,-0.528018,-0.48235,-0.954619,0.085452,-0.076174,-1.159668,2.868652,-24.108887,0,0
11561,2024 10 17,09:01:36.329,0.546197,-0.438496,-0.527311,-0.480971,-0.969756,0.08594,-0.085452,0.366211,5.310059,-25.512695,0,0
11562,2024 10 17,09:01:36.337,0.547191,-0.439751,-0.526578,-0.479497,-0.969756,0.090823,-0.049318,2.624512,3.90625,-26.794434,0,0
11563,2024 10 17,09:01:36.346,0.548287,-0.440998,-0.525843,-0.477903,-0.986847,0.080569,-0.061525,3.601074,3.417969,-27.954102,0,0
11564,2024 10 17,09:01:36.354,0.549607,-0.442159,-0.525029,-0.476206,-0.978057,0.087405,-0.059572,5.310059,1.77002,-30.029297,0,0
11565,2024 10 17,09:01:36.362,0.551066,-0.443365,-0.524169,-0.474343,-0.996612,0.102542,-0.047853,6.652832,2.075195,-32.226563,0,0
11566,2024 10 17,09:01:36.371,0.551066,-0.443365,-0.524169,-0.474343,-0.996612,0.102542,-0.047853,6.652832,2.075195,-32.226563,0,0
11567,2024 10 17,09:01:36.379,0.552617,-0.444745,-0.523228,-0.472281,-1.017121,0.102542,-0.091311,6.225586,2.746582,-36.071777,0,0
11568,2024 10 17,09:01:36.387,0.554324,-0.446295,-0.522126,-0.470032,-1.052278,0.101077,-0.034181,6.04248,2.807617,-39.916992,0,0
11569,2024 10 17,09:01:36.396,0.556228,-0.448069,-0.520799,-0.46756,-1.113804,0.125492,-0.086917,6.164551,2.197266,-45.837402,0,0
11570,2024 10 17,09:01:36.404,0.558569,-0.450096,-0.519061,-0.464748,-1.121128,0.122562,-0.027833,6.469727,-0.305176,-54.138184,0,0
11571,2024 10 17,09:01:36.412,0.561241,-0.452564,-0.517038,-0.461374,-1.194372,0.136723,-0.079592,8.117676,2.624512,-64.819336,0,0
11572,2024 10 17,09:01:36.421,0.561241,-0.452564,-0.517038,-0.461374,-1.194372,0.136723,-0.079592,8.117676,2.624512,-64.819336,0,0
11573,2024 10 17,09:01:36.429,0.564537,-0.455348,-0.514408,-0.457538,-1.189001,0.121097,0.013184,7.93457,-3.662109,-75.683594,0,0
11574,2024 10 17,09:01:36.437,0.568318,-0.458497,-0.511165,-0.453327,-1.210486,0.133793,-0.066408,6.04248,-5.92041,-85.9375,0,0
11575,2024 10 17,09:01:36.446,0.572699,-0.462033,-0.507132,-0.44873,-1.204138,0.146977,-0.039552,6.591797,-10.192871,-99.121094,0,0
11576,2024 10 17,09:01:36.454,0.577525,-0.466045,-0.502474,-0.443606,-1.222694,0.138188,-0.049806,4.150391,-11.291504,-110.595703,0,0
11577,2024 10 17,09:01:36.462,0.582921,-0.470512,-0.497017,-0.437945,-1.254921,0.146001,-0.023927,3.479004,-15.869141,-124.755859,0,0
11578,2024 10 17,09:01:36.471,0.582921,-0.470512,-0.497017,-0.437945,-1.254921,0.146001,-0.023927,3.479004,-15.869141,-124.755859,0,0
11579,2024 10 17,09:01:36.479,0.588993,-0.475448,-0.490437,-0.431865,-1.321329,0.156255,-0.013672,0.671387,-23.010254,-140.258789,0,0
11580,2024 10 17,09:01:36.487,0.595761,-0.480979,-0.482689,-0.425134,-1.368206,0.163579,-0.041993,-1.77002,-26.977539,-159.118652,0,0
11581,2024 10 17,09:01:36.496,0.603244,-0.487302,-0.473956,-0.417133,-1.471725,0.277352,-0.030763,-0.732422,-26.611328,-182.189941,0,0
11582,2024 10 17,09:01:36.504,0.611075,-0.494913,-0.463894,-0.407984,-1.649464,0.296884,-0.172857,-8.850098,-23.986816,-209.289551,0,0
11583,2024 10 17,09:01:36.512,0.620042,-0.503609,-0.451988,-0.39703,-1.903867,0.354015,-0.031251,-10.192871,-31.25,-245.544434,0,0
11584,2024 10 17,09:01:36.521,0.620042,-0.503609,-0.451988,-0.39703,-1.903867,0.354015,-0.031251,-10.192871,-31.25,-245.544434,0,0
11585,2024 10 17,09:01:36.529,0.630402,-0.513373,-0.437491,-0.384243,-2.068911,0.447768,0.028321,-9.216309,-41.992188,-288.085938,0,0
11586,2024 10 17,09:01:36.537,0.642152,-0.524188,-0.419978,-0.369441,-2.223212,0.440931,-0.057619,-12.573242,-53.405762,-333.984375,0,0
11587,2024 10 17,09:01:36.546,0.655169,-0.535938,-0.399399,-0.352144,-2.601642,0.527848,-0.121097,-14.831543,-66.28418,-381.408691,0,0
11588,2024 10 17,09:01:36.554,0.668904,-0.548599,-0.374656,-0.333526,-2.542558,0.40968,-0.155766,-30.944824,-90.637207,-423.278809,0,0
11589,2024 10 17,09:01:36.562,0.682149,-0.561974,-0.346608,-0.314198,-2.700766,0.155278,-0.213385,-46.325684,-101.806641,-446.655273,0,0
11590,2024 10 17,09:01:36.571,0.682149,-0.561974,-0.346608,-0.314198,-2.700766,0.155278,-0.213385,-46.325684,-101.806641,-446.655273,0,0
11591,2024 10 17,09:01:36.579,0.694675,-0.575351,-0.316078,-0.294096,-2.446364,-0.447279,-0.073733,-56.57959,-115.05127,-462.768555,0,0
11592,2024 10 17,09:01:36.587,0.706207,-0.587446,-0.285859,-0.272879,-2.445875,-0.410169,-0.023438,-38.330078,-97.717285,-454.162598,0,0
11593,2024 10 17,09:01:36.596,0.716822,-0.597526,-0.256403,-0.251767,-2.503983,-0.184576,-0.140141,-33.26416,-105.529785,-441.40625,0,0
11594,2024 10 17,09:01:36.604,0.727251,-0.605425,-0.225959,-0.231321,-2.101138,0.38966,0.475112,-16.723633,-121.21582,-437.62207,0,0
11595,2024 10 17,09:01:36.612,0.736575,-0.611998,-0.196951,-0.210061,-1.808161,0.793481,0.396496,-10.253906,-98.937988,-429.382324,0,0
11596,2024 10 17,09:01:36.621,0.736575,-0.611998,-0.196951,-0.210061,-1.808161,0.793481,0.396496,-10.253906,-98.937988,-429.382324,0,0
11597,2024 10 17,09:01:36.629,0.744958,-0.617761,-0.168914,-0.186751,-1.216834,1.185583,0.750511,0.183105,-72.937012,-440.368652,0,0
11598,2024 10 17,09:01:36.637,0.752402,-0.622735,-0.14351,-0.159676,-1.063509,0.940947,0.873562,12.084961,-18.005371,-446.166992,0,0
11599,2024 10 17,09:01:36.646,0.75997,-0.625949,-0.119606,-0.12778,-1.172399,0.876003,0.721702,52.55127,20.385742,-486.633301,0,0
11600,2024 10 17,09:01:36.654,0.768546,-0.626118,-0.094762,-0.091286,-0.842799,-0.198248,0.380383,82.03125,33.26416,-512.207031,0,1
11601,2024 10 17,09:01:36.662,0.7767,-0.622336,-0.074857,-0.061898,0.586932,0.385754,0.834986,109.863281,17.76123,-362.487793,0,0
11602,2024 10 17,09:01:36.671,0.7767,-0.622336,-0.074857,-0.061898,0.586932,0.385754,0.834986,109.863281,17.76123,-362.487793,0,0
11603,2024 10 17,09:01:36.679,0.782203,-0.617601,-0.0675,-0.046602,1.165075,1.539109,0.439467,83.679199,47.668457,-122.192383,0,0
11604,2024 10 17,09:01:36.687,0.785092,-0.61311,-0.075522,-0.044983,0.15479,1.704154,-0.209479,55.786133,83.374023,100.524902,0,0
11605,2024 10 17,09:01:36.696,0.784264,-0.610719,-0.093194,-0.057152,-0.636738,1.414106,0.158208,-2.929688,71.411133,274.047852,0,0
11606,2024 10 17,09:01:36.704,0.779166,-0.610848,-0.115739,-0.079812,-1.182653,0.916044,0.305673,-57.617188,37.109375,381.347656,0,0
11607,2024 10 17,09:01:36.712,0.772677,-0.609948,-0.137571,-0.109578,-1.385296,0.406751,0.672384,-52.67334,-23.4375,426.818848,0,0
11608,2024 10 17,09:01:36.721,0.772677,-0.609948,-0.137571,-0.109578,-1.385296,0.406751,0.672384,-52.67334,-23.4375,426.818848,0,0
11609,2024 10 17,09:01:36.729,0.765201,-0.607809,-0.1568,-0.143001,-0.951689,0.070803,0.478042,-59.814453,-62.805176,435.913086,0,0
11610,2024 10 17,09:01:36.737,0.75804,-0.603715,-0.175505,-0.173498,-0.497085,0.060549,0.459975,-29.907227,-36.499023,403.015137,0,0
11611,2024 10 17,09:01:36.746,0.751464,-0.598599,-0.193778,-0.198575,-0.079104,-0.067873,0.661153,-6.713867,-2.746582,353.45459,0,0
11612,2024 10 17,09:01:36.754,0.745215,-0.593276,-0.213784,-0.216736,-0.143071,-0.078616,0.436537,17.578125,63.842773,309.448242,0,0
11613,2024 10 17,09:01:36.762,0.739254,-0.587512,-0.235671,-0.229766,-0.438002,0.116703,0.513199,37.353516,106.567383,283.02002,0,0
11614,2024 10 17,09:01:36.771,0.733066,-0.581177,-0.258711,-0.240656,-0.688986,0.332041,0.34962,46.386719,121.032715,278.442383,0,0
11615,2024 10 17,09:01:36.779,0.733066,-0.581177,-0.258711,-0.240656,-0.688986,0.332041,0.34962,46.386719,121.032715,278.442383,0,0
11616,2024 10 17,09:01:36.787,0.726264,-0.574035,-0.281696,-0.252331,-0.884793,0.4756,0.255867,42.480469,110.534668,290.83252,0,0
11617,2024 10 17,09:01:36.796,0.718427,-0.566195,-0.303902,-0.266324,-0.995636,0.464858,0.156255,29.296875,87.463379,310.36377,0,0
11618,2024 10 17,09:01:36.804,0.709408,-0.557783,-0.325183,-0.28262,-0.990753,0.368664,0.157231,15.686035,70.861816,328.186035,0,0
11619,2024 10 17,09:01:36.812,0.699006,-0.54909,-0.34637,-0.299865,-0.965361,0.273934,0.206061,7.324219,72.875977,339.538574,0,0
11620,2024 10 17,09:01:36.821,0.687154,-0.540371,-0.367945,-0.316914,-0.979034,0.213385,0.236335,0.366211,83.80127,344.665527,0,0
11621,2024 10 17,09:01:36.829,0.687154,-0.540371,-0.367945,-0.316914,-0.979034,0.213385,0.236335,0.366211,83.80127,344.665527,0,0
11622,2024 10 17,09:01:36.837,0.673956,-0.531774,-0.39001,-0.333005,-1.09476,0.221198,0.245125,-2.01416,101.68457,343.383789,0,0
11623,2024 10 17,09:01:36.846,0.659496,-0.523492,-0.412222,-0.347987,-1.262734,0.230964,0.231452,-6.835938,113.952637,337.95166,0,0
11624,2024 10 17,09:01:36.854,0.644011,-0.515532,-0.434009,-0.362093,-1.454146,0.261238,0.158696,-14.160156,121.21582,331.176758,0,0
11625,2024 10 17,09:01:36.862,0.627686,-0.507751,-0.45487,-0.375889,-1.61333,0.268563,0.172857,-23.4375,118.896484,326.782227,0,0
11626,2024 10 17,09:01:36.871,0.6106,-0.4998,-0.474553,-0.390086,-1.718802,0.23487,0.218757,-34.362793,109.375,328.979492,0,0
11627,2024 10 17,09:01:36.879,0.6106,-0.4998,-0.474553,-0.390086,-1.718802,0.23487,0.218757,-34.362793,109.375,328.979492,0,0
11628,2024 10 17,09:01:36.887,0.592864,-0.49121,-0.493017,-0.405166,-1.726127,0.147954,0.315439,-42.419434,96.435547,336.181641,0,0
11629,2024 10 17,09:01:36.896,0.574432,-0.481761,-0.510887,-0.420629,-1.715873,0.0459,0.398938,-43.457031,92.224121,344.482422,0,0
11630,2024 10 17,09:01:36.904,0.555258,-0.471556,-0.528774,-0.435571,-1.748589,-0.039552,0.474136,-38.146973,98.266602,349.182129,0,0
11631,2024 10 17,09:01:36.912,0.535289,-0.460941,-0.547053,-0.449146,-1.820368,-0.0918,0.481948,-28.564453,112.304688,348.815918,0,0
11632,2024 10 17,09:01:36.921,0.514554,-0.450182,-0.565712,-0.46102,-1.959532,-0.159185,0.440931,-19.714355,128.112793,345.397949,0,0
11633,2024 10 17,09:01:36.929,0.514554,-0.450182,-0.565712,-0.46102,-1.959532,-0.159185,0.440931,-19.714355,128.112793,345.397949,0,0
11634,2024 10 17,09:01:36.937,0.493229,-0.439367,-0.58445,-0.471275,-2.103091,-0.301279,0.382336,-12.329102,139.709473,340.759277,0,0
11635,2024 10 17,09:01:36.946,0.471567,-0.428416,-0.602986,-0.480095,-2.228584,-0.539079,0.285165,-4.577637,146.789551,335.693359,0,0
11636,2024 10 17,09:01:36.954,0.450061,-0.417185,-0.621204,-0.487347,-2.312082,-0.868679,0.268563,8.178711,150.085449,328.186035,0,0
11637,2024 10 17,09:01:36.962,0.429352,-0.405631,-0.638995,-0.492753,-2.340892,-1.16361,0.231941,24.780273,148.376465,315.246582,0,0
11638,2024 10 17,09:01:36.971,0.410005,-0.39406,-0.656242,-0.495943,-2.339427,-1.388714,0.090335,44.921875,146.972656,294.433594,0,0
11639,2024 10 17,09:01:36.979,0.410005,-0.39406,-0.656242,-0.495943,-2.339427,-1.388714,0.090335,44.921875,146.972656,294.433594,0,0
11640,2024 10 17,09:01:36.987,0.392229,-0.382862,-0.672878,-0.496798,-2.202216,-1.45024,-0.249519,62.927246,146.118164,269.470215,0,0
11641,2024 10 17,09:01:36.996,0.375708,-0.372531,-0.688357,-0.496215,-2.11774,-1.550829,-0.746605,65.368652,144.775391,244.628906,0,0
11642,2024 10 17,09:01:37.004,0.360323,-0.363599,-0.701821,-0.495389,-2.08063,-1.739311,-1.342814,51.025391,135.375977,216.97998,0,0
11643,2024 10 17,09:01:37.012,0.346814,-0.356557,-0.712112,-0.495463,-2.095767,-2.248604,-1.793023,23.498535,115.722656,180.419922,0,0
11644,2024 10 17,09:01:37.021,0.336251,-0.351811,-0.718615,-0.496746,-2.44734,-2.913175,-1.876034,-2.197266,80.810547,134.82666,0,0
11645,2024 10 17,09:01:37.029,0.336251,-0.351811,-0.718615,-0.496746,-2.44734,-2.913175,-1.876034,-2.197266,80.810547,134.82666,0,0
11646,2024 10 17,09:01:37.037,0.331171,-0.34876,-0.720617,-0.499403,-2.41316,-3.332621,-1.654836,-23.620605,16.540527,77.636719,0,0
11647,2024 10 17,09:01:37.046,0.332245,-0.347005,-0.718662,-0.502719,-1.853572,-3.289163,-1.187048,-29.785156,-41.931152,20.996094,0,0
11648,2024 10 17,09:01:37.054,0.336752,-0.346941,-0.714764,-0.505314,-1.435102,-2.793054,-0.910672,-26.489258,-55.664063,-22.216797,0,0
11649,2024 10 17,09:01:37.062,0.342368,-0.349667,-0.711136,-0.504779,-8.437757,1.271035,-2.620685,13.305664,-19.470215,-71.044922,0,0
11650,2024 10 17,09:01:37.071,0.362496,-0.365998,-0.704892,-0.487616,-0.726096,-0.606464,-3.263283,-88.562012,-247.86377,-303.283691,0,0
11651,2024 10 17,09:01:37.079,0.362496,-0.365998,-0.704892,-0.487616,-0.726096,-0.606464,-3.263283,-88.562012,-247.86377,-303.283691,0,0
11652,2024 10 17,09:01:37.087,0.402512,-0.366787,-0.683417,-0.486202,1.623585,3.213477,4.203742,59.265137,-305.419922,-338.439941,1,0
11653,2024 10 17,09:01:37.096,0.406027,-0.39196,-0.676019,-0.473823,-2.504471,0.534196,-1.804742,13.48877,130.859375,-329.956055,0,0
11654,2024 10 17,09:01:37.104,0.424309,-0.409077,-0.655873,-0.471645,-1.417524,-0.117191,0.55031,-210.388184,-171.75293,-319.580078,0,0
11655,2024 10 17,09:01:37.112,0.434741,-0.427548,-0.633911,-0.475773,-2.472732,-1.078158,-1.46147,-135.742188,-73.974609,-254.333496,0,0
11656,2024 10 17,09:01:37.121,0.448562,-0.434472,-0.619025,-0.476271,-1.891659,-0.565935,-0.06006,-47.302246,-160.705566,-169.616699,0,0
11657,2024 10 17,09:01:37.129,0.448562,-0.434472,-0.619025,-0.476271,-1.891659,-0.565935,-0.06006,-47.302246,-160.705566,-169.616699,0,0
11658,2024 10 17,09:01:37.137,0.463034,-0.434882,-0.605803,-0.47904,-1.22953,0.382824,0.768578,-15.258789,-178.039551,-121.826172,0,0
11659,2024 10 17,09:01:37.146,0.472036,-0.436316,-0.593069,-0.48485,-1.173376,-0.138188,0.014649,-89.72168,-149.536133,-81.054688,0,0
11660,2024 10 17,09:01:37.154,0.479113,-0.436641,-0.580772,-0.492443,-0.905301,-0.06592,-0.064455,-82.15332,-149.414063,-56.518555,0,0
11661,2024 10 17,09:01:37.162,0.486067,-0.435828,-0.570134,-0.498738,-0.862819,0.060549,0.029786,-56.213379,-136.230469,-48.88916,0,0
11662,2024 10 17,09:01:37.171,0.49144,-0.43496,-0.56004,-0.50562,-0.915555,0.039552,-0.004395,-78.125,-128.112793,-32.348633,0,0
11663,2024 10 17,09:01:37.179,0.495355,-0.434171,-0.551272,-0.512073,-0.751976,-0.051271,-0.333018,-60.48584,-105.041504,-22.888184,0,0
11664,2024 10 17,09:01:37.187,0.495355,-0.434171,-0.551272,-0.512073,-0.751976,-0.051271,-0.333018,-60.48584,-105.041504,-22.888184,0,0
11665,2024 10 17,09:01:37.196,0.499115,-0.433025,-0.545132,-0.515951,-0.736839,0.050295,-0.305185,-28.198242,-74.401855,-21.850586,0,0
11666,2024 10 17,09:01:37.204,0.501929,-0.432151,-0.541592,-0.517678,-0.818873,0.121586,-0.176275,-7.629395,-42.175293,-17.578125,0,0
11667,2024 10 17,09:01:37.212,0.503862,-0.431765,-0.539374,-0.518438,-0.91995,0.161626,-0.062014,-7.507324,-28.320313,-15.991211,0,0
11668,2024 10 17,09:01:37.221,0.505703,-0.431606,-0.537601,-0.518619,-0.91995,0.183599,-0.049318,1.098633,-21.30127,-18.554688,0,0
11669,2024 10 17,09:01:37.229,0.507582,-0.431662,-0.536199,-0.518188,-0.973174,0.159185,-0.028809,3.723145,-16.662598,-22.033691,0,0
11670,2024 10 17,09:01:37.237,0.507582,-0.431662,-0.536199,-0.518188,-0.973174,0.159185,-0.028809,3.723145,-16.662598,-22.033691,0,0
11671,2024 10 17,09:01:37.246,0.509661,-0.431734,-0.534965,-0.517362,-0.903348,0.179205,-0.081057,8.300781,-14.526367,-24.047852,0,0
11672,2024 10 17,09:01:37.254,0.511527,-0.432027,-0.533942,-0.516332,-0.932646,0.167974,-0.058107,8.728027,-9.399414,-24.475098,0,0
11673,2024 10 17,09:01:37.262,0.51325,-0.432407,-0.533053,-0.515222,-0.938017,0.179205,-0.053713,7.507324,-7.385254,-23.620605,0,0
11674,2024 10 17,09:01:37.271,0.514694,-0.432943,-0.532136,-0.514278,-0.931181,0.153813,-0.087893,3.051758,-6.164551,-21.850586,0,0
11675,2024 10 17,09:01:37.279,0.515862,-0.433565,-0.531177,-0.513574,-0.936552,0.155278,-0.070315,-0.366211,-4.821777,-19.226074,0,0
11676,2024 10 17,09:01:37.287,0.515862,-0.433565,-0.531177,-0.513574,-0.936552,0.155278,-0.070315,-0.366211,-4.821777,-19.226074,0,0
11677,2024 10 17,09:01:37.296,0.516822,-0.434234,-0.530168,-0.513086,-0.954619,0.14893,-0.072756,-2.258301,-5.737305,-17.578125,0,0
11678,2024 10 17,09:01:37.304,0.51775,-0.434821,-0.529161,-0.512693,-0.954131,0.15479,-0.047853,-2.441406,-5.737305,-16.662598,0,0
11679,2024 10 17,09:01:37.312,0.5187,-0.435351,-0.528095,-0.512382,-0.968291,0.137211,-0.026856,-2.319336,-8.544922,-15.991211,0,0
11680,2024 10 17,09:01:37.321,0.519759,-0.435698,-0.526979,-0.512163,-0.940947,0.133793,-0.072268,-2.746582,-10.437012,-15.197754,0,0
11681,2024 10 17,09:01:37.329,0.520793,-0.436012,-0.525779,-0.512079,-0.932157,0.155278,-0.063478,-3.479004,-10.803223,-14.648438,0,0
11682,2024 10 17,09:01:37.337,0.520793,-0.436012,-0.525779,-0.512079,-0.932157,0.155278,-0.063478,-3.479004,-10.803223,-14.648438,0,0
11683,2024 10 17,09:01:37.346,0.521623,-0.436476,-0.524542,-0.512108,-0.90286,0.146489,-0.102542,-6.896973,-8.850098,-14.099121,0,0
11684,2024 10 17,09:01:37.354,0.522159,-0.437204,-0.523412,-0.512096,-0.927274,0.166509,-0.100101,-8.789063,-4.211426,-13.671875,0,0
11685,2024 10 17,09:01:37.362,0.522477,-0.438199,-0.522282,-0.512075,-0.933134,0.14893,-0.095706,-11.413574,-2.01416,-14.160156,0,0
11686,2024 10 17,09:01:37.371,0.522742,-0.43938,-0.521157,-0.511938,-0.951689,0.126469,-0.067385,-11.962891,-0.427246,-15.563965,0,0
11687,2024 10 17,09:01:37.379,0.523066,-0.440564,-0.520027,-0.511739,-0.94583,0.123539,-0.081545,-10.742188,-0.793457,-16.296387,0,0
11688,2024 10 17,09:01:37.387,0.523066,-0.440564,-0.520027,-0.511739,-0.94583,0.123539,-0.081545,-10.742188,-0.793457,-16.296387,0,0
11689,2024 10 17,09:01:37.396,0.523514,-0.441716,-0.518924,-0.511409,-0.949248,0.118656,-0.058107,-8.666992,-0.671387,-17.51709,0,0
11690,2024 10 17,09:01:37.404,0.524073,-0.442775,-0.517894,-0.510963,-0.945341,0.100589,-0.068361,-6.164551,-1.281738,-17.76123,0,0
11691,2024 10 17,09:01:37.412,0.524808,-0.443651,-0.516907,-0.510449,-0.925321,0.098636,-0.098148,-3.723145,-2.624512,-17.76123,0,0
11692,2024 10 17,09:01:37.421,0.52564,-0.444348,-0.516054,-0.509848,-0.928739,0.094729,-0.058107,-0.488281,-2.441406,-16.784668,0,0
11693,2024 10 17,09:01:37.429,0.526524,-0.444859,-0.515364,-0.509188,-0.944365,0.089358,-0.051271,2.01416,-3.479004,-15.686035,0,0
11694,2024 10 17,09:01:37.437,0.526524,-0.444859,-0.515364,-0.509188,-0.944365,0.089358,-0.051271,2.01416,-3.479004,-15.686035,0,0
11695,2024 10 17,09:01:37.446,0.527557,-0.445141,-0.514652,-0.508593,-0.951201,0.096683,-0.059572,3.234863,-6.347656,-14.892578,0,0
11696,2024 10 17,09:01:37.454,0.528712,-0.445276,-0.513923,-0.508011,-0.961455,0.11182,-0.061037,4.089355,-8.056641,-14.953613,0,0
11697,2024 10 17,09:01:37.462,0.529979,-0.445346,-0.513118,-0.507444,-0.958525,0.103519,-0.076662,4.455566,-9.277344,-15.869141,0,0
11698,2024 10 17,09:01:37.471,0.531324,-0.44544,-0.512281,-0.5068,-0.9429,0.112796,-0.080081,5.004883,-9.033203,-17.211914,0,0
11699,2024 10 17,09:01:37.479,0.532714,-0.445659,-0.511499,-0.505937,-0.949248,0.13184,-0.113285,6.835938,-6.103516,-19.836426,0,0
11700,2024 10 17,09:01:37.487,0.532714,-0.445659,-0.511499,-0.505937,-0.949248,0.13184,-0.113285,6.835938,-6.103516,-19.836426,0,0
11701,2024 10 17,09:01:37.496,0.534073,-0.446162,-0.51074,-0.504827,-0.966338,0.123051,-0.100101,6.591797,-2.685547,-22.888184,0,0
11702,2024 10 17,09:01:37.504,0.535456,-0.446968,-0.510078,-0.503316,-0.998566,0.13184,-0.085452,8.117676,1.953125,-27.099609,0,0
11703,2024 10 17,09:01:37.512,0.536996,-0.448039,-0.509393,-0.501413,-1.037141,0.125004,-0.075198,8.789063,2.929688,-32.165527,0,0
11704,2024 10 17,09:01:37.521,0.538958,-0.449228,-0.508514,-0.499132,-1.059114,0.113285,-0.073733,11.108398,1.220703,-38.818359,0,0
11705,2024 10 17,09:01:37.529,0.54139,-0.450602,-0.507531,-0.496253,-1.099155,0.109378,-0.073244,15.441895,2.380371,-47.424316,0,0
11706,2024 10 17,09:01:37.537,0.54139,-0.450602,-0.507531,-0.496253,-1.099155,0.109378,-0.073244,15.441895,2.380371,-47.424316,0,0
11707,2024 10 17,09:01:37.546,0.544428,-0.452103,-0.506251,-0.492859,-1.161656,0.166509,-0.067873,20.751953,-0.0,-56.945801,0,0
11708,2024 10 17,09:01:37.554,0.548105,-0.453773,-0.504362,-0.489173,-1.148473,0.145512,-0.053713,19.165039,-5.92041,-66.52832,0,0
11709,2024 10 17,09:01:37.562,0.552123,-0.455845,-0.501908,-0.485235,-1.190954,0.164068,-0.039064,15.197754,-7.507324,-74.645996,0,0
11710,2024 10 17,09:01:37.571,0.556405,-0.458456,-0.498768,-0.481105,-1.276406,0.186041,-0.114261,11.047363,-8.850098,-85.81543,0,0
11711,2024 10 17,09:01:37.579,0.561333,-0.461693,-0.494809,-0.47635,-1.295938,0.216803,-0.086917,10.070801,-10.498047,-102.416992,0,0
11712,2024 10 17,09:01:37.587,0.566775,-0.465723,-0.489973,-0.470951,-1.322794,0.222175,-0.072756,5.065918,-12.512207,-118.225098,0,0
11713,2024 10 17,09:01:37.596,0.566775,-0.465723,-0.489973,-0.470951,-1.322794,0.222175,-0.072756,5.065918,-12.512207,-118.225098,0,0
11714,2024 10 17,09:01:37.604,0.572701,-0.470577,-0.484066,-0.465028,-1.404828,0.256844,-0.058107,0.427246,-14.282227,-135.559082,0,0
11715,2024 10 17,09:01:37.612,0.57925,-0.476331,-0.476892,-0.458423,-1.455122,0.278329,-0.047853,-5.615234,-19.165039,-156.616211,0,0
11716,2024 10 17,09:01:37.621,0.586504,-0.483089,-0.468169,-0.451061,-1.555712,0.313486,-0.001465,-13.671875,-23.254395,-179.748535,0,0
11717,2024 10 17,09:01:37.629,0.594481,-0.491008,-0.45753,-0.44291,-1.735893,0.36964,0.002441,-22.216797,-30.578613,-208.068848,0,0
11718,2024 10 17,09:01:37.637,0.60363,-0.500178,-0.445048,-0.432881,-2.006409,0.511246,-0.071291,-22.094727,-30.700684,-247.680664,0,0
11719,2024 10 17,09:01:37.646,0.60363,-0.500178,-0.445048,-0.432881,-2.006409,0.511246,-0.071291,-22.094727,-30.700684,-247.680664,0,0
11720,2024 10 17,09:01:37.654,0.614577,-0.510542,-0.430014,-0.420392,-2.30427,0.580096,-0.024903,-18.188477,-41.687012,-298.706055,0,0
11721,2024 10 17,09:01:37.662,0.628071,-0.521626,-0.411297,-0.4053,-2.617267,0.729514,0.180181,-15.74707,-63.720703,-357.055664,0,0
11722,2024 10 17,09:01:37.671,0.643443,-0.533924,-0.388779,-0.386985,-3.141697,0.8052,-0.136235,-14.221191,-74.035645,-421.081543,0,0
11723,2024 10 17,09:01:37.679,0.660794,-0.546882,-0.360707,-0.366281,-3.295511,0.656758,0.020508,-25.634766,-111.450195,-486.328125,0,0
11724,2024 10 17,09:01:37.687,0.678127,-0.560621,-0.327436,-0.344433,-3.133885,0.173345,-0.066408,-51.879883,-135.192871,-521.728516,0,0
11725,2024 10 17,09:01:37.696,0.678127,-0.560621,-0.327436,-0.344433,-3.133885,0.173345,-0.066408,-51.879883,-135.192871,-521.728516,0,0
11726,2024 10 17,09:01:37.704,0.694531,-0.574009,-0.291699,-0.321016,-2.720298,-0.470717,-0.018555,-53.833008,-138.73291,-536.621094,0,1
11727,2024 10 17,09:01:37.712,0.709744,-0.585109,-0.257602,-0.295893,-2.775964,-0.10596,-0.000488,-19.348145,-111.022949,-518.920898,0,0
11728,2024 10 17,09:01:37.721,0.723661,-0.593657,-0.224097,-0.271416,-2.887784,0.264657,0.253426,-12.451172,-128.78418,-504.089355,0,0
11729,2024 10 17,09:01:37.729,0.737167,-0.59926,-0.190792,-0.247124,-2.287668,0.843287,0.695822,7.263184,-131.347656,-493.713379,0,0
11730,2024 10 17,09:01:37.737,0.74919,-0.603415,-0.159334,-0.221847,-1.670461,1.36137,0.786645,19.104004,-102.966309,-483.398438,0,0
11731,2024 10 17,09:01:37.746,0.74919,-0.603415,-0.159334,-0.221847,-1.670461,1.36137,0.786645,19.104004,-102.966309,-483.398438,0,0
11732,2024 10 17,09:01:37.754,0.760157,-0.60624,-0.13061,-0.193843,-1.251503,1.294961,1.258339,35.522461,-56.213379,-483.215332,0,0
11733,2024 10 17,09:01:37.762,0.770339,-0.608015,-0.105867,-0.160273,-1.376019,1.035676,0.865749,66.955566,20.874023,-509.460449,0,0
11734,2024 10 17,09:01:37.771,0.782381,-0.605378,-0.083302,-0.12024,-0.141118,-0.220222,0.401379,132.751465,69.091797,-530.090332,0,0
11735,2024 10 17,09:01:37.779,0.794133,-0.596492,-0.072178,-0.091329,2.245186,1.291543,1.685598,190.551758,79.833984,-258.361816,0,0
11736,2024 10 17,09:01:37.787,0.800431,-0.588124,-0.081012,-0.082808,0.021485,2.353587,-0.213385,99.975586,144.714355,64.331055,0,0
11737,2024 10 17,09:01:37.796,0.800431,-0.588124,-0.081012,-0.082808,0.021485,2.353587,-0.213385,99.975586,144.714355,64.331055,0,0
11738,2024 10 17,09:01:37.804,0.801889,-0.581739,-0.100025,-0.092458,-1.013703,1.92584,0.188971,69.213867,77.758789,258.239746,0,0
11739,2024 10 17,09:01:37.812,0.798408,-0.578414,-0.121583,-0.114886,-1.202185,1.354045,0.083499,-14.404297,40.83252,372.009277,0,0
11740,2024 10 17,09:01:37.821,0.792542,-0.575473,-0.141781,-0.14355,-1.098666,0.775414,0.690939,-30.517578,-18.371582,405.151367,0,0
11741,2024 10 17,09:01:37.829,0.785499,-0.572186,-0.16036,-0.172857,-0.624043,0.435072,0.647969,-27.46582,-17.272949,393.981934,0,0
11742,2024 10 17,09:01:37.837,0.778315,-0.568518,-0.178758,-0.197634,-0.053224,0.322275,0.563005,-18.798828,18.310547,348.937988,0,0
11743,2024 10 17,09:01:37.846,0.778315,-0.568518,-0.178758,-0.197634,-0.053224,0.322275,0.563005,-18.798828,18.310547,348.937988,0,0
11744,2024 10 17,09:01:37.854,0.77142,-0.564932,-0.199017,-0.214838,0.001465,0.24659,0.644063,5.371094,90.454102,294.921875,0,0
11745,2024 10 17,09:01:37.862,0.764466,-0.561526,-0.221596,-0.226218,-0.202643,0.31251,0.655782,21.057129,144.65332,264.831543,0,0
11746,2024 10 17,09:01:37.871,0.757077,-0.557966,-0.246265,-0.234228,-0.526872,0.498062,0.457533,31.005859,177.185059,252.746582,0,0
11747,2024 10 17,09:01:37.879,0.749044,-0.553956,-0.271496,-0.24157,-0.733421,0.620624,0.339854,31.25,182.495117,255.371094,0,0
11748,2024 10 17,09:01:37.887,0.740008,-0.549367,-0.296922,-0.249842,-0.897488,0.675314,0.23487,24.780273,176.696777,271.240234,0,0
11749,2024 10 17,09:01:37.896,0.740008,-0.549367,-0.296922,-0.249842,-0.897488,0.675314,0.23487,24.780273,176.696777,271.240234,0,0
11750,2024 10 17,09:01:37.904,0.72974,-0.544011,-0.322076,-0.260382,-0.971709,0.65334,0.161626,13.48877,160.522461,296.142578,0,0
11751,2024 10 17,09:01:37.912,0.71812,-0.53783,-0.34695,-0.273256,-1.037629,0.603534,0.112796,3.173828,148.193359,319.885254,0,0
11752,2024 10 17,09:01:37.921,0.705207,-0.530919,-0.371556,-0.287672,-1.130894,0.506851,0.103519,-5.004883,140.014648,335.81543,0,0
11753,2024 10 17,09:01:37.929,0.691336,-0.52327,-0.395801,-0.30263,-1.179724,0.439467,0.084964,-7.019043,137.268066,342.590332,0,0
11754,2024 10 17,09:01:37.937,0.676616,-0.515005,-0.419917,-0.317224,-1.198767,0.39552,0.115238,-4.638672,142.272949,344.055176,0,0
11755,2024 10 17,09:01:37.946,0.676616,-0.515005,-0.419917,-0.317224,-1.198767,0.39552,0.115238,-4.638672,142.272949,344.055176,0,0
11756,2024 10 17,09:01:37.954,0.660916,-0.506253,-0.44421,-0.331021,-1.30668,0.413099,0.126957,-2.441406,151.977539,345.397949,0,0
11757,2024 10 17,09:01:37.962,0.644084,-0.497,-0.468607,-0.344317,-1.460494,0.466811,0.090335,-3.601074,158.325195,349.975586,0,0
11758,2024 10 17,09:01:37.971,0.625985,-0.487161,-0.492796,-0.357728,-1.629933,0.512223,0.027833,-8.728027,160.217285,358.520508,0,0
11759,2024 10 17,09:01:37.979,0.606479,-0.476714,-0.516512,-0.371675,-1.79107,0.549333,-0.020997,-18.066406,158.935547,369.384766,0,0
11760,2024 10 17,09:01:37.987,0.585547,-0.465684,-0.539434,-0.386372,-1.94586,0.534196,-0.051759,-30.700684,155.395508,379.760742,0,0
11761,2024 10 17,09:01:37.996,0.563266,-0.45416,-0.561394,-0.40163,-2.111881,0.475112,-0.050783,-41.442871,152.893066,387.390137,0,0
11762,2024 10 17,09:01:38.004,0.563266,-0.45416,-0.561394,-0.40163,-2.111881,0.475112,-0.050783,-41.442871,152.893066,387.390137,0,0
11763,2024 10 17,09:01:38.012,0.53985,-0.442117,-0.582375,-0.417054,-2.312082,0.35548,0.008789,-48.217773,150.695801,392.272949,0,0
11764,2024 10 17,09:01:38.021,0.515823,-0.429342,-0.602253,-0.4323,-2.518631,0.144047,0.104984,-49.072266,144.042969,394.165039,0,0
11765,2024 10 17,09:01:38.029,0.491798,-0.415573,-0.62108,-0.44687,-2.601154,-0.154302,0.145512,-41.503906,136.71875,393.798828,0,0
11766,2024 10 17,09:01:38.037,0.467821,-0.400716,-0.639646,-0.459807,-2.67391,-0.504898,0.189459,-22.888184,139.648438,393.798828,0,0
11767,2024 10 17,09:01:38.046,0.444014,-0.384499,-0.658375,-0.470696,-2.705649,-0.955107,0.216315,2.13623,140.808105,396.179199,0,0
11768,2024 10 17,09:01:38.054,0.444014,-0.384499,-0.658375,-0.470696,-2.705649,-0.955107,0.216315,2.13623,140.808105,396.179199,0,0
11769,2024 10 17,09:01:38.062,0.42042,-0.367051,-0.677242,-0.479441,-2.852138,-1.392621,0.134281,24.047852,143.066406,395.874023,0,0
11770,2024 10 17,09:01:38.071,0.397932,-0.349295,-0.69493,-0.486534,-3.094821,-1.734916,-0.013184,32.592773,131.04248,376.403809,0,0
11771,2024 10 17,09:01:38.079,0.378188,-0.332969,-0.709657,-0.492435,-3.183691,-2.21247,-0.15186,26.306152,107.48291,328.308105,0,0
11772,2024 10 17,09:01:38.087,0.362153,-0.319617,-0.720718,-0.497249,-2.565996,-2.78573,-0.4214,13.549805,83.740234,264.648438,0,0
11773,2024 10 17,09:01:38.096,0.348206,-0.310764,-0.728821,-0.500997,-1.320353,-2.932707,-1.120151,-8.666992,100.158691,201.11084,0,0
11774,2024 10 17,09:01:38.104,0.348206,-0.310764,-0.728821,-0.500997,-1.320353,-2.932707,-1.120151,-8.666992,100.158691,201.11084,0,0
11775,2024 10 17,09:01:38.112,0.3317,-0.310284,-0.73515,-0.503243,-1.342814,-2.985443,-2.551836,-52.55127,179.382324,126.037598,0,0
11776,2024 10 17,09:01:38.121,0.314421,-0.318054,-0.737418,-0.506157,-3.491318,-3.758904,-2.836024,-104.248047,204.040527,55.114746,0,0
11777,2024 10 17,09:01:38.129,0.306438,-0.32701,-0.733197,-0.511452,-4.038697,-3.496689,-2.022523,-142.028809,46.99707,-16.174316,0,0
11778,2024 10 17,09:01:38.137,0.315209,-0.329578,-0.719756,-0.523424,-1.375042,-3.63683,-0.543474,-153.503418,-179.626465,-66.589355,0,0
11779,2024 10 17,09:01:38.146,0.324882,-0.337348,-0.713647,-0.520918,-9.11063,-4.56801,-0.971221,97.167969,64.758301,-190.246582,0,0
11780,2024 10 17,09:01:38.154,0.324882,-0.337348,-0.713647,-0.520918,-9.11063,-4.56801,-0.971221,97.167969,64.758301,-190.246582,0,0
11781,2024 10 17,09:01:38.162,0.353012,-0.355118,-0.70127,-0.507438,-0.218757,0.396985,-0.267098,-9.94873,-326.049805,-337.524414,0,0
11782,2024 10 17,09:01:38.171,0.38555,-0.362729,-0.684798,-0.500829,0.733421,1.860408,0.67336,31.37207,-120.910645,-342.163086,0,0
11783,2024 10 17,09:01:38.179,0.398259,-0.383099,-0.678779,-0.483616,-2.41023,1.517624,0.287118,115.600586,21.606445,-349.121094,1,0
11784,2024 10 17,09:01:38.187,0.418903,-0.398405,-0.659244,-0.480823,-1.258827,-0.43849,0.041505,-146.972656,-167.114258,-321.899414,0,0
11785,2024 10 17,09:01:38.196,0.431281,-0.415704,-0.640327,-0.4808,-2.280831,-0.289071,-0.525895,-117.492676,-70.19043,-263.916016,0,0
11786,2024 10 17,09:01:38.204,0.431281,-0.415704,-0.640327,-0.4808,-2.280831,-0.289071,-0.525895,-117.492676,-70.19043,-263.916016,0,0
11787,2024 10 17,09:01:38.212,0.442938,-0.425477,-0.623799,-0.483374,-1.940977,-0.664083,-0.153813,-93.811035,-146.362305,-175.598145,0,0
11788,2024 10 17,09:01:38.221,0.456515,-0.427638,-0.610115,-0.486292,-1.41557,0.186041,0.360363,-32.226563,-166.320801,-127.075195,0,0
11789,2024 10 17,09:01:38.229,0.468081,-0.428139,-0.596333,-0.491919,-1.159215,0.22364,0.513688,-77.575684,-183.288574,-99.42627,0,0
11790,2024 10 17,09:01:38.237,0.47702,-0.428836,-0.581735,-0.500135,-1.207068,-0.06592,0.014649,-100.769043,-177.856445,-77.575684,0,0
11791,2024 10 17,09:01:38.246,0.486445,-0.427741,-0.566925,-0.508925,-1.081088,0.088382,0.249519,-90.209961,-195.495605,-67.993164,0,0
11792,2024 10 17,09:01:38.254,0.486445,-0.427741,-0.566925,-0.508925,-1.081088,0.088382,0.249519,-90.209961,-195.495605,-67.993164,0,0
11793,2024 10 17,09:01:38.262,0.494989,-0.426104,-0.551717,-0.51868,-0.885769,0.090335,0.070803,-102.661133,-197.44873,-56.945801,0,0
11794,2024 10 17,09:01:38.271,0.501075,-0.425312,-0.53829,-0.52752,-0.580584,-0.283212,-0.612812,-95.88623,-149.169922,-43.09082,0,0
11795,2024 10 17,09:01:38.279,0.505955,-0.423853,-0.529819,-0.532588,-0.234382,-0.248054,-1.080599,-27.954102,-89.782715,-26.916504,0,0
11796,2024 10 17,09:01:38.287,0.508092,-0.422967,-0.527048,-0.534005,-1.103549,0.266121,0.333506,-17.944336,-27.46582,-8.239746,0,0
11797,2024 10 17,09:01:38.296,0.509509,-0.422647,-0.52397,-0.535934,-0.766625,0.151372,-0.353526,-15.625,-44.616699,-12.756348,0,0
11798,2024 10 17,09:01:38.304,0.509509,-0.422647,-0.52397,-0.535934,-0.766625,0.151372,-0.353526,-15.625,-44.616699,-12.756348,0,0
11799,2024 10 17,09:01:38.312,0.511017,-0.422393,-0.521807,-0.536808,-0.896023,0.1377,-0.101077,-8.605957,-16.601563,-13.305664,0,0
11800,2024 10 17,09:01:38.321,0.512346,-0.422662,-0.520661,-0.536442,-0.997101,0.21778,-0.043947,1.220703,-13.305664,-19.592285,0,0
11801,2024 10 17,09:01:38.329,0.514035,-0.423003,-0.51939,-0.535789,-0.89407,0.14893,-0.19483,2.990723,-10.192871,-23.864746,0,0
11802,2024 10 17,09:01:38.337,0.515762,-0.42352,-0.518564,-0.53452,-0.947295,0.188482,-0.056642,8.605957,-3.662109,-25.695801,0,0
11803,2024 10 17,09:01:38.346,0.517292,-0.424326,-0.517905,-0.533039,-0.970733,0.188482,-0.118168,5.92041,-1.342773,-26.855469,0,0
11804,2024 10 17,09:01:38.354,0.518876,-0.425139,-0.517026,-0.531704,-0.94583,0.184088,-0.078616,5.92041,-1.342773,-26.855469,0,0
11805,2024 10 17,09:01:38.362,0.518876,-0.425139,-0.517026,-0.531704,-0.94583,0.184088,-0.078616,6.225586,-2.929688,-27.099609,0,0
11806,2024 10 17,09:01:38.371,0.520348,-0.425964,-0.516103,-0.5305,-0.972686,0.171392,-0.135746,2.319336,-4.150391,-25.390625,0,0
11807,2024 10 17,09:01:38.379,0.521762,-0.426758,-0.515119,-0.529428,-0.92288,0.173833,-0.117191,2.197266,-2.868652,-24.780273,0,0
11808,2024 10 17,09:01:38.387,0.522717,-0.427817,-0.514205,-0.528519,-0.917508,0.133793,-0.110843,-2.990723,0.732422,-21.66748,0,0
11809,2024 10 17,09:01:38.396,0.523403,-0.42895,-0.513322,-0.52778,-0.929716,0.142094,-0.118656,-5.249023,1.403809,-19.165039,0,0
11810,2024 10 17,09:01:38.404,0.523921,-0.430093,-0.512389,-0.527242,-0.934599,0.163091,-0.08301,-7.8125,1.159668,-17.51709,0,0
11811,2024 10 17,09:01:38.412,0.523921,-0.430093,-0.512389,-0.527242,-0.934599,0.163091,-0.08301,-7.8125,1.159668,-17.51709,0,0
11812,2024 10 17,09:01:38.421,0.524196,-0.43132,-0.511536,-0.526795,-0.935087,0.144047,-0.08301,-7.873535,3.295898,-15.991211,0,0
11813,2024 10 17,09:01:38.429,0.524411,-0.432553,-0.510659,-0.52642,-0.916532,0.149419,-0.125004,-10.009766,2.929688,-15.74707,0,0
11814,2024 10 17,09:01:38.437,0.524486,-0.433953,-0.509776,-0.52605,-0.922391,0.156743,-0.150884,-11.413574,5.981445,-15.74707,0,0
11815,2024 10 17,09:01:38.446,0.524417,-0.435669,-0.508935,-0.525514,-0.951201,0.167974,-0.1377,-13.061523,9.94873,-18.188477,0,0
11816,2024 10 17,09:01:38.454,0.524255,-0.437754,-0.508159,-0.524693,-0.955596,0.135258,-0.11475,-13.183594,13.977051,-20.935059,0,0
11817,2024 10 17,09:01:38.462,0.524255,-0.437754,-0.508159,-0.524693,-0.955596,0.135258,-0.11475,-13.183594,13.977051,-20.935059,0,0
11818,2024 10 17,09:01:38.471,0.524182,-0.44003,-0.507485,-0.523513,-0.970244,0.135746,-0.10889,-10.620117,17.028809,-25.024414,0,0
11819,2024 10 17,09:01:38.479,0.524373,-0.442364,-0.506766,-0.522049,-0.962432,0.126957,-0.08594,-7.751465,15.930176,-28.137207,0,0
11820,2024 10 17,09:01:38.487,0.52478,-0.444641,-0.506081,-0.520367,-0.944365,0.093753,-0.097171,-5.310059,15.808105,-29.907227,0,0
11821,2024 10 17,09:01:38.496,0.525405,-0.446778,-0.505487,-0.518481,-0.946318,0.097171,-0.102542,-2.258301,14.892578,-30.822754,0,0
11822,2024 10 17,09:01:38.504,0.526157,-0.448764,-0.504919,-0.516553,-0.940947,0.087405,-0.064943,0.488281,13.977051,-30.761719,0,0
11823,2024 10 17,09:01:38.512,0.526157,-0.448764,-0.504919,-0.516553,-0.940947,0.087405,-0.064943,0.488281,13.977051,-30.761719,0,0
11824,2024 10 17,09:01:38.521,0.527027,-0.450576,-0.504438,-0.514553,-0.944853,0.071291,-0.050783,2.624512,12.390137,-30.151367,0,0
11825,2024 10 17,09:01:38.529,0.528093,-0.452062,-0.503923,-0.512659,-0.92581,0.058107,-0.044923,5.187988,7.995605,-28.686523,0,0
11826,2024 10 17,09:01:38.537,0.529306,-0.45318,-0.503417,-0.510915,-0.937529,0.074709,-0.073244,7.080078,4.882813,-26.428223,0,0
11827,2024 10 17,09:01:38.546,0.5306,-0.454069,-0.502895,-0.509296,-0.950713,0.06885,-0.053224,7.995605,2.502441,-25.268555,0,0
11828,2024 10 17,09:01:38.554,0.532045,-0.454745,-0.50237,-0.5077,-0.965361,0.064943,-0.053713,9.70459,-0.488281,-24.780273,0,0
11829,2024 10 17,09:01:38.562,0.532045,-0.454745,-0.50237,-0.5077,-0.965361,0.064943,-0.053713,9.70459,-0.488281,-24.780273,0,0
11830,2024 10 17,09:01:38.571,0.533678,-0.455169,-0.501732,-0.506235,-0.980987,0.072756,-0.064455,10.620117,-3.90625,-24.536133,0,0
11831,2024 10 17,09:01:38.579,0.535522,-0.455459,-0.501016,-0.504734,-0.970733,0.081057,-0.066408,12.634277,-6.286621,-25.878906,0,0
11832,2024 10 17,09:01:38.587,0.537528,-0.455668,-0.50016,-0.50326,-0.980987,0.079104,-0.068361,12.634277,-8.483887,-26.855469,0,0
11833,2024 10 17,09:01:38.596,0.539709,-0.455877,-0.499184,-0.501703,-0.979522,0.073244,-0.064455,13.73291,-9.399414,-29.418945,0,0
11834,2024 10 17,09:01:38.604,0.542098,-0.456092,-0.498133,-0.499973,-0.988311,0.075198,-0.083499,15.50293,-10.192871,-32.165527,0,0
11835,2024 10 17,09:01:38.612,0.542098,-0.456092,-0.498133,-0.499973,-0.988311,0.075198,-0.083499,15.50293,-10.192871,-32.165527,0,0
11836,2024 10 17,09:01:38.621,0.54469,-0.456338,-0.497007,-0.498049,-1.006378,0.075686,-0.0918,16.662598,-10.375977,-35.27832,0,0
11837,2024 10 17,09:01:38.629,0.547495,-0.456759,-0.49586,-0.495725,-1.058626,0.086917,-0.076174,19.042969,-7.93457,-40.893555,0,0
11838,2024 10 17,09:01:38.637,0.550603,-0.457394,-0.494563,-0.492985,-1.11185,0.124516,-0.080569,20.812988,-8.483887,-47.546387,0,0
11839,2024 10 17,09:01:38.646,0.554139,-0.458198,-0.492772,-0.490062,-1.112827,0.122074,-0.095706,20.080566,-12.084961,-55.297852,0,0
11840,2024 10 17,09:01:38.654,0.558007,-0.459455,-0.49065,-0.486612,-1.168493,0.148442,-0.108402,19.226074,-9.521484,-65.246582,0,0
11841,2024 10 17,09:01:38.662,0.558007,-0.459455,-0.49065,-0.486612,-1.168493,0.148442,-0.108402,19.226074,-9.521484,-65.246582,0,0
11842,2024 10 17,09:01:38.671,0.56221,-0.461315,-0.488013,-0.482651,-1.236854,0.177252,-0.116703,17.333984,-9.155273,-77.514648,0,0
11843,2024 10 17,09:01:38.679,0.56684,-0.463838,-0.484615,-0.478221,-1.296915,0.170904,-0.067873,12.939453,-11.169434,-91.186523,0,0
11844,2024 10 17,09:01:38.687,0.572113,-0.466972,-0.480275,-0.473244,-1.336467,0.182623,-0.076174,10.375977,-15.197754,-107.421875,0,0
11845,2024 10 17,09:01:38.696,0.578101,-0.470737,-0.474784,-0.467746,-1.359416,0.204596,-0.066897,6.347656,-20.751953,-124.572754,0,0
11846,2024 10 17,09:01:38.704,0.584743,-0.475321,-0.468145,-0.461504,-1.423872,0.229011,-0.056154,2.441406,-23.31543,-144.65332,0,0
11847,2024 10 17,09:01:38.712,0.584743,-0.475321,-0.468145,-0.461504,-1.423872,0.229011,-0.056154,2.441406,-23.31543,-144.65332,0,0
11848,2024 10 17,09:01:38.721,0.59205,-0.480747,-0.460042,-0.454665,-1.433149,0.251961,-0.063967,-4.455566,-29.968262,-165.283203,0,0
11849,2024 10 17,09:01:38.729,0.599829,-0.487295,-0.450503,-0.446984,-1.522507,0.276864,-0.097659,-12.390137,-28.381348,-188.720703,0,0
11850,2024 10 17,09:01:38.737,0.608342,-0.495049,-0.439687,-0.437632,-1.700735,0.385266,-0.132817,-14.221191,-27.282715,-219.970703,0,0
11851,2024 10 17,09:01:38.746,0.617947,-0.504043,-0.426811,-0.426514,-1.868221,0.454115,-0.08301,-17.578125,-31.12793,-258.239746,0,0
11852,2024 10 17,09:01:38.754,0.628761,-0.514624,-0.412044,-0.41236,-2.25837,0.562029,-0.160649,-14.953613,-24.475098,-308.410645,0,0
11853,2024 10 17,09:01:38.762,0.641572,-0.526186,-0.39352,-0.395798,-2.679281,0.645527,-0.102054,-14.953613,-24.475098,-308.410645,0,0
11854,2024 10 17,09:01:38.771,0.641572,-0.526186,-0.39352,-0.395798,-2.679281,0.645527,-0.102054,-19.714355,-48.400879,-365.234375,0,0
11855,2024 10 17,09:01:38.779,0.656259,-0.538842,-0.370473,-0.37646,-3.050386,0.660665,-0.210456,-23.010254,-67.077637,-430.541992,0,0
11856,2024 10 17,09:01:38.787,0.672056,-0.552435,-0.34256,-0.354695,-3.023041,0.434584,-0.142582,-40.405273,-94.421387,-483.764648,0,0
11857,2024 10 17,09:01:38.796,0.68726,-0.566722,-0.310661,-0.331646,-2.969329,-0.06592,-0.113285,-55.725098,-102.600098,-514.648438,0,0
11858,2024 10 17,09:01:38.804,0.701318,-0.580351,-0.277394,-0.307242,-2.694906,-0.471694,-0.120121,-51.391602,-103.33252,-518.066406,0,1
11859,2024 10 17,09:01:38.812,0.714455,-0.591539,-0.245155,-0.282018,-2.732994,-0.254891,0.138188,-32.287598,-94.726563,-500.732422,0,0
11860,2024 10 17,09:01:38.821,0.714455,-0.591539,-0.245155,-0.282018,-2.732994,-0.254891,0.138188,-32.287598,-94.726563,-500.732422,0,0
11861,2024 10 17,09:01:38.829,0.726682,-0.600186,-0.213423,-0.257216,-2.784753,0.243171,0.262703,-11.59668,-106.628418,-491.577148,0,0
11862,2024 10 17,09:01:38.837,0.738417,-0.606189,-0.181725,-0.232918,-2.14948,0.747093,0.656758,-0.610352,-106.933594,-477.600098,0,0
11863,2024 10 17,09:01:38.846,0.748555,-0.611001,-0.152587,-0.207511,-1.590381,1.155309,0.700705,11.047363,-73.669434,-463.806152,0,0
11864,2024 10 17,09:01:38.854,0.758134,-0.613989,-0.127234,-0.179057,-1.083041,1.124058,1.2266,39.733887,-15.197754,-456.726074,0,0
11865,2024 10 17,09:01:38.862,0.767199,-0.615483,-0.106496,-0.145756,-1.153844,0.606952,0.740745,79.406738,58.59375,-472.351074,0,0
11866,2024 10 17,09:01:38.871,0.767199,-0.615483,-0.106496,-0.145756,-1.153844,0.606952,0.740745,79.406738,58.59375,-472.351074,0,0
11867,2024 10 17,09:01:38.879,0.779614,-0.610009,-0.089505,-0.109905,0.67336,-0.383801,0.945341,174.621582,73.303223,-420.593262,0,0
11868,2024 10 17,09:01:38.887,0.791097,-0.598508,-0.084059,-0.094273,1.801813,2.207098,1.709037,186.218262,38.024902,-82.702637,0,0
11869,2024 10 17,09:01:38.896,0.795004,-0.590961,-0.099968,-0.09349,-0.959014,1.583544,-0.554216,125.183105,149.658203,152.587891,0,0
11870,2024 10 17,09:01:38.904,0.798035,-0.581078,-0.118845,-0.106602,-1.070833,1.280801,0.495132,85.9375,44.616699,276.611328,0,0
11871,2024 10 17,09:01:38.912,0.797864,-0.57282,-0.138019,-0.127436,-0.795923,1.139195,0.406262,65.246582,17.883301,332.519531,0,0
11872,2024 10 17,09:01:38.921,0.797864,-0.57282,-0.138019,-0.127436,-0.795923,1.139195,0.406262,65.246582,17.883301,332.519531,0,0
11873,2024 10 17,09:01:38.929,0.795694,-0.565603,-0.155239,-0.151213,-0.335948,0.67629,0.628437,36.621094,-10.742188,338.07373,0,0
11874,2024 10 17,09:01:38.937,0.7924,-0.559168,-0.172743,-0.172026,-0.217292,0.490249,0.48439,31.677246,28.503418,308.71582,0,0
11875,2024 10 17,09:01:38.946,0.788677,-0.553346,-0.190814,-0.188112,-0.143559,0.396008,0.634297,35.03418,64.758301,269.53125,0,0
11876,2024 10 17,09:01:38.954,0.784164,-0.54837,-0.210162,-0.200522,-0.215827,0.536637,0.460952,31.433105,101.745605,250.061035,0,0
11877,2024 10 17,09:01:38.962,0.778513,-0.544167,-0.230464,-0.211391,-0.466811,0.684591,0.37843,20.812988,120.422363,244.995117,0,0
11878,2024 10 17,09:01:38.971,0.778513,-0.544167,-0.230464,-0.211391,-0.466811,0.684591,0.37843,20.812988,120.422363,244.995117,0,0
11879,2024 10 17,09:01:38.979,0.771495,-0.540669,-0.251089,-0.22232,-0.670431,0.729026,0.261238,4.211426,123.413086,249.633789,0,0
11880,2024 10 17,09:01:38.987,0.763114,-0.537631,-0.271339,-0.234489,-0.652852,0.648457,0.240242,-12.634277,117.30957,261.59668,0,0
11881,2024 10 17,09:01:38.996,0.75313,-0.534913,-0.292054,-0.247724,-0.643086,0.539079,0.231941,-26.428223,123.901367,278.381348,0,0
11882,2024 10 17,09:01:39.004,0.7415,-0.53223,-0.313933,-0.261449,-0.709006,0.43263,0.238289,-33.203125,138.427734,294.006348,0,0
11883,2024 10 17,09:01:39.012,0.72837,-0.529225,-0.337285,-0.275023,-0.78811,0.33253,0.217292,-32.287598,156.982422,307.128906,0,0
11884,2024 10 17,09:01:39.021,0.72837,-0.529225,-0.337285,-0.275023,-0.78811,0.33253,0.217292,-32.287598,156.982422,307.128906,0,0
11885,2024 10 17,09:01:39.029,0.713964,-0.525478,-0.36223,-0.287953,-0.940458,0.259285,0.20069,-25.085449,176.635742,317.810059,0,0
11886,2024 10 17,09:01:39.037,0.698675,-0.520628,-0.388262,-0.300086,-1.172399,0.184576,0.151372,-13.671875,187.805176,324.035645,0,0
11887,2024 10 17,09:01:39.046,0.683124,-0.514344,-0.414513,-0.3114,-1.360393,0.133793,0.085452,1.525879,188.293457,324.768066,0,0
11888,2024 10 17,09:01:39.054,0.66774,-0.506427,-0.440556,-0.321816,-1.516648,0.114261,-0.026856,19.40918,185.424805,323.547363,0,0
11889,2024 10 17,09:01:39.062,0.652609,-0.496749,-0.466192,-0.331672,-1.378948,-0.000977,-0.145512,33.447266,175.964355,326.11084,0,0
11890,2024 10 17,09:01:39.071,0.652609,-0.496749,-0.466192,-0.331672,-1.378948,-0.000977,-0.145512,33.447266,175.964355,326.11084,0,0
11891,2024 10 17,09:01:39.079,0.637886,-0.485213,-0.49082,-0.341709,-1.745659,0.239753,-0.186041,44.433594,156.860352,330.749512,0,0
11892,2024 10 17,09:01:39.087,0.623363,-0.47218,-0.514129,-0.352328,-1.730033,0.212409,-0.270516,46.325684,138.73291,334.594727,0,0
11893,2024 10 17,09:01:39.096,0.60888,-0.457903,-0.536444,-0.363068,-1.670949,0.202155,-0.160649,50.415039,128.295898,338.012695,0,0
11894,2024 10 17,09:01:39.104,0.593767,-0.44282,-0.558434,-0.3735,-1.673879,0.185553,-0.123051,54.077148,130.79834,342.651367,0,0
11895,2024 10 17,09:01:39.112,0.577749,-0.427181,-0.580304,-0.383367,-1.779351,0.135258,-0.072268,56.091309,137.023926,345.703125,0,0
11896,2024 10 17,09:01:39.121,0.577749,-0.427181,-0.580304,-0.383367,-1.779351,0.135258,-0.072268,56.091309,137.023926,345.703125,0,0
11897,2024 10 17,09:01:39.129,0.560806,-0.411211,-0.60193,-0.392533,-1.909238,0.096683,-0.044435,56.518555,143.371582,346.191406,0,0
11898,2024 10 17,09:01:39.137,0.542964,-0.39511,-0.62308,-0.40106,-2.022523,0.077151,-0.061037,54.992676,148.620605,345.581055,0,0
11899,2024 10 17,09:01:39.146,0.524081,-0.37903,-0.643427,-0.409484,-2.138249,0.078127,-0.121586,44.98291,151.489258,347.167969,0,0
11900,2024 10 17,09:01:39.154,0.504283,-0.363312,-0.662381,-0.418275,-2.262764,-0.051759,-0.201666,27.709961,149.414063,344.421387,0,0
11901,2024 10 17,09:01:39.162,0.484018,-0.348416,-0.679614,-0.427151,-2.311106,-0.357921,-0.170415,13.671875,148.376465,333.496094,0,0
11902,2024 10 17,09:01:39.171,0.463275,-0.334824,-0.695472,-0.435416,-2.373119,-0.798853,-0.210944,4.150391,155.517578,318.115234,0,0
11903,2024 10 17,09:01:39.179,0.463275,-0.334824,-0.695472,-0.435416,-2.373119,-0.798853,-0.210944,4.150391,155.517578,318.115234,0,0
11904,2024 10 17,09:01:39.187,0.442506,-0.322652,-0.710243,-0.442311,-2.51326,-1.234901,-0.269539,2.746582,160.888672,296.813965,0,0
11905,2024 10 17,09:01:39.196,0.422958,-0.311784,-0.723447,-0.447796,-2.462477,-1.621632,-0.395032,4.699707,153.076172,268.188477,0,0
11906,2024 10 17,09:01:39.204,0.405057,-0.302342,-0.73513,-0.451777,-2.29255,-1.929746,-0.569353,8.544922,146.118164,236.633301,0,0
11907,2024 10 17,09:01:39.212,0.388863,-0.294739,-0.745228,-0.454478,-2.018128,-2.109928,-0.954131,5.859375,139.038086,200.378418,0,0
11908,2024 10 17,09:01:39.221,0.374638,-0.289905,-0.753236,-0.456329,-1.66216,-2.274483,-1.502976,-3.845215,132.568359,152.404785,0,0
11909,2024 10 17,09:01:39.229,0.374638,-0.289905,-0.753236,-0.456329,-1.66216,-2.274483,-1.502976,-3.845215,132.568359,152.404785,0,0
11910,2024 10 17,09:01:39.237,0.361626,-0.288821,-0.759348,-0.457383,-2.251045,-2.98349,-2.002991,-17.700195,142.63916,107.299805,0,0
11911,2024 10 17,09:01:39.246,0.352687,-0.289091,-0.763147,-0.45787,-3.078219,-3.135838,-1.835017,-16.662598,84.838867,69.763184,0,0
11912,2024 10 17,09:01:39.254,0.353422,-0.287561,-0.76208,-0.460039,-2.38142,-3.231544,-1.311075,-14.587402,-45.593262,24.841309,0,0
11913,2024 10 17,09:01:39.262,0.36114,-0.285306,-0.758479,-0.461398,-1.428266,-2.997162,-0.700217,8.605957,-93.383789,-18.249512,0,0
11914,2024 10 17,09:01:39.271,0.370045,-0.285057,-0.755335,-0.459651,-1.202673,-2.277413,-0.613788,29.47998,-76.660156,-54.870605,0,0
11915,2024 10 17,09:01:39.279,0.370045,-0.285057,-0.755335,-0.459651,-1.202673,-2.277413,-0.613788,29.47998,-76.660156,-54.870605,0,0
11916,2024 10 17,09:01:39.287,0.378413,-0.288791,-0.762934,-0.437419,-8.39137,-0.823756,-0.58449,451.477051,183.654785,-202.148438,0,0
11917,2024 10 17,09:01:39.296,0.413005,-0.294546,-0.74438,-0.434244,0.634785,0.392102,0.651387,-174.743652,-575.378418,-220.76416,0,0
11918,2024 10 17,09:01:39.304,0.439691,-0.300533,-0.726352,-0.434471,1.363811,0.252937,-0.298349,-100.036621,-3.051758,-252.319336,0,0
11919,2024 10 17,09:01:39.312,0.445842,-0.323623,-0.722447,-0.417808,-2.666097,2.176336,0.341319,47.363281,-14.648438,-333.068848,1,0
11920,2024 10 17,09:01:39.321,0.459005,-0.345494,-0.699646,-0.424786,-1.226112,-1.342814,-1.075228,-254.02832,-105.651855,-280.151367,0,0
11921,2024 10 17,09:01:39.329,0.459005,-0.345494,-0.699646,-0.424786,-1.226112,-1.342814,-1.075228,-254.02832,-105.651855,-280.151367,0,0
11922,2024 10 17,09:01:39.337,0.467329,-0.361234,-0.688305,-0.421128,-2.7369,-0.483413,-1.039094,-30.334473,-54.626465,-198.608398,0,0
11923,2024 10 17,09:01:39.346,0.48334,-0.364724,-0.674477,-0.422421,-1.11185,-0.072268,0.170415,-20.568848,-191.589355,-139.526367,0,0
11924,2024 10 17,09:01:39.354,0.496757,-0.366296,-0.663495,-0.422888,-1.341349,0.497086,0.801294,-27.22168,-161.743164,-113.40332,0,0
11925,2024 10 17,09:01:39.362,0.50612,-0.369471,-0.650365,-0.429371,-0.957549,-0.224128,0.02002,-98.327637,-150.512695,-79.772949,0,0
11926,2024 10 17,09:01:39.371,0.514068,-0.371145,-0.639255,-0.43513,-0.875515,-0.108402,-0.219733,-62.927246,-142.028809,-59.326172,0,0
11927,2024 10 17,09:01:39.379,0.514068,-0.371145,-0.639255,-0.43513,-0.875515,-0.108402,-0.219733,-62.927246,-142.028809,-59.326172,0,0
11928,2024 10 17,09:01:39.387,0.522296,-0.370737,-0.629901,-0.439301,-0.967315,0.247078,0.205573,-36.499023,-127.868652,-49.438477,0,0
11929,2024 10 17,09:01:39.396,0.528355,-0.370892,-0.620494,-0.445272,-0.89407,0.060549,0.041505,-76.660156,-125.915527,-31.311035,0,0
11930,2024 10 17,09:01:39.404,0.532734,-0.37126,-0.611908,-0.451586,-0.756859,0.009766,-0.387707,-65.368652,-100.402832,-20.874023,0,0
11931,2024 10 17,09:01:39.412,0.536636,-0.370959,-0.605482,-0.455854,-0.81399,0.157231,-0.114261,-39.611816,-78.491211,-17.76123,0,0
11932,2024 10 17,09:01:39.421,0.539149,-0.37102,-0.600354,-0.459607,-0.918973,0.126957,-0.024903,-44.799805,-60.72998,-10.864258,0,0
11933,2024 10 17,09:01:39.429,0.539149,-0.37102,-0.600354,-0.459607,-0.918973,0.126957,-0.024903,-44.799805,-60.72998,-10.864258,0,0
11934,2024 10 17,09:01:39.437,0.541075,-0.371144,-0.596127,-0.462734,-0.832545,0.087405,-0.214362,-31.494141,-48.278809,-9.399414,0,0
11935,2024 10 17,09:01:39.446,0.5429,-0.370902,-0.593302,-0.464417,-0.903836,0.188971,-0.036134,-14.099121,-34.179688,-9.277344,0,0
11936,2024 10 17,09:01:39.454,0.544401,-0.370799,-0.591334,-0.465252,-0.931669,0.186529,-0.02002,-6.774902,-24.230957,-11.59668,0,0
11937,2024 10 17,09:01:39.462,0.545966,-0.370784,-0.589869,-0.46529,-0.936552,0.199713,-0.017579,-0.183105,-18.737793,-15.319824,0,0
11938,2024 10 17,09:01:39.471,0.547511,-0.370868,-0.588747,-0.464829,-0.917997,0.177252,-0.053713,4.211426,-13.73291,-17.211914,0,0
11939,2024 10 17,09:01:39.479,0.547511,-0.370868,-0.588747,-0.464829,-0.917997,0.177252,-0.053713,4.211426,-13.73291,-17.211914,0,0
11940,2024 10 17,09:01:39.487,0.548947,-0.370991,-0.587968,-0.464022,-0.917508,0.189459,-0.046876,7.141113,-9.033203,-17.089844,0,0
11941,2024 10 17,09:01:39.496,0.55014,-0.371228,-0.587467,-0.463054,-0.916044,0.194342,-0.053713,7.385254,-4.699707,-16.235352,0,0
11942,2024 10 17,09:01:39.504,0.551013,-0.371646,-0.587163,-0.462064,-0.91995,0.176275,-0.067385,4.943848,-0.366211,-15.014648,0,0
11943,2024 10 17,09:01:39.512,0.551671,-0.372243,-0.586893,-0.461141,-0.941923,0.179205,-0.036134,2.319336,1.831055,-14.648438,0,0
11944,2024 10 17,09:01:39.521,0.552222,-0.372894,-0.586665,-0.460244,-0.958525,0.183599,-0.00293,3.417969,1.953125,-13.977051,0,0
11945,2024 10 17,09:01:39.529,0.552222,-0.372894,-0.586665,-0.460244,-0.958525,0.183599,-0.00293,3.417969,1.953125,-13.977051,0,0
11946,2024 10 17,09:01:39.537,0.552853,-0.373411,-0.586361,-0.459456,-0.962432,0.17481,0.006836,3.417969,-1.159668,-13.183594,0,0
11947,2024 10 17,09:01:39.546,0.553661,-0.373709,-0.585956,-0.458755,-0.951689,0.178716,-0.004883,4.455566,-4.211426,-12.512207,0,0
11948,2024 10 17,09:01:39.554,0.554572,-0.373857,-0.585473,-0.45815,-0.92581,0.17188,-0.040529,4.577637,-6.286621,-11.84082,0,0
11949,2024 10 17,09:01:39.562,0.555547,-0.373951,-0.584891,-0.457636,-0.936064,0.17774,-0.027345,3.479004,-7.93457,-11.84082,0,0
11950,2024 10 17,09:01:39.571,0.556541,-0.374083,-0.584269,-0.457115,-0.934599,0.189947,-0.028809,3.356934,-7.69043,-12.756348,0,0
11951,2024 10 17,09:01:39.579,0.557591,-0.374291,-0.583488,-0.456661,-0.940947,0.192877,-0.042482,2.01416,-9.277344,-13.85498,0,0
11952,2024 10 17,09:01:39.587,0.557591,-0.374291,-0.583488,-0.456661,-0.940947,0.192877,-0.042482,2.01416,-9.277344,-13.85498,0,0
11953,2024 10 17,09:01:39.596,0.558696,-0.374601,-0.582575,-0.456224,-0.960479,0.183111,-0.015137,0.305176,-9.82666,-15.319824,0,0
11954,2024 10 17,09:01:39.604,0.559896,-0.374954,-0.58146,-0.455885,-0.946318,0.173345,-0.030274,-1.037598,-12.451172,-16.113281,0,0
11955,2024 10 17,09:01:39.612,0.561094,-0.375349,-0.580269,-0.455603,-0.926786,0.161138,-0.06592,-2.075195,-12.023926,-15.991211,0,0
11956,2024 10 17,09:01:39.621,0.562237,-0.375744,-0.579059,-0.455408,-0.929716,0.151372,-0.035646,-2.685547,-12.329102,-15.075684,0,0
11957,2024 10 17,09:01:39.629,0.563363,-0.376078,-0.577877,-0.455242,-0.92581,0.14893,-0.048341,-2.258301,-12.939453,-14.343262,0,0
11958,2024 10 17,09:01:39.637,0.563363,-0.376078,-0.577877,-0.455242,-0.92581,0.14893,-0.048341,-2.258301,-12.939453,-14.343262,0,0
11959,2024 10 17,09:01:39.646,0.564505,-0.376332,-0.576667,-0.455152,-0.936064,0.137211,-0.050295,-2.197266,-13.793945,-13.305664,0,0
11960,2024 10 17,09:01:39.654,0.565706,-0.376413,-0.575494,-0.45508,-0.934599,0.127445,-0.053713,-0.793457,-15.136719,-12.207031,0,0
11961,2024 10 17,09:01:39.662,0.567013,-0.376276,-0.574418,-0.454925,-0.935575,0.146001,-0.051271,2.746582,-15.74707,-11.59668,0,0
11962,2024 10 17,09:01:39.671,0.568419,-0.376004,-0.57333,-0.454769,-0.932157,0.147954,-0.06299,3.540039,-17.211914,-11.59668,0,0
11963,2024 10 17,09:01:39.679,0.569835,-0.375733,-0.572285,-0.454535,-0.946318,0.153325,-0.059572,3.662109,-16.296387,-12.084961,0,0
11964,2024 10 17,09:01:39.687,0.569835,-0.375733,-0.572285,-0.454535,-0.946318,0.153325,-0.059572,3.662109,-16.296387,-12.084961,0,0
11965,2024 10 17,09:01:39.696,0.571241,-0.375541,-0.571217,-0.454273,-0.956084,0.168462,-0.044923,3.356934,-15.74707,-13.061523,0,0
11966,2024 10 17,09:01:39.704,0.57262,-0.375511,-0.570048,-0.45403,-0.951201,0.166509,-0.078127,0.976563,-16.113281,-14.404297,0,0
11967,2024 10 17,09:01:39.712,0.573991,-0.37564,-0.568744,-0.453828,-0.93997,0.161138,-0.085452,-0.915527,-15.014648,-15.563965,0,0
11968,2024 10 17,09:01:39.721,0.575158,-0.376076,-0.567539,-0.453497,-0.98294,0.177252,-0.051759,-2.258301,-10.803223,-17.211914,0,0
11969,2024 10 17,09:01:39.729,0.57631,-0.376767,-0.566183,-0.453156,-1.000031,0.162603,-0.039064,-4.699707,-12.023926,-19.714355,0,0
11970,2024 10 17,09:01:39.737,0.57631,-0.376767,-0.566183,-0.453156,-1.000031,0.162603,-0.039064,-4.699707,-12.023926,-19.714355,0,0
11971,2024 10 17,09:01:39.746,0.577629,-0.377578,-0.564656,-0.452707,-0.990265,0.145512,-0.061525,-4.577637,-12.573242,-23.010254,0,0
11972,2024 10 17,09:01:39.754,0.579147,-0.378511,-0.563102,-0.451922,-1.005402,0.169927,-0.095218,-1.403809,-11.474609,-27.709961,0,0
11973,2024 10 17,09:01:39.762,0.580866,-0.37964,-0.561469,-0.450799,-0.989776,0.16895,-0.120609,-1.098633,-10.681152,-32.348633,0,0
11974,2024 10 17,09:01:39.771,0.582608,-0.381187,-0.56001,-0.449058,-1.011261,0.173833,-0.135258,1.403809,-2.685547,-39.306641,0,0
11975,2024 10 17,09:01:39.779,0.584335,-0.383255,-0.558784,-0.446575,-1.033723,0.165044,-0.094729,3.967285,4.02832,-46.75293,0,0
11976,2024 10 17,09:01:39.787,0.584335,-0.383255,-0.558784,-0.446575,-1.033723,0.165044,-0.094729,3.967285,4.02832,-46.75293,0,0
11977,2024 10 17,09:01:39.796,0.586211,-0.385882,-0.557665,-0.44324,-1.070833,0.164068,-0.15772,7.324219,9.82666,-57.189941,0,0
11978,2024 10 17,09:01:39.804,0.588518,-0.3888,-0.556334,-0.439287,-1.122593,0.159185,-0.018067,9.338379,9.033203,-65.368652,0,0
11979,2024 10 17,09:01:39.812,0.591098,-0.392195,-0.554877,-0.434625,-1.243202,0.137211,0.001465,11.352539,11.291504,-75.98877,0,0
11980,2024 10 17,09:01:39.821,0.594387,-0.395805,-0.552761,-0.429532,-1.35844,0.198737,-0.039064,11.108398,2.502441,-87.097168,0,0
11981,2024 10 17,09:01:39.829,0.598897,-0.399677,-0.549455,-0.423888,-1.397015,0.242195,-0.049318,15.991211,-8.728027,-106.872559,0,0
11982,2024 10 17,09:01:39.837,0.598897,-0.399677,-0.549455,-0.423888,-1.397015,0.242195,-0.049318,15.991211,-8.728027,-106.872559,0,0
11983,2024 10 17,09:01:39.846,0.60447,-0.404042,-0.545246,-0.41722,-1.410199,0.233894,-0.017579,16.296387,-13.73291,-125.366211,0,0
11984,2024 10 17,09:01:39.854,0.611027,-0.408971,-0.539871,-0.40979,-1.463912,0.283212,-0.014161,16.235352,-23.4375,-144.897461,0,0
11985,2024 10 17,09:01:39.862,0.618509,-0.414664,-0.533048,-0.401698,-1.529832,0.295907,0.021973,12.512207,-31.921387,-166.809082,0,0
11986,2024 10 17,09:01:39.871,0.626824,-0.421365,-0.524784,-0.392614,-1.619678,0.362316,0.031251,7.385254,-38.330078,-191.772461,0,0
11987,2024 10 17,09:01:39.879,0.635754,-0.429428,-0.514431,-0.383105,-1.735404,0.449721,0.028809,-9.155273,-49.194336,-216.796875,0,0
11988,2024 10 17,09:01:39.887,0.635754,-0.429428,-0.514431,-0.383105,-1.735404,0.449721,0.028809,-9.155273,-49.194336,-216.796875,0,0
11989,2024 10 17,09:01:39.896,0.645128,-0.439369,-0.502225,-0.372203,-1.997131,0.514664,-0.024903,-16.357422,-47.302246,-253.540039,0,0
11990,2024 10 17,09:01:39.904,0.655761,-0.450949,-0.487749,-0.358781,-2.257881,0.618183,-0.012696,-16.967773,-54.6875,-301.940918,0,0
11991,2024 10 17,09:01:39.912,0.668089,-0.463884,-0.470489,-0.342212,-2.509354,0.625996,0.083987,-11.535645,-62.927246,-356.994629,0,0
11992,2024 10 17,09:01:39.921,0.681786,-0.47841,-0.450044,-0.322105,-2.99765,0.648457,-0.068361,-10.437012,-71.228027,-418.212891,0,0
11993,2024 10 17,09:01:39.929,0.696783,-0.494216,-0.424964,-0.299414,-2.770104,0.565935,0.130863,-21.484375,-101.379395,-473.510742,0,0
11994,2024 10 17,09:01:39.937,0.696783,-0.494216,-0.424964,-0.299414,-2.770104,0.565935,0.130863,-21.484375,-101.379395,-473.510742,0,0
11995,2024 10 17,09:01:39.946,0.710882,-0.511509,-0.396372,-0.275491,-2.586016,0.073733,-0.005371,-43.640137,-99.121094,-500.732422,0,0
11996,2024 10 17,09:01:39.954,0.723476,-0.52885,-0.367223,-0.249092,-2.468337,-0.502945,-0.171392,-39.672852,-87.70752,-511.413574,0,1
11997,2024 10 17,09:01:39.962,0.735444,-0.543273,-0.338795,-0.221796,-2.336009,-0.463393,0.217292,-5.004883,-76.23291,-494.934082,0,0
11998,2024 10 17,09:01:39.971,0.746148,-0.555093,-0.312339,-0.193853,-2.571856,-0.06885,0.208014,18.432617,-62.988281,-476.196289,0,0
11999,2024 10 17,09:01:39.979,0.756317,-0.564005,-0.286679,-0.166431,-1.901425,0.41261,0.48439,33.081055,-62.866211,-456.90918,0,0
12000,2024 10 17,09:01:39.987,0.764985,-0.57114,-0.263689,-0.138077,-1.416059,0.77102,0.59621,47.973633,-21.66748,-440.307617,0,0
12001,2024 10 17,09:01:39.996,0.764985,-0.57114,-0.263689,-0.138077,-1.416059,0.77102,0.59621,47.973633,-21.66748,-440.307617,0,0
12002,2024 10 17,09:01:40.004,0.773055,-0.5755,-0.244776,-0.106167,-0.955107,1.071322,1.178259,98.388672,36.92627,-437.072754,0,0
12003,2024 10 17,09:01:40.012,0.781477,-0.575803,-0.229681,-0.070648,-0.599628,0.61916,1.212439,150.57373,82.946777,-430.847168,0,0
12004,2024 10 17,09:01:40.020,0.792035,-0.569092,-0.218092,-0.035365,0.869655,0.082522,1.502487,242.858887,87.524414,-350.891113,0,0
12005,2024 10 17,09:01:40.029,0.802748,-0.556225,-0.214239,-0.017642,0.953154,1.692434,0.964385,200.439453,50.598145,-83.435059,0,0
12006,2024 10 17,09:01:40.037,0.809179,-0.542876,-0.224469,-0.011369,-0.990265,1.691946,-0.109378,204.956055,113.40332,62.744141,0,0
12007,2024 10 17,09:01:40.045,0.809179,-0.542876,-0.224469,-0.011369,-0.990265,1.691946,-0.109378,204.956055,113.40332,62.744141,0,0
12008,2024 10 17,09:01:40.054,0.815669,-0.528256,-0.235357,-0.015399,-0.574236,1.393597,0.390149,139.648438,47.363281,157.958984,0,0
12009,2024 10 17,09:01:40.062,0.81957,-0.515739,-0.248273,-0.026075,-0.4214,1.30961,0.259774,101.257324,33.508301,218.383789,0,0
12010,2024 10 17,09:01:40.070,0.821263,-0.505753,-0.260893,-0.040931,-0.209479,1.011261,0.379894,56.640625,25.146484,240.478516,0,0
12011,2024 10 17,09:01:40.079,0.820761,-0.497978,-0.274428,-0.055306,-0.027345,0.816919,0.345714,26.062012,45.288086,229.492188,0,0
12012,2024 10 17,09:01:40.087,0.81819,-0.49227,-0.289506,-0.0665,0.093265,0.703635,0.330088,9.338379,96.191406,202.087402,0,0
12013,2024 10 17,09:01:40.095,0.81819,-0.49227,-0.289506,-0.0665,0.093265,0.703635,0.330088,9.338379,96.191406,202.087402,0,0
12014,2024 10 17,09:01:40.104,0.81349,-0.488304,-0.307011,-0.074415,0.04004,0.728538,0.319346,-6.469727,141.845703,184.814453,0,0
12015,2024 10 17,09:01:40.112,0.806624,-0.485672,-0.327065,-0.080678,-0.236335,0.758324,0.202155,-22.827148,182.617188,184.265137,0,0
12016,2024 10 17,09:01:40.120,0.79775,-0.483849,-0.349186,-0.086918,-0.529801,0.746117,0.106449,-40.100098,205.505371,195.43457,0,0
12017,2024 10 17,09:01:40.129,0.787257,-0.482288,-0.372457,-0.094342,-0.755394,0.669942,0.013184,-54.56543,211.303711,213.806152,0,0
12018,2024 10 17,09:01:40.137,0.77561,-0.480402,-0.396131,-0.103551,-0.917997,0.554216,-0.047365,-64.025879,208.374023,234.375,0,0
12019,2024 10 17,09:01:40.145,0.77561,-0.480402,-0.396131,-0.103551,-0.917997,0.554216,-0.047365,-64.025879,208.374023,234.375,0,0
12020,2024 10 17,09:01:40.154,0.763302,-0.477665,-0.419675,-0.114368,-0.973174,0.355968,-0.097171,-65.063477,199.401855,251.586914,0,0
12021,2024 10 17,09:01:40.162,0.750765,-0.473319,-0.443292,-0.125754,-0.9888,0.154302,-0.112796,-50.65918,198.852539,264.953613,0,0
12022,2024 10 17,09:01:40.170,0.738385,-0.466655,-0.467248,-0.136748,-1.017121,-0.019532,-0.088382,-24.108887,199.768066,274.902344,0,0
12023,2024 10 17,09:01:40.179,0.726567,-0.457147,-0.491623,-0.146366,-1.118198,-0.140629,-0.112308,13.671875,204.162598,279.35791,0,0
12024,2024 10 17,09:01:40.187,0.715652,-0.444448,-0.516303,-0.154073,-1.299356,-0.140629,-0.184088,57.189941,204.833984,281.494141,0,0
12025,2024 10 17,09:01:40.195,0.715652,-0.444448,-0.516303,-0.154073,-1.299356,-0.140629,-0.184088,57.189941,204.833984,281.494141,0,0
12026,2024 10 17,09:01:40.204,0.705992,-0.428419,-0.540706,-0.160215,-1.477096,-0.035157,-0.277352,98.144531,194.702148,285.095215,0,0
12027,2024 10 17,09:01:40.212,0.697738,-0.409193,-0.564104,-0.165858,-1.530808,0.094241,-0.374523,129.211426,172.668457,294.067383,0,0
12028,2024 10 17,09:01:40.220,0.690578,-0.387232,-0.586262,-0.171612,-1.508835,0.182134,-0.422864,150.939941,151.977539,304.56543,0,0
12029,2024 10 17,09:01:40.229,0.683942,-0.363216,-0.607295,-0.177454,-1.474654,0.213385,-0.408216,164.855957,136.169434,312.072754,0,0
12030,2024 10 17,09:01:40.237,0.677363,-0.337857,-0.627316,-0.183049,-1.419965,0.23487,-0.338878,174.743652,129.02832,314.147949,0,0
12031,2024 10 17,09:01:40.245,0.677363,-0.337857,-0.627316,-0.183049,-1.419965,0.23487,-0.338878,174.743652,129.02832,314.147949,0,0
12032,2024 10 17,09:01:40.254,0.670191,-0.311849,-0.646727,-0.187985,-1.436079,0.249519,-0.283212,180.114746,131.286621,312.011719,0,0
12033,2024 10 17,09:01:40.262,0.662106,-0.285619,-0.665664,-0.192171,-1.508347,0.255867,-0.225593,182.495117,137.512207,308.044434,0,0
12034,2024 10 17,09:01:40.270,0.652929,-0.259511,-0.684093,-0.195844,-1.651418,0.265633,-0.142094,179.56543,143.066406,304.443359,0,0
12035,2024 10 17,09:01:40.279,0.642825,-0.233866,-0.701639,-0.199462,-1.691946,0.270516,-0.182623,170.288086,143.859863,299.865723,0,0
12036,2024 10 17,09:01:40.287,0.631615,-0.2091,-0.718367,-0.203198,-1.731498,0.184576,-0.223151,157.470703,151.367188,294.311523,0,0
12037,2024 10 17,09:01:40.295,0.631615,-0.2091,-0.718367,-0.203198,-1.731498,0.184576,-0.223151,157.470703,151.367188,294.311523,0,0
12038,2024 10 17,09:01:40.304,0.619033,-0.185436,-0.734565,-0.206944,-1.747612,0.066408,-0.242683,145.080566,162.231445,287.963867,0,0
12039,2024 10 17,09:01:40.312,0.604952,-0.163051,-0.750425,-0.210501,-1.81988,-0.08887,-0.27784,134.094238,177.124023,279.11377,0,0
12040,2024 10 17,09:01:40.320,0.589476,-0.14199,-0.765994,-0.213565,-1.985412,-0.262215,-0.359386,127.01416,191.345215,267.944336,0,0
12041,2024 10 17,09:01:40.329,0.573202,-0.122065,-0.780992,-0.215849,-2.161199,-0.450209,-0.452651,124.328613,196.899414,254.699707,0,0
12042,2024 10 17,09:01:40.337,0.557017,-0.103124,-0.794969,-0.217075,-2.252022,-0.743187,-0.640156,125.915527,191.711426,237.792969,0,0
12043,2024 10 17,09:01:40.345,0.557017,-0.103124,-0.794969,-0.217075,-2.252022,-0.743187,-0.640156,125.915527,191.711426,237.792969,0,0
12044,2024 10 17,09:01:40.354,0.54171,-0.085099,-0.807682,-0.216697,-2.245674,-1.123081,-0.81399,133.728027,179.992676,216.674805,0,0
12045,2024 10 17,09:01:40.362,0.527808,-0.06798,-0.81903,-0.214448,-2.082095,-1.388714,-1.028352,142.63916,162.475586,193.17627,0,0
12046,2024 10 17,09:01:40.370,0.515555,-0.052296,-0.828908,-0.210664,-1.896542,-1.543016,-1.386273,143.188477,143.493652,164.794922,0,0
12047,2024 10 17,09:01:40.379,0.505303,-0.038965,-0.837089,-0.205991,-1.634327,-1.720267,-1.783746,132.568359,121.887207,130.004883,0,0
12048,2024 10 17,09:01:40.387,0.496613,-0.028761,-0.843901,-0.200948,-1.83697,-2.120182,-2.121159,114.196777,111.14502,95.458984,0,0
12049,2024 10 17,09:01:40.395,0.490411,-0.02159,-0.848934,-0.19581,-2.33845,-2.160222,-2.053285,92.407227,76.11084,59.997559,0,0
12050,2024 10 17,09:01:40.404,0.490411,-0.02159,-0.848934,-0.19581,-2.33845,-2.160222,-2.053285,92.407227,76.11084,59.997559,0,0
12051,2024 10 17,09:01:40.412,0.49024,-0.017589,-0.850216,-0.191017,-2.170965,-2.085513,-1.70513,63.415527,-6.347656,14.587402,0,0
12052,2024 10 17,09:01:40.420,0.495675,-0.016726,-0.848172,-0.186091,-1.403363,-1.946348,-1.144078,42.602539,-63.110352,-28.686523,0,0
12053,2024 10 17,09:01:40.429,0.494628,-0.016451,-0.855604,-0.151701,-4.958647,7.395246,-4.486465,498.046875,56.213379,-266.723633,1,0
12054,2024 10 17,09:01:40.437,0.551534,-0.026484,-0.815975,-0.171149,3.655385,0.980011,7.504136,-240.356445,-880.249023,-107.116699,0,0
12055,2024 10 17,09:01:40.445,0.546563,-0.036253,-0.818827,-0.171689,-3.250587,0.227058,-2.857997,-59.265137,257.69043,-112.670898,0,0
12056,2024 10 17,09:01:40.454,0.546563,-0.036253,-0.818827,-0.171689,-3.250587,0.227058,-2.857997,-59.265137,257.69043,-112.670898,0,0
12057,2024 10 17,09:01:40.462,0.559805,-0.044555,-0.809165,-0.172872,-0.121098,0.339854,0.820826,-144.104004,-271.66748,-104.492188,0,0
12058,2024 10 17,09:01:40.470,0.566391,-0.051844,-0.804952,-0.169017,-2.433668,0.444838,-1.738334,88.439941,-3.051758,-111.938477,0,0
12059,2024 10 17,09:01:40.479,0.583592,-0.055968,-0.792909,-0.16608,-0.695822,-0.302744,-0.117679,-54.016113,-293.579102,-86.364746,0,0
12060,2024 10 17,09:01:40.487,0.599258,-0.059084,-0.781179,-0.164798,-1.131382,0.698752,-0.12598,-38.757324,-183.959961,-68.29834,0,0
12061,2024 10 17,09:01:40.495,0.614414,-0.066042,-0.767564,-0.170233,-0.837428,0.162603,0.497085,-104.736328,-220.214844,-60.852051,0,0
12062,2024 10 17,09:01:40.504,0.614414,-0.066042,-0.767564,-0.170233,-0.837428,0.162603,0.497085,-104.736328,-220.214844,-60.852051,0,0
12063,2024 10 17,09:01:40.512,0.627164,-0.072393,-0.755604,-0.174606,-0.889676,-0.001465,-0.486831,-100.830078,-186.279297,-60.60791,0,0
12064,2024 10 17,09:01:40.520,0.640535,-0.07742,-0.743168,-0.177263,-0.80813,0.257332,0.465835,-63.781738,-192.382813,-60.119629,0,0
12065,2024 10 17,09:01:40.529,0.651194,-0.082704,-0.73246,-0.180577,-0.984405,-0.075198,-0.023927,-85.144043,-154.785156,-48.339844,0,0
12066,2024 10 17,09:01:40.537,0.660642,-0.086892,-0.722659,-0.183755,-0.864284,0.039064,-0.148442,-64.27002,-143.005371,-37.597656,0,0
12067,2024 10 17,09:01:40.545,0.668675,-0.089921,-0.714247,-0.186116,-0.777856,0.12598,-0.226569,-48.339844,-118.469238,-31.066895,0,0
12068,2024 10 17,09:01:40.554,0.668675,-0.089921,-0.714247,-0.186116,-0.777856,0.12598,-0.226569,-48.339844,-118.469238,-31.066895,0,0
12069,2024 10 17,09:01:40.562,0.675121,-0.0925,-0.707313,-0.188054,-0.855983,0.085452,-0.090823,-44.067383,-96.069336,-25.146484,0,0
12070,2024 10 17,09:01:40.570,0.680168,-0.094563,-0.701712,-0.189817,-0.807154,0.048341,-0.277352,-32.287598,-75.622559,-17.39502,0,0
12071,2024 10 17,09:01:40.579,0.684085,-0.095667,-0.697424,-0.190986,-0.885769,0.199225,0.052736,-24.108887,-59.204102,-12.084961,0,0
12072,2024 10 17,09:01:40.587,0.686962,-0.096964,-0.694083,-0.192173,-0.89114,0.15186,-0.113773,-20.996094,-44.250488,-11.169434,0,0
12073,2024 10 17,09:01:40.595,0.689292,-0.09793,-0.691416,-0.192953,-0.855495,0.12891,-0.062502,-16.662598,-35.27832,-9.033203,0,0
12074,2024 10 17,09:01:40.604,0.689292,-0.09793,-0.691416,-0.192953,-0.855495,0.12891,-0.062502,-16.662598,-35.27832,-9.033203,0,0
12075,2024 10 17,09:01:40.612,0.690857,-0.098677,-0.689601,-0.193466,-0.892605,0.149907,-0.074709,-11.108398,-22.705078,-6.591797,0,0
12076,2024 10 17,09:01:40.620,0.691951,-0.099162,-0.688367,-0.193705,-0.916044,0.16895,-0.022462,-6.225586,-15.441895,-5.79834,0,0
12077,2024 10 17,09:01:40.629,0.692666,-0.099516,-0.687601,-0.193689,-0.929716,0.188971,-0.037599,-2.746582,-9.765625,-5.554199,0,0
12078,2024 10 17,09:01:40.637,0.69316,-0.099824,-0.687102,-0.193534,-0.928251,0.195807,-0.033204,-1.220703,-5.554199,-5.79834,0,0
12079,2024 10 17,09:01:40.645,0.693489,-0.100164,-0.686809,-0.193216,-0.951689,0.207038,-0.011719,-0.244141,-3.479004,-7.141113,0,0
12080,2024 10 17,09:01:40.654,0.693489,-0.100164,-0.686809,-0.193216,-0.951689,0.207038,-0.011719,-0.244141,-3.479004,-7.141113,0,0
12081,2024 10 17,09:01:40.662,0.693806,-0.100629,-0.68654,-0.192794,-0.940458,0.182134,-0.033692,-0.427246,-3.295898,-8.605957,0,0
12082,2024 10 17,09:01:40.670,0.694112,-0.101069,-0.686325,-0.192226,-0.93997,0.17774,-0.037599,0.732422,-2.01416,-9.277344,0,0
12083,2024 10 17,09:01:40.679,0.694425,-0.101447,-0.686153,-0.19151,-0.936064,0.187506,-0.02588,3.112793,-2.075195,-10.070801,0,0
12084,2024 10 17,09:01:40.687,0.694747,-0.10181,-0.686009,-0.190663,-0.936064,0.178716,-0.035646,4.211426,-1.89209,-11.047363,0,0
12085,2024 10 17,09:01:40.695,0.695083,-0.102118,-0.685893,-0.189692,-0.927274,0.166997,-0.04004,5.371094,-1.525879,-11.413574,0,0
12086,2024 10 17,09:01:40.704,0.695083,-0.102118,-0.685893,-0.189692,-0.927274,0.166997,-0.04004,5.371094,-1.525879,-11.413574,0,0
12087,2024 10 17,09:01:40.712,0.695384,-0.102381,-0.685821,-0.188704,-0.936064,0.166509,-0.035646,5.79834,-1.037598,-10.742188,0,0
12088,2024 10 17,09:01:40.720,0.695694,-0.102567,-0.685763,-0.18767,-0.944853,0.175787,-0.019044,7.263184,-1.220703,-10.742188,0,0
12089,2024 10 17,09:01:40.729,0.696053,-0.102697,-0.685679,-0.186571,-0.949736,0.170904,-0.023927,8.300781,-2.380371,-11.169434,0,0
12090,2024 10 17,09:01:40.737,0.696535,-0.102782,-0.685473,-0.185474,-0.935575,0.15772,-0.035157,7.93457,-4.455566,-10.864258,0,0
12091,2024 10 17,09:01:40.745,0.697084,-0.102818,-0.685184,-0.184461,-0.941923,0.160649,-0.028321,7.507324,-5.554199,-9.82666,0,0
12092,2024 10 17,09:01:40.754,0.697084,-0.102818,-0.685184,-0.184461,-0.941923,0.160649,-0.028321,7.507324,-5.554199,-9.82666,0,0
12093,2024 10 17,09:01:40.762,0.697698,-0.102815,-0.684805,-0.183546,-0.930692,0.155278,-0.033204,6.896973,-7.263184,-9.155273,0,0
12094,2024 10 17,09:01:40.770,0.698356,-0.102765,-0.684356,-0.182741,-0.927763,0.154302,-0.050295,6.286621,-7.93457,-7.8125,0,0
12095,2024 10 17,09:01:40.779,0.698988,-0.102674,-0.683914,-0.182028,-0.949736,0.169439,-0.030763,6.04248,-7.8125,-6.958008,0,0
12096,2024 10 17,09:01:40.787,0.699676,-0.1026,-0.683414,-0.181304,-0.956084,0.183111,-0.023927,5.92041,-9.155273,-7.93457,0,0
12097,2024 10 17,09:01:40.795,0.700443,-0.10269,-0.682786,-0.18066,-0.969756,0.17188,-0.022462,2.929688,-10.620117,-9.033203,0,0
12098,2024 10 17,09:01:40.804,0.701438,-0.102896,-0.681917,-0.179963,-0.975127,0.180181,-0.000488,3.356934,-14.648438,-11.169434,0,0
12099,2024 10 17,09:01:40.812,0.701438,-0.102896,-0.681917,-0.179963,-0.975127,0.180181,-0.000488,3.356934,-14.648438,-11.169434,0,0
12100,2024 10 17,09:01:40.820,0.702657,-0.103211,-0.680786,-0.179304,-0.962432,0.165044,-0.032228,0.915527,-18.371582,-12.390137,0,0
12101,2024 10 17,09:01:40.829,0.704179,-0.103551,-0.679335,-0.178643,-0.946318,0.145024,-0.049806,1.89209,-23.254395,-13.427734,0,0
12102,2024 10 17,09:01:40.837,0.705923,-0.10379,-0.677677,-0.177916,-0.936064,0.138676,-0.058596,2.441406,-26.062012,-13.427734,0,0
12103,2024 10 17,09:01:40.845,0.707686,-0.103891,-0.676037,-0.177091,-0.908719,0.136723,-0.098636,4.760742,-25.390625,-13.183594,0,0
12104,2024 10 17,09:01:40.854,0.709385,-0.103893,-0.674484,-0.176211,-0.943876,0.150884,-0.06592,6.591797,-24.047852,-12.878418,0,0
12105,2024 10 17,09:01:40.862,0.709385,-0.103893,-0.674484,-0.176211,-0.943876,0.150884,-0.06592,6.591797,-24.047852,-12.878418,0,0
12106,2024 10 17,09:01:40.870,0.711051,-0.103878,-0.672979,-0.175261,-0.949736,0.155766,-0.069826,6.225586,-23.986816,-13.305664,0,0
12107,2024 10 17,09:01:40.879,0.712694,-0.103897,-0.671504,-0.174229,-0.951201,0.157231,-0.095706,6.958008,-23.376465,-14.099121,0,0
12108,2024 10 17,09:01:40.887,0.714334,-0.103918,-0.670049,-0.1731,-0.947783,0.150395,-0.078616,7.507324,-22.827148,-14.892578,0,0
12109,2024 10 17,09:01:40.895,0.715984,-0.103945,-0.668604,-0.171844,-0.964385,0.158696,-0.069338,8.361816,-23.4375,-16.418457,0,0
12110,2024 10 17,09:01:40.904,0.717815,-0.104147,-0.666946,-0.170524,-1.000031,0.173345,-0.039552,6.713867,-26.794434,-18.981934,0,0
12111,2024 10 17,09:01:40.912,0.717815,-0.104147,-0.666946,-0.170524,-1.000031,0.173345,-0.039552,6.713867,-26.794434,-18.981934,0,0
12112,2024 10 17,09:01:40.920,0.719921,-0.104542,-0.664934,-0.169254,-0.940458,0.292001,-0.029298,4.760742,-31.677246,-20.751953,0,0
12113,2024 10 17,09:01:40.929,0.722193,-0.105097,-0.662678,-0.168077,-0.973662,0.147954,-0.132328,3.90625,-34.118652,-22.705078,0,0
12114,2024 10 17,09:01:40.937,0.724555,-0.105566,-0.660401,-0.166573,-0.93997,0.138676,-0.098148,4.089355,-33.38623,-23.742676,0,0
12115,2024 10 17,09:01:40.945,0.726679,-0.106211,-0.658351,-0.165014,-0.949736,0.089846,-0.145512,3.90625,-28.686523,-25.512695,0,0
12116,2024 10 17,09:01:40.954,0.728755,-0.106978,-0.656378,-0.163219,-0.960479,0.17481,-0.08301,5.92041,-27.526855,-27.893066,0,0
12117,2024 10 17,09:01:40.962,0.728755,-0.106978,-0.656378,-0.163219,-0.960479,0.17481,-0.08301,5.92041,-27.526855,-27.893066,0,0
12118,2024 10 17,09:01:40.970,0.73051,-0.108065,-0.65471,-0.161346,-0.9429,0.130375,-0.215339,1.831055,-21.30127,-30.883789,0,0
12119,2024 10 17,09:01:40.979,0.732059,-0.109457,-0.653293,-0.159115,-0.949736,0.207526,-0.176275,3.479004,-15.869141,-34.973145,0,0
12120,2024 10 17,09:01:40.987,0.733012,-0.111465,-0.652544,-0.156379,-1.044465,0.13184,-0.226569,2.868652,-2.258301,-44.067383,0,0
12121,2024 10 17,09:01:40.995,0.7339,-0.113902,-0.652021,-0.152599,-1.075228,0.187017,-0.119144,8.605957,-0.549316,-55.480957,0,0
12122,2024 10 17,09:01:41.004,0.734361,-0.116782,-0.652178,-0.147445,-1.2266,0.095706,-0.095706,15.930176,12.023926,-69.885254,0,0
12123,2024 10 17,09:01:41.012,0.734361,-0.116782,-0.652178,-0.147445,-1.2266,0.095706,-0.095706,15.930176,12.023926,-69.885254,0,0
12124,2024 10 17,09:01:41.020,0.735145,-0.119822,-0.652228,-0.140725,-1.301309,0.165532,-0.080081,27.46582,6.713867,-85.083008,0,0
12125,2024 10 17,09:01:41.029,0.736565,-0.123158,-0.651719,-0.132536,-1.311563,0.16895,-0.062014,37.231445,-0.244141,-101.745605,0,0
12126,2024 10 17,09:01:41.037,0.738398,-0.126983,-0.650725,-0.123289,-1.268105,0.198248,-0.058596,35.766602,-5.249023,-114.746094,0,0
12127,2024 10 17,09:01:41.045,0.740402,-0.131741,-0.649236,-0.113765,-1.309122,0.239753,-0.109378,30.578613,-7.385254,-125.12207,0,0
12128,2024 10 17,09:01:41.054,0.742321,-0.137645,-0.647473,-0.103882,-1.360393,0.262215,-0.10889,21.972656,-7.507324,-137.878418,0,0
12129,2024 10 17,09:01:41.062,0.742321,-0.137645,-0.647473,-0.103882,-1.360393,0.262215,-0.10889,21.972656,-7.507324,-137.878418,0,0
12130,2024 10 17,09:01:41.070,0.744346,-0.144966,-0.645095,-0.093735,-1.446821,0.265633,-0.085452,9.94873,-11.291504,-152.954102,0,0
12131,2024 10 17,09:01:41.079,0.746379,-0.153894,-0.642132,-0.083079,-1.514695,0.318857,-0.088382,-1.159668,-13.916016,-171.386719,0,0
12132,2024 10 17,09:01:41.087,0.748115,-0.164913,-0.638737,-0.071717,-1.680227,0.351573,-0.071291,-13.793945,-10.559082,-195.373535,0,0
12133,2024 10 17,09:01:41.095,0.749586,-0.17815,-0.634729,-0.059184,-1.850154,0.412122,-0.011231,-26.245117,-12.939453,-223.937988,0,0
12134,2024 10 17,09:01:41.104,0.750767,-0.193695,-0.629942,-0.044775,-1.99762,0.398938,-0.047853,-29.296875,-9.460449,-261.962891,0,0
12135,2024 10 17,09:01:41.112,0.750767,-0.193695,-0.629942,-0.044775,-1.99762,0.398938,-0.047853,-29.296875,-9.460449,-261.962891,0,0
12136,2024 10 17,09:01:41.120,0.751822,-0.211339,-0.623976,-0.027443,-2.12653,0.353526,-0.080569,-28.869629,-14.770508,-306.57959,0,0
12137,2024 10 17,09:01:41.129,0.752612,-0.231058,-0.616558,-0.00657,-2.090884,0.276864,-0.060549,-18.554688,-10.681152,-356.628418,0,0
12138,2024 10 17,09:01:41.137,0.7529,-0.252325,-0.607585,0.017725,-1.822321,0.109378,0.144047,-10.986328,-12.573242,-398.010254,0,0
12139,2024 10 17,09:01:41.145,0.750953,-0.274465,-0.598964,0.044499,-1.826228,-0.244148,0.020508,-8.178711,16.723633,-419.311523,0,1
12140,2024 10 17,09:01:41.154,0.747517,-0.295236,-0.590524,0.073049,-1.891171,-0.273934,0.086428,18.371582,32.043457,-418.945313,0,0
12141,2024 10 17,09:01:41.162,0.747517,-0.295236,-0.590524,0.073049,-1.891171,-0.273934,0.086428,18.371582,32.043457,-418.945313,0,0
12142,2024 10 17,09:01:41.170,0.742746,-0.313545,-0.582724,0.102229,-1.846736,-0.741234,0.371593,36.071777,52.368164,-403.442383,0,0
12143,2024 10 17,09:01:41.179,0.736263,-0.328593,-0.576399,0.133069,-1.767144,-0.821314,0.266121,76.477051,92.773438,-394.65332,0,0
12144,2024 10 17,09:01:41.187,0.728675,-0.339367,-0.57119,0.166145,-1.338908,-0.663106,0.442885,114.990234,118.347168,-379.516602,0,0
12145,2024 10 17,09:01:41.195,0.719246,-0.345079,-0.568482,0.201079,-0.90286,-0.084475,0.523942,174.560547,176.391602,-351.806641,0,0
12146,2024 10 17,09:01:41.204,0.71266,-0.340045,-0.566452,0.235832,0.243171,0.271981,2.564043,268.005371,164.550781,-244.445801,0,0
12147,2024 10 17,09:01:41.212,0.711563,-0.321439,-0.566865,0.262714,-0.110355,0.814966,0.770531,357.60498,159.362793,-50.109863,0,0
12148,2024 10 17,09:01:41.220,0.711563,-0.321439,-0.566865,0.262714,-0.110355,0.814966,0.770531,357.60498,159.362793,-50.109863,0,0
12149,2024 10 17,09:01:41.229,0.716831,-0.292579,-0.567756,0.279649,-0.7593,1.359905,0.719748,364.990234,110.839844,86.853027,0,0
12150,2024 10 17,09:01:41.237,0.722401,-0.260763,-0.567936,0.295954,-0.789575,1.715384,0.146489,377.746582,120.117188,78.430176,0,0
12151,2024 10 17,09:01:41.245,0.726177,-0.23315,-0.566975,0.311201,-0.548357,1.919004,0.163091,331.359863,103.69873,44.494629,0,0
12152,2024 10 17,09:01:41.254,0.726439,-0.210381,-0.567287,0.325903,-0.312021,1.804254,-0.005371,265.014648,124.938965,11.59668,0,0
12153,2024 10 17,09:01:41.262,0.723635,-0.191797,-0.570323,0.33808,0.21485,1.723685,0.031739,195.739746,152.038574,10.559082,0,0
12154,2024 10 17,09:01:41.270,0.723635,-0.191797,-0.570323,0.33808,0.21485,1.723685,0.031739,195.739746,152.038574,10.559082,0,0
12155,2024 10 17,09:01:41.279,0.717024,-0.174586,-0.57889,0.346818,0.204108,1.658742,0.051759,134.033203,216.97998,34.790039,0,0
12156,2024 10 17,09:01:41.287,0.707283,-0.157716,-0.592893,0.351218,-0.141606,1.514206,-0.069826,77.819824,266.967773,66.711426,0,0
12157,2024 10 17,09:01:41.295,0.695388,-0.141134,-0.610317,0.352178,-0.497574,1.293985,-0.180181,38.635254,297.912598,85.571289,0,0
12158,2024 10 17,09:01:41.304,0.682026,-0.124414,-0.629284,0.351231,-0.735374,1.061556,-0.227058,23.986816,314.331055,97.351074,0,0
12159,2024 10 17,09:01:41.312,0.668149,-0.106584,-0.648349,0.349084,-1.09476,0.885769,-0.331553,27.526855,317.382813,114.624023,0,0
12160,2024 10 17,09:01:41.320,0.668149,-0.106584,-0.648349,0.349084,-1.09476,0.885769,-0.331553,27.526855,317.382813,114.624023,0,0
12161,2024 10 17,09:01:41.329,0.65572,-0.087073,-0.665222,0.346307,-1.355998,0.71633,-0.454115,51.879883,287.414551,135.314941,0,0
12162,2024 10 17,09:01:41.337,0.64618,-0.065183,-0.678368,0.34354,-1.471236,0.576189,-0.595233,90.576172,247.741699,162.963867,0,0
12163,2024 10 17,09:01:41.345,0.63968,-0.039894,-0.687342,0.341729,-1.532762,0.532731,-0.702658,144.287109,206.298828,191.40625,0,0
12164,2024 10 17,09:01:41.354,0.636447,-0.011542,-0.69161,0.341287,-1.341349,0.580584,-0.757836,196.777344,159.484863,214.904785,0,0
12165,2024 10 17,09:01:41.362,0.634844,0.019744,-0.692324,0.342447,-1.116733,0.729026,-0.79397,243.164063,141.906738,231.018066,0,0
12166,2024 10 17,09:01:41.370,0.634844,0.019744,-0.692324,0.342447,-1.116733,0.729026,-0.79397,243.164063,141.906738,231.018066,0,0
12167,2024 10 17,09:01:41.379,0.633207,0.053474,-0.690971,0.3446,-1.076205,0.929716,-0.854518,272.033691,137.573242,241.882324,0,0
12168,2024 10 17,09:01:41.387,0.63111,0.088279,-0.688206,0.346813,-1.097201,1.075716,-0.938017,281.616211,136.535645,246.765137,0,0
12169,2024 10 17,09:01:41.395,0.628653,0.122773,-0.684382,0.348343,-1.098666,1.101108,-0.929716,275.146484,130.310059,247.619629,0,0
12170,2024 10 17,09:01:41.404,0.625765,0.156421,-0.67993,0.348777,-1.09476,1.086459,-0.897488,262.573242,129.02832,248.291016,0,0
12171,2024 10 17,09:01:41.412,0.622338,0.18911,-0.675287,0.347736,-1.110874,1.019562,-0.917508,245.056152,131.286621,249.755859,0,0
12172,2024 10 17,09:01:41.420,0.622338,0.18911,-0.675287,0.347736,-1.110874,1.019562,-0.917508,245.056152,131.286621,249.755859,0,0
12173,2024 10 17,09:01:41.429,0.618184,0.220889,-0.670642,0.345391,-1.198279,1.020051,-0.792993,230.46875,136.71875,249.755859,0,0
12174,2024 10 17,09:01:41.437,0.613437,0.251653,-0.666108,0.341564,-1.333048,0.912625,-0.818873,215.820313,140.380859,249.755859,0,0
12175,2024 10 17,09:01:41.445,0.608505,0.281452,-0.661101,0.336826,-1.42143,0.801294,-0.767113,204.284668,136.84082,250.549316,0,0
12176,2024 10 17,09:01:41.454,0.60332,0.310528,-0.655565,0.331378,-1.582568,0.688498,-0.810083,197.875977,133.483887,251.464844,0,0
12177,2024 10 17,09:01:41.462,0.598246,0.338805,-0.648932,0.325882,-1.6021,0.55324,-0.842799,197.387695,121.276855,250.915527,0,0
12178,2024 10 17,09:01:41.470,0.598246,0.338805,-0.648932,0.325882,-1.6021,0.55324,-0.842799,197.387695,121.276855,250.915527,0,0
12179,2024 10 17,09:01:41.479,0.592883,0.366827,-0.64127,0.320469,-1.638234,0.465346,-0.943388,203.00293,118.164063,253.234863,0,0
12180,2024 10 17,09:01:41.487,0.587006,0.39488,-0.632571,0.315195,-1.763726,0.310556,-1.078646,210.998535,113.891602,255.554199,0,0
12181,2024 10 17,09:01:41.495,0.580787,0.422737,-0.622486,0.31063,-1.937559,0.034181,-1.212439,222.473145,102.172852,255.187988,0,0
12182,2024 10 17,09:01:41.504,0.574334,0.450267,-0.610446,0.307824,-1.963927,-0.272958,-1.268593,243.469238,79.467773,250.488281,0,0
12183,2024 10 17,09:01:41.512,0.567411,0.47739,-0.596387,0.307353,-2.2154,-0.65334,-1.333537,267.028809,56.57959,242.980957,0,0
12184,2024 10 17,09:01:41.520,0.567411,0.47739,-0.596387,0.307353,-2.2154,-0.65334,-1.333537,267.028809,56.57959,242.980957,0,0
12185,2024 10 17,09:01:41.529,0.560773,0.503415,-0.579523,0.310257,-2.292062,-0.849147,-1.291055,290.95459,4.150391,229.614258,0,0
12186,2024 10 17,09:01:41.537,0.555137,0.526662,-0.560156,0.317295,-1.633839,-0.94583,-1.253945,300.354004,-43.518066,200.195313,0,0
12187,2024 10 17,09:01:41.545,0.547967,0.547862,-0.54214,0.32506,-1.541063,-0.89114,-1.437056,289.123535,-24.963379,168.395996,0,0
12188,2024 10 17,09:01:41.554,0.540849,0.565598,-0.526563,0.332134,-1.432173,-0.816431,-1.626026,247.192383,-21.850586,135.131836,0,0
12189,2024 10 17,09:01:41.562,0.535529,0.578529,-0.514379,0.337531,-1.294473,-1.017121,-1.947813,177.124023,-18.066406,101.379395,0,0
12190,2024 10 17,09:01:41.570,0.532207,0.586805,-0.50611,0.340982,-1.344768,-1.208045,-1.917051,177.124023,-18.066406,101.379395,0,0
12191,2024 10 17,09:01:41.579,0.532207,0.586805,-0.50611,0.340982,-1.344768,-1.208045,-1.917051,109.25293,-7.629395,69.030762,0,0
12192,2024 10 17,09:01:41.587,0.531082,0.59049,-0.501538,0.343123,-1.454634,-1.423383,-1.849666,47.363281,-13.427734,34.240723,0,0
12193,2024 10 17,09:01:41.595,0.532008,0.589855,-0.499611,0.345583,-1.351115,-1.497116,-1.744682,3.356934,-28.930664,-0.671387,0,0
12194,2024 10 17,09:01:41.604,0.53426,0.586105,-0.499407,0.34877,-1.281777,-1.346721,-1.543504,-24.108887,-44.494629,-26.916504,0,0
12195,2024 10 17,09:01:41.612,0.537836,0.579988,-0.499998,0.352631,-1.101108,-1.065462,-1.327677,-46.264648,-63.232422,-43.518066,0,0
12196,2024 10 17,09:01:41.620,0.52855,0.580037,-0.503409,0.361623,-0.872585,2.748131,-0.164068,232.299805,90.454102,-156.188965,1,0
12197,2024 10 17,09:01:41.629,0.52855,0.580037,-0.503409,0.361623,-0.872585,2.748131,-0.164068,232.299805,90.454102,-156.188965,0,0
12198,2024 10 17,09:01:41.637,0.534397,0.568514,-0.503821,0.370644,0.106937,-1.267128,1.863338,-143.127441,-152.770996,-94.238281,0,0
12199,2024 10 17,09:01:41.645,0.523904,0.569365,-0.506906,0.379993,-2.824305,1.733451,1.460494,136.291504,39.0625,-112.609863,0,0
12200,2024 10 17,09:01:41.654,0.5299,0.557011,-0.504858,0.39251,-0.635762,-0.008789,-0.185553,-68.237305,-239.807129,-114.013672,0,0
12201,2024 10 17,09:01:41.662,0.535851,0.544956,-0.504995,0.401082,-0.790063,-0.236824,-1.723685,-72.32666,-106.323242,-83.679199,0,0
12202,2024 10 17,09:01:41.670,0.543427,0.533895,-0.503761,0.407269,-0.789575,-0.036134,-0.388195,-55.297852,-140.869141,-51.940918,0,0
12203,2024 10 17,09:01:41.679,0.543427,0.533895,-0.503761,0.407269,-0.789575,-0.036134,-0.388195,-55.297852,-140.869141,-51.940918,0,0
12204,2024 10 17,09:01:41.687,0.54836,0.525788,-0.501732,0.413659,-1.011261,0.328135,0.024415,-34.851074,-109.49707,-52.001953,0,0
12205,2024 10 17,09:01:41.695,0.553212,0.517424,-0.500618,0.419059,-0.917997,0.274911,0.162114,-55.908203,-106.018066,-52.185059,0,0
12206,2024 10 17,09:01:41.704,0.558667,0.50863,-0.500392,0.42284,-0.87405,0.01709,-0.123051,-61.523438,-95.397949,-45.10498,0,0
12207,2024 10 17,09:01:41.712,0.563148,0.50131,-0.499238,0.426982,-0.787622,-0.002441,-0.225593,-36.92627,-89.355469,-37.29248,0,0
12208,2024 10 17,09:01:41.720,0.566866,0.49575,-0.497477,0.430595,-0.935087,0.069338,-0.041993,-23.376465,-75.927734,-22.766113,0,0
12209,2024 10 17,09:01:41.729,0.566866,0.49575,-0.497477,0.430595,-0.935087,0.069338,-0.041993,-23.376465,-75.927734,-22.766113,0,0
12210,2024 10 17,09:01:41.737,0.56967,0.491569,-0.495603,0.433836,-0.971221,0.190924,0.069338,-14.770508,-64.941406,-20.568848,0,0
12211,2024 10 17,09:01:41.745,0.571667,0.487971,-0.494029,0.437055,-0.886746,0.170415,-0.121586,-6.835938,-55.541992,-23.31543,0,0
12212,2024 10 17,09:01:41.754,0.573252,0.484921,-0.492663,0.439906,-0.848659,0.165044,-0.127934,-5.371094,-45.349121,-19.40918,0,0
12213,2024 10 17,09:01:41.762,0.574518,0.482497,-0.49174,0.441948,-0.893582,0.170904,-0.090335,-7.446289,-33.996582,-14.953613,0,0
12214,2024 10 17,09:01:41.770,0.575552,0.480455,-0.491174,0.443453,-0.90286,0.165044,-0.059572,-8.117676,-25.878906,-12.756348,0,0
12215,2024 10 17,09:01:41.779,0.575552,0.480455,-0.491174,0.443453,-0.90286,0.165044,-0.059572,-8.117676,-25.878906,-12.756348,0,0
12216,2024 10 17,09:01:41.787,0.576284,0.478821,-0.490877,0.444597,-0.93704,0.169927,-0.046876,-5.92041,-19.165039,-11.413574,0,0
12217,2024 10 17,09:01:41.795,0.576738,0.477488,-0.490638,0.445705,-0.937529,0.170415,-0.044435,-3.051758,-16.113281,-11.413574,0,0
12218,2024 10 17,09:01:41.804,0.576932,0.476432,-0.490455,0.446784,-0.941923,0.177252,-0.055177,-0.549316,-12.878418,-11.413574,0,0
12219,2024 10 17,09:01:41.812,0.576982,0.475521,-0.490328,0.447828,-0.925321,0.165532,-0.073733,0.183105,-11.047363,-11.291504,0,0
12220,2024 10 17,09:01:41.820,0.576898,0.474782,-0.490292,0.448759,-0.909696,0.175787,-0.094729,0.915527,-7.568359,-10.620117,0,0
12221,2024 10 17,09:01:41.829,0.576898,0.474782,-0.490292,0.448759,-0.909696,0.175787,-0.094729,0.915527,-7.568359,-10.620117,0,0
12222,2024 10 17,09:01:41.837,0.576678,0.474232,-0.490399,0.449505,-0.925321,0.182134,-0.073244,1.220703,-3.78418,-10.070801,0,0
12223,2024 10 17,09:01:41.845,0.576352,0.473759,-0.490696,0.450099,-0.938505,0.186529,-0.070315,0.0,-1.342773,-10.253906,0,0
12224,2024 10 17,09:01:41.854,0.576019,0.473235,-0.491139,0.450593,-0.954619,0.17481,-0.063967,-1.89209,-0.366211,-10.925293,0,0
12225,2024 10 17,09:01:41.862,0.575673,0.472662,-0.49158,0.451153,-0.963408,0.178228,-0.037111,-0.976563,-1.464844,-11.59668,0,0
12226,2024 10 17,09:01:41.870,0.575373,0.471993,-0.491964,0.451818,-0.9429,0.181158,-0.06592,-1.098633,-3.295898,-12.390137,0,0
12227,2024 10 17,09:01:41.879,0.575373,0.471993,-0.491964,0.451818,-0.9429,0.181158,-0.06592,-1.098633,-3.295898,-12.390137,0,0
12228,2024 10 17,09:01:41.887,0.575108,0.471236,-0.492386,0.452485,-0.923856,0.166997,-0.081057,-2.197266,-2.868652,-12.878418,0,0
12229,2024 10 17,09:01:41.895,0.57481,0.470491,-0.492896,0.453083,-0.91702,0.165532,-0.067873,-2.624512,-1.281738,-12.756348,0,0
12230,2024 10 17,09:01:41.904,0.574475,0.46979,-0.493514,0.453564,-0.928739,0.152348,-0.076662,-3.540039,0.061035,-12.512207,0,0
12231,2024 10 17,09:01:41.912,0.574079,0.469152,-0.494131,0.454053,-0.934111,0.150884,-0.054689,-2.380371,0.488281,-12.634277,0,0
12232,2024 10 17,09:01:41.920,0.573677,0.468498,-0.494669,0.454651,-0.959014,0.165044,-0.035157,-0.976563,-1.403809,-13.061523,0,0
12233,2024 10 17,09:01:41.929,0.573677,0.468498,-0.494669,0.454651,-0.959014,0.165044,-0.035157,-0.976563,-1.403809,-13.061523,0,0
12234,2024 10 17,09:01:41.937,0.573306,0.467743,-0.495139,0.455384,-0.972198,0.166021,-0.062502,-1.342773,-3.295898,-14.282227,0,0
12235,2024 10 17,09:01:41.945,0.573048,0.46677,-0.49552,0.456291,-0.960479,0.156743,-0.0459,-2.075195,-6.774902,-15.625,0,0
12236,2024 10 17,09:01:41.954,0.572862,0.465652,-0.495841,0.457318,-0.936064,0.143071,-0.076174,-2.13623,-8.666992,-16.113281,0,0
12237,2024 10 17,09:01:41.962,0.572655,0.464551,-0.496132,0.458379,-0.925321,0.138676,-0.084964,-1.89209,-7.995605,-16.235352,0,0
12238,2024 10 17,09:01:41.970,0.572443,0.463491,-0.496419,0.459405,-0.931181,0.13477,-0.050295,-0.732422,-7.873535,-15.625,0,0
12239,2024 10 17,09:01:41.979,0.572209,0.462517,-0.496645,0.460432,-0.928739,0.113773,-0.07178,-0.244141,-7.873535,-14.770508,0,0
12240,2024 10 17,09:01:41.987,0.572209,0.462517,-0.496645,0.460432,-0.928739,0.113773,-0.07178,-0.244141,-7.873535,-14.770508,0,0
12241,2024 10 17,09:01:41.995,0.571905,0.461697,-0.496724,0.461547,-0.93997,0.121097,-0.049318,3.051758,-8.178711,-13.977051,0,0
12242,2024 10 17,09:01:42.004,0.571644,0.460932,-0.496608,0.462758,-0.958525,0.117191,-0.055177,3.90625,-10.742188,-13.061523,0,0
12243,2024 10 17,09:01:42.012,0.57146,0.460156,-0.496258,0.464131,-0.954619,0.142094,-0.064943,5.371094,-13.305664,-12.756348,0,0
12244,2024 10 17,09:01:42.020,0.571347,0.459305,-0.495838,0.465559,-0.949248,0.127934,-0.061525,5.371094,-14.526367,-13.061523,0,0
12245,2024 10 17,09:01:42.029,0.571334,0.458395,-0.49533,0.467011,-0.944365,0.126957,-0.096194,4.577637,-16.174316,-11.962891,0,0
12246,2024 10 17,09:01:42.037,0.571334,0.458395,-0.49533,0.467011,-0.944365,0.126957,-0.096194,4.577637,-16.174316,-11.962891,0,0
12247,2024 10 17,09:01:42.045,0.571324,0.457491,-0.494802,0.468467,-0.953154,0.127445,-0.06299,4.821777,-15.991211,-12.268066,0,0
12248,2024 10 17,09:01:42.054,0.571358,0.456539,-0.494237,0.469948,-0.938505,0.124027,-0.091311,5.004883,-17.089844,-12.512207,0,0
12249,2024 10 17,09:01:42.062,0.571441,0.455557,-0.493625,0.471441,-0.953642,0.131352,-0.080081,5.004883,-17.578125,-12.084961,0,0
12250,2024 10 17,09:01:42.070,0.571497,0.454566,-0.493029,0.472953,-0.963897,0.129887,-0.103519,4.455566,-17.700195,-12.634277,0,0
12251,2024 10 17,09:01:42.079,0.571513,0.453508,-0.492439,0.47456,-0.966826,0.146977,-0.066897,5.249023,-18.066406,-14.099121,0,0
12252,2024 10 17,09:01:42.087,0.571513,0.453508,-0.492439,0.47456,-0.966826,0.146977,-0.066897,5.249023,-18.066406,-14.099121,0,0
12253,2024 10 17,09:01:42.095,0.57146,0.452377,-0.492015,0.47614,-0.93704,0.13184,-0.125492,4.02832,-16.418457,-15.869141,0,0
12254,2024 10 17,09:01:42.104,0.571161,0.4513,-0.491804,0.477737,-0.940947,0.124027,-0.139653,4.333496,-12.756348,-18.066406,0,0
12255,2024 10 17,09:01:42.112,0.570484,0.450364,-0.491927,0.4793,-0.94583,0.0918,-0.150884,3.662109,-6.958008,-21.42334,0,0
12256,2024 10 17,09:01:42.120,0.569574,0.449341,-0.492311,0.480945,-0.959502,0.143071,-0.110843,4.211426,-5.79834,-24.353027,0,0
12257,2024 10 17,09:01:42.129,0.56835,0.448322,-0.493143,0.482489,-0.966338,0.146001,-0.133793,4.150391,0.732422,-28.747559,0,0
12258,2024 10 17,09:01:42.137,0.56835,0.448322,-0.493143,0.482489,-0.966338,0.146001,-0.133793,4.150391,0.732422,-28.747559,0,0
12259,2024 10 17,09:01:42.145,0.566837,0.447265,-0.494313,0.48405,-1.015656,0.165532,-0.090823,3.295898,2.990723,-31.982422,0,0
12260,2024 10 17,09:01:42.154,0.565069,0.446007,-0.495842,0.485712,-1.075228,0.144536,-0.086917,2.197266,5.187988,-38.330078,0,0
12261,2024 10 17,09:01:42.162,0.56278,0.444577,-0.497673,0.487803,-1.117222,0.13477,-0.053713,3.845215,5.737305,-46.264648,0,0
12262,2024 10 17,09:01:42.170,0.560111,0.44277,-0.499659,0.490481,-1.233924,0.176275,-0.035646,6.958008,3.662109,-55.969238,0,0
12263,2024 10 17,09:01:42.179,0.556794,0.440499,-0.501913,0.493988,-1.296915,0.214362,-0.11182,9.887695,0.610352,-70.617676,0,0
12264,2024 10 17,09:01:42.187,0.556794,0.440499,-0.501913,0.493988,-1.296915,0.214362,-0.11182,9.887695,0.610352,-70.617676,0,0
12265,2024 10 17,09:01:42.195,0.553198,0.437156,-0.504351,0.498495,-1.250526,0.208502,-0.086428,9.033203,-5.92041,-85.876465,0,0
12266,2024 10 17,09:01:42.204,0.549102,0.433106,-0.507307,0.503534,-1.195349,0.177252,-0.08301,5.432129,-7.568359,-97.351074,0,0
12267,2024 10 17,09:01:42.212,0.544754,0.428244,-0.51074,0.508915,-1.216834,0.19776,-0.136723,2.075195,-6.896973,-108.764648,0,0
12268,2024 10 17,09:01:42.220,0.53991,0.422621,-0.514752,0.514703,-1.20658,0.201178,-0.093753,-2.197266,-8.789063,-121.398926,0,0
12269,2024 10 17,09:01:42.229,0.534656,0.416207,-0.519431,0.520679,-1.230018,0.185064,-0.083987,-7.873535,-5.371094,-133.178711,0,0
12270,2024 10 17,09:01:42.237,0.534656,0.416207,-0.519431,0.520679,-1.230018,0.185064,-0.083987,-7.873535,-5.371094,-133.178711,0,0
12271,2024 10 17,09:01:42.245,0.528844,0.408852,-0.524798,0.527021,-1.367718,0.250008,-0.056154,-13.549805,-8.666992,-148.803711,0,0
12272,2024 10 17,09:01:42.254,0.522624,0.40003,-0.530875,0.533866,-1.459029,0.283212,-0.107913,-22.949219,-13.244629,-168.029785,0,0
12273,2024 10 17,09:01:42.262,0.515504,0.389469,-0.537688,0.54172,-1.615284,0.334971,-0.086917,-22.644043,-15.808105,-196.899414,0,0
12274,2024 10 17,09:01:42.270,0.50641,0.377507,-0.545388,0.55099,-1.795953,0.376965,-0.094729,-22.766113,-15.808105,-231.750488,0,0
12275,2024 10 17,09:01:42.279,0.495394,0.363236,-0.553803,0.562091,-1.981506,0.504898,-0.147954,-17.272949,-22.033691,-275.20752,0,0
12276,2024 10 17,09:01:42.287,0.495394,0.363236,-0.553803,0.562091,-1.981506,0.504898,-0.147954,-17.272949,-22.033691,-275.20752,0,0
12277,2024 10 17,09:01:42.295,0.481849,0.346436,-0.562925,0.575256,-2.268136,0.621113,-0.212409,-14.526367,-27.282715,-325.439453,0,0
12278,2024 10 17,09:01:42.304,0.465475,0.326384,-0.573148,0.590176,-2.60213,0.651875,-0.216803,-17.578125,-30.334473,-382.141113,0,0
12279,2024 10 17,09:01:42.312,0.446153,0.302577,-0.584511,0.606417,-2.60213,0.544939,-0.353038,-31.433105,-37.29248,-438.781738,0,0
12280,2024 10 17,09:01:42.320,0.424882,0.274844,-0.597054,0.622465,-2.542558,0.207038,-0.371593,-54.199219,-39.978027,-476.074219,0,0
12281,2024 10 17,09:01:42.329,0.401126,0.24578,-0.610109,0.63754,-2.741783,-0.307138,-0.288583,-59.265137,-25.756836,-493.103027,0,0
12282,2024 10 17,09:01:42.337,0.401126,0.24578,-0.610109,0.63754,-2.741783,-0.307138,-0.288583,-59.265137,-25.756836,-493.103027,0,0
12283,2024 10 17,09:01:42.345,0.376181,0.216455,-0.62121,0.652482,-2.383373,-0.236335,0.032228,-36.865234,-37.719727,-493.896484,0,1
12284,2024 10 17,09:01:42.354,0.351191,0.18767,-0.63034,0.66642,-2.760338,-0.203131,0.027345,-26.062012,-32.287598,-480.285645,0,0
12285,2024 10 17,09:01:42.362,0.326677,0.158777,-0.636727,0.680184,-2.142643,0.275399,0.483413,-7.629395,-54.992676,-472.961426,0,0
12286,2024 10 17,09:01:42.370,0.301189,0.131347,-0.641477,0.69321,-1.826716,0.667013,0.404797,7.93457,-30.090332,-464.96582,0,0
12287,2024 10 17,09:01:42.379,0.273342,0.105821,-0.644686,0.706021,-1.350627,1.016633,0.582537,30.273438,0.183105,-469.482422,0,0
12288,2024 10 17,09:01:42.387,0.241846,0.084162,-0.646259,0.718871,-0.971709,1.072298,0.991241,62.133789,62.011719,-462.341309,0,0
12289,2024 10 17,09:01:42.395,0.241846,0.084162,-0.646259,0.718871,-0.971709,1.072298,0.991241,62.133789,62.011719,-462.341309,0,0
12290,2024 10 17,09:01:42.404,0.206564,0.068289,-0.645748,0.7319,-0.822291,0.638691,0.972198,109.558105,129.760742,-448.364258,0,0
12291,2024 10 17,09:01:42.412,0.171944,0.058112,-0.639597,0.746977,1.042024,0.013184,0.947783,186.401367,132.93457,-360.839844,0,0
12292,2024 10 17,09:01:42.420,0.158676,0.057695,-0.628775,0.759035,1.489792,2.518143,1.790094,186.218262,57.739258,-46.081543,0,0
12293,2024 10 17,09:01:42.429,0.158465,0.079389,-0.622626,0.762183,-1.058626,1.390179,-0.749535,123.413086,200.561523,192.871094,0,0
12294,2024 10 17,09:01:42.437,0.169469,0.102705,-0.613352,0.764547,-1.053743,1.432661,0.649922,102.416992,72.937012,277.160645,0,0
12295,2024 10 17,09:01:42.445,0.169469,0.102705,-0.613352,0.764547,-1.053743,1.432661,0.649922,102.416992,72.937012,277.160645,0,0
12296,2024 10 17,09:01:42.454,0.185643,0.125046,-0.606106,0.76324,-0.474136,1.24662,0.167974,78.369141,73.669434,306.945801,0,0
12297,2024 10 17,09:01:42.462,0.201698,0.146985,-0.600443,0.759725,-0.181646,0.956084,0.252937,41.07666,74.157715,299.865723,0,0
12298,2024 10 17,09:01:42.470,0.213815,0.169794,-0.596744,0.754552,-0.400891,0.919462,-0.007324,24.169922,128.845215,268.920898,0,0
12299,2024 10 17,09:01:42.479,0.222353,0.192667,-0.594832,0.748073,-0.625507,0.955107,0.024903,6.103516,151.977539,238.15918,0,0
12300,2024 10 17,09:01:42.487,0.229146,0.215101,-0.594414,0.7402,-0.887234,0.987823,-0.169439,-14.587402,162.04834,223.999023,0,0
12301,2024 10 17,09:01:42.495,0.229146,0.215101,-0.594414,0.7402,-0.887234,0.987823,-0.169439,-14.587402,162.04834,223.999023,0,0
12302,2024 10 17,09:01:42.504,0.23742,0.23576,-0.594663,0.731043,-1.019562,0.946806,-0.19483,-38.452148,133.239746,229.858398,0,0
12303,2024 10 17,09:01:42.512,0.249035,0.254572,-0.594791,0.720693,-0.971221,0.777856,-0.189459,-57.983398,97.839355,252.563477,0,0
12304,2024 10 17,09:01:42.520,0.263987,0.272625,-0.593991,0.709339,-0.76516,0.569353,-0.147954,-65.307617,73.608398,282.714844,0,0
12305,2024 10 17,09:01:42.529,0.280272,0.292061,-0.591808,0.697074,-0.65627,0.381848,-0.144536,-55.297852,83.068848,310.668945,0,0
12306,2024 10 17,09:01:42.537,0.296118,0.314166,-0.587929,0.68407,-0.718772,0.303232,-0.107913,-34.240723,106.567383,332.580566,0,0
12307,2024 10 17,09:01:42.545,0.296118,0.314166,-0.587929,0.68407,-0.718772,0.303232,-0.107913,-34.240723,106.567383,332.580566,0,0
12308,2024 10 17,09:01:42.554,0.310637,0.338732,-0.582276,0.670611,-0.964873,0.292489,-0.197272,-9.765625,128.78418,343.811035,0,0
12309,2024 10 17,09:01:42.562,0.323984,0.364255,-0.57473,0.657296,-1.237342,0.294443,-0.30958,12.878418,132.019043,345.031738,0,0
12310,2024 10 17,09:01:42.570,0.33668,0.389318,-0.565238,0.644658,-1.400922,0.28956,-0.329112,31.555176,120.422363,341.491699,0,0
12311,2024 10 17,09:01:42.579,0.349,0.413459,-0.553885,0.632821,-1.470748,0.361339,-0.500504,46.142578,103.820801,339.050293,0,0
12312,2024 10 17,09:01:42.587,0.36156,0.436714,-0.540975,0.621209,-1.483444,0.416028,-0.600116,53.588867,92.712402,342.773438,0,0
12313,2024 10 17,09:01:42.595,0.36156,0.436714,-0.540975,0.621209,-1.483444,0.416028,-0.600116,53.588867,92.712402,342.773438,0,0
12314,2024 10 17,09:01:42.604,0.374439,0.459625,-0.52683,0.609089,-1.501999,0.489273,-0.665548,54.504395,87.036133,352.722168,0,0
12315,2024 10 17,09:01:42.612,0.387881,0.482288,-0.511804,0.595821,-1.61919,0.519547,-0.728538,47.851563,85.693359,364.807129,0,0
12316,2024 10 17,09:01:42.620,0.40203,0.504248,-0.496182,0.5813,-1.794977,0.517594,-0.735374,36.865234,79.956055,373.535156,0,0
12317,2024 10 17,09:01:42.629,0.416947,0.524891,-0.480174,0.565754,-1.973693,0.468276,-0.682638,22.766113,69.946289,377.502441,0,0
12318,2024 10 17,09:01:42.637,0.432624,0.54376,-0.463894,0.549513,-2.107975,0.279794,-0.604511,8.422852,56.518555,377.990723,0,0
12319,2024 10 17,09:01:42.645,0.432624,0.54376,-0.463894,0.549513,-2.107975,0.279794,-0.604511,8.422852,56.518555,377.990723,0,0
12320,2024 10 17,09:01:42.654,0.448678,0.561113,-0.447328,0.53267,-2.278878,0.068361,-0.434095,-1.77002,48.400879,379.02832,0,0
12321,2024 10 17,09:01:42.662,0.464961,0.576884,-0.430461,0.515479,-2.415113,-0.194342,-0.345714,-10.986328,36.071777,376.77002,0,0
12322,2024 10 17,09:01:42.670,0.481181,0.590721,-0.413415,0.4986,-2.457595,-0.459487,-0.192877,-17.51709,21.54541,366.821289,0,0
12323,2024 10 17,09:01:42.679,0.496688,0.603104,-0.396535,0.482003,-2.398999,-0.651875,-0.104495,-18.920898,17.944336,355.59082,0,0
12324,2024 10 17,09:01:42.687,0.511212,0.614854,-0.38008,0.464926,-2.393139,-0.853542,-0.08301,-20.996094,27.404785,350.219727,0,0
12325,2024 10 17,09:01:42.695,0.511212,0.614854,-0.38008,0.464926,-2.393139,-0.853542,-0.08301,-20.996094,27.404785,350.219727,0,0
12326,2024 10 17,09:01:42.704,0.524743,0.626026,-0.364479,0.447091,-2.462477,-1.156285,-0.118168,-26.184082,38.574219,340.637207,0,0
12327,2024 10 17,09:01:42.712,0.537123,0.63571,-0.350542,0.429524,-2.4073,-1.542528,-0.189947,-35.27832,42.114258,311.889648,0,0
12328,2024 10 17,09:01:42.720,0.547889,0.643156,-0.339439,0.413459,-2.131901,-2.000549,-0.239265,-44.799805,45.227051,262.634277,0,0
12329,2024 10 17,09:01:42.729,0.556396,0.648559,-0.332119,0.399364,-1.909726,-2.467849,-0.482437,-49.255371,54.931641,204.162598,0,0
12330,2024 10 17,09:01:42.737,0.562534,0.652152,-0.328136,0.388047,-1.89996,-3.025971,-0.897488,-45.166016,54.626465,146.911621,0,0
12331,2024 10 17,09:01:42.745,0.562534,0.652152,-0.328136,0.388047,-1.89996,-3.025971,-0.897488,-45.166016,54.626465,146.911621,0,0
12332,2024 10 17,09:01:42.754,0.565221,0.654472,-0.327219,0.380944,-2.159245,-3.616321,-1.431684,-20.141602,52.001953,73.730469,0,0
12333,2024 10 17,09:01:42.762,0.564455,0.654896,-0.327558,0.381061,-2.339427,-3.672964,-1.268105,15.014648,6.469727,-2.197266,0,0
12334,2024 10 17,09:01:42.770,0.559173,0.65395,-0.329796,0.388471,-2.333567,-3.418561,-1.070833,65.734863,-31.677246,-89.84375,0,0
12335,2024 10 17,09:01:42.779,0.550413,0.650852,-0.332945,0.403217,-1.744194,-3.10654,-0.795434,96.008301,-72.875977,-165.344238,0,0
12336,2024 10 17,09:01:42.787,0.538953,0.645455,-0.338181,0.422554,-0.948271,-2.926847,-1.104038,101.318359,-90.698242,-233.337402,0,0
12337,2024 10 17,09:01:42.795,0.523161,0.64058,-0.344219,0.444379,-0.340342,0.319834,1.057649,176.635742,-75.439453,-265.563965,1,0
12338,2024 10 17,09:01:42.804,0.523161,0.64058,-0.344219,0.444379,-0.340342,0.319834,1.057649,176.635742,-75.439453,-265.563965,0,0
12339,2024 10 17,09:01:42.812,0.505114,0.639723,-0.353833,0.458712,-1.440474,2.131413,-0.232429,99.853516,38.085938,-246.032715,0,0
12340,2024 10 17,09:01:42.820,0.494075,0.634619,-0.36612,0.468087,-1.871151,0.396985,1.651906,14.343262,14.709473,-226.196289,0,0
12341,2024 10 17,09:01:42.829,0.485655,0.626309,-0.37888,0.477835,-2.254952,0.462905,0.30665,-32.470703,-42.175293,-225.097656,0,0
12342,2024 10 17,09:01:42.837,0.488234,0.608119,-0.386776,0.492162,-1.144566,-0.08887,0.357433,-124.084473,-193.603516,-190.429688,0,0
12343,2024 10 17,09:01:42.845,0.490384,0.594498,-0.394789,0.500238,-1.675344,-0.444838,-0.851589,-73.547363,-72.265625,-132.446289,0,0
