frame,date,time,quaternion_x,quaternion_y,quaternion_z,quaternion_w,accel_x,accel_y,accel_z,gyro_x,gyro_y,gyro_z,HS,TO
11437,2024 10 17,09:01:35.296,-0.77092,-0.349133,0.510354,-0.152732,-1.393109,0.051759,-0.027345,-17.211914,-184.082031,283.691406,0,0
11438,2024 10 17,09:01:35.304,-0.759148,-0.337245,0.531645,-0.165268,-1.522019,0.095706,0.058107,-23.193359,-183.776855,283.14209,0,0
11439,2024 10 17,09:01:35.312,-0.746973,-0.324632,0.552285,-0.17784,-1.596728,0.12891,0.116703,-25.634766,-178.527832,286.987305,0,0
11440,2024 10 17,09:01:35.321,-0.734498,-0.31128,0.572044,-0.190741,-1.658254,0.106937,0.121097,-26.916504,-170.10498,292.053223,0,0
11441,2024 10 17,09:01:35.329,-0.721675,-0.297252,0.591031,-0.203735,-1.718314,0.078127,0.112308,-29.11377,-165.100098,295.227051,0,0
11442,2024 10 17,09:01:35.337,-0.721675,-0.297252,0.591031,-0.203735,-1.718314,0.078127,0.112308,-29.11377,-165.100098,295.227051,0,0
11443,2024 10 17,09:01:35.346,-0.708472,-0.282706,0.60932,-0.216503,-1.805719,0.065432,0.098148,-32.043457,-162.414551,294.98291,0,0
11444,2024 10 17,09:01:35.354,-0.694881,-0.267886,0.626924,-0.228788,-1.901425,0.037111,0.104495,-34.667969,-160.461426,291.503906,0,0
11445,2024 10 17,09:01:35.362,-0.680975,-0.252959,0.643755,-0.240548,-1.956603,0.012207,0.1377,-36.071777,-158.14209,287.17041,0,0
11446,2024 10 17,09:01:35.371,-0.666781,-0.237991,0.659745,-0.251995,-1.981506,-0.034669,0.151372,-34.973145,-154.785156,284.423828,0,0
11447,2024 10 17,09:01:35.379,-0.652307,-0.22308,0.674823,-0.263335,-2.027894,-0.125004,0.14893,-31.25,-150.268555,282.287598,0,0
11448,2024 10 17,09:01:35.387,-0.637645,-0.208502,0.688901,-0.2745,-2.091861,-0.255867,0.104984,-26.550293,-146.179199,276.367188,0,0
11449,2024 10 17,09:01:35.396,-0.637645,-0.208502,0.688901,-0.2745,-2.091861,-0.255867,0.104984,-26.550293,-146.179199,276.367188,0,0
11450,2024 10 17,09:01:35.404,-0.622936,-0.194583,0.701956,-0.285212,-2.128483,-0.417005,0.088382,-22.216797,-142.089844,265.563965,0,0
11451,2024 10 17,09:01:35.412,-0.608337,-0.181603,0.713992,-0.295231,-2.117252,-0.665059,0.031251,-18.005371,-139.831543,251.159668,0,0
11452,2024 10 17,09:01:35.421,-0.5937,-0.169818,0.725368,-0.304177,-2.051332,-0.901395,0.044435,-16.113281,-143.066406,233.642578,0,0
11453,2024 10 17,09:01:35.429,-0.578813,-0.159581,0.736366,-0.311888,-1.921934,-1.101108,0.1377,-13.73291,-152.34375,213.439941,0,0
11454,2024 10 17,09:01:35.437,-0.563205,-0.15121,0.747365,-0.318406,-1.772027,-1.209021,0.365246,-9.521484,-170.288086,193.603516,0,0
11455,2024 10 17,09:01:35.446,-0.563205,-0.15121,0.747365,-0.318406,-1.772027,-1.209021,0.365246,-9.521484,-170.288086,193.603516,0,0
11456,2024 10 17,09:01:35.454,-0.546565,-0.144866,0.758471,-0.32404,-1.635792,-1.275918,0.668966,-1.89209,-190.246582,175.231934,0,0
11457,2024 10 17,09:01:35.462,-0.529282,-0.140852,0.76914,-0.329308,-1.66509,-1.431684,1.103549,13.671875,-200.134277,153.259277,0,0
11458,2024 10 17,09:01:35.471,-0.513213,-0.139182,0.777954,-0.334707,-1.799371,-1.79693,1.272012,34.912109,-183.166504,126.098633,0,0
11459,2024 10 17,09:01:35.479,-0.498201,-0.14015,0.78527,-0.339861,-2.190496,-2.274972,1.652394,50.964355,-178.894043,96.801758,0,0
11460,2024 10 17,09:01:35.487,-0.488522,-0.141577,0.788748,-0.345224,-2.241279,-2.688559,1.657765,59.448242,-88.134766,70.617676,0,0
11461,2024 10 17,09:01:35.496,-0.488522,-0.141577,0.788748,-0.345224,-2.241279,-2.688559,1.657765,59.448242,-88.134766,70.617676,0,0
11462,2024 10 17,09:01:35.504,-0.485961,-0.142234,0.787992,-0.350256,-1.860408,-2.869716,1.298868,55.664063,-9.155273,41.07666,0,0
11463,2024 10 17,09:01:35.512,-0.487068,-0.143493,0.785668,-0.353412,-1.631397,-2.735923,1.233436,40.344238,21.362305,6.591797,0,0
11464,2024 10 17,09:01:35.521,-0.491203,-0.145498,0.78217,-0.354626,-1.558153,-2.379467,1.082064,27.954102,48.461914,-25.268555,0,0
11465,2024 10 17,09:01:35.529,-0.497043,-0.148144,0.777995,-0.354578,-1.536668,-1.919004,1.013214,21.362305,60.48584,-44.311523,0,0
11466,2024 10 17,09:01:35.537,-0.501958,-0.153475,0.781311,-0.337693,-2.468825,0.900906,6.853725,-294.555664,-124.572754,-241.943359,0,0
11467,2024 10 17,09:01:35.546,-0.501958,-0.153475,0.781311,-0.337693,-2.468825,0.900906,6.853725,-294.555664,-124.572754,-241.943359,0,0
11468,2024 10 17,09:01:35.554,-0.528456,-0.157834,0.767753,-0.326157,-1.083529,-0.046388,-3.064059,-122.802734,405.151367,-212.036133,0,0
11469,2024 10 17,09:01:35.562,-0.554644,-0.159475,0.754963,-0.311398,0.297372,1.078158,-3.075778,-20.446777,138.183594,-216.61377,0,0
11470,2024 10 17,09:01:35.571,-0.557436,-0.175311,0.755929,-0.295132,-1.857479,1.272012,3.163183,-56.091309,-24.169922,-264.648438,1,0
11471,2024 10 17,09:01:35.579,-0.576599,-0.189176,0.740332,-0.289231,-0.718284,-0.30958,-1.16068,56.762695,203.552246,-253.90625,0,0
11472,2024 10 17,09:01:35.587,-0.582311,-0.207257,0.733124,-0.283705,-2.368236,-0.301279,1.373577,91.674805,1.464844,-207.641602,0,0
11473,2024 10 17,09:01:35.596,-0.582311,-0.207257,0.733124,-0.283705,-2.368236,-0.301279,1.373577,91.674805,1.464844,-207.641602,0,0
11474,2024 10 17,09:01:35.604,-0.595197,-0.217021,0.720198,-0.282768,-1.412153,-0.110355,-0.015625,57.739258,201.171875,-141.113281,0,0
11475,2024 10 17,09:01:35.612,-0.607155,-0.222969,0.708087,-0.283303,-1.059114,-0.059084,-0.259285,53.588867,132.629395,-105.34668,0,0
11476,2024 10 17,09:01:35.621,-0.614191,-0.229075,0.699222,-0.285276,-1.314493,0.018067,0.039064,79.528809,109.741211,-71.411133,0,0
11477,2024 10 17,09:01:35.629,-0.62115,-0.234067,0.689001,-0.290969,-1.063997,-0.173833,-0.213874,95.64209,125.12207,-43.09082,0,0
11478,2024 10 17,09:01:35.637,-0.627144,-0.23763,0.680369,-0.295501,-1.009796,-0.031251,0.024415,66.772461,105.407715,-36.743164,0,0
11479,2024 10 17,09:01:35.646,-0.627144,-0.23763,0.680369,-0.295501,-1.009796,-0.031251,0.024415,66.772461,105.407715,-36.743164,0,0
11480,2024 10 17,09:01:35.654,-0.632881,-0.240392,0.672113,-0.299897,-1.051302,0.096683,-0.12598,70.495605,107.727051,-28.686523,0,0
11481,2024 10 17,09:01:35.662,-0.637783,-0.243335,0.66368,-0.305857,-1.059603,-0.023438,-0.10889,85.510254,104.675293,-16.357422,0,0
11482,2024 10 17,09:01:35.671,-0.642137,-0.245682,0.655752,-0.311912,-0.882839,-0.096194,0.175298,73.608398,97.900391,-8.911133,0,0
11483,2024 10 17,09:01:35.679,-0.645764,-0.24713,0.649462,-0.31641,-0.889187,-0.007813,0.031251,52.062988,72.692871,-7.202148,0,0
11484,2024 10 17,09:01:35.687,-0.648061,-0.248429,0.645033,-0.319737,-0.992218,0.031251,0.066897,42.236328,50.476074,-5.004883,0,0
11485,2024 10 17,09:01:35.696,-0.648061,-0.248429,0.645033,-0.319737,-0.992218,0.031251,0.066897,42.236328,50.476074,-5.004883,0,0
11486,2024 10 17,09:01:35.704,-0.649989,-0.249499,0.641318,-0.322454,-0.984405,0.007813,0.019532,33.569336,44.189453,-5.187988,0,0
11487,2024 10 17,09:01:35.712,-0.65169,-0.250173,0.638429,-0.324226,-0.963897,0.032716,0.052736,19.897461,33.630371,-6.347656,0,0
11488,2024 10 17,09:01:35.721,-0.653033,-0.250705,0.636292,-0.325311,-0.969756,0.019044,0.059572,14.953613,25.512695,-6.713867,0,0
11489,2024 10 17,09:01:35.729,-0.654221,-0.251085,0.634761,-0.325621,-1.000519,0.090823,0.026856,5.79834,17.39502,-9.643555,0,0
11490,2024 10 17,09:01:35.737,-0.655217,-0.251579,0.633519,-0.325656,-1.013703,0.06592,0.043947,4.394531,14.953613,-11.169434,0,0
11491,2024 10 17,09:01:35.746,-0.655217,-0.251579,0.633519,-0.325656,-1.013703,0.06592,0.043947,4.394531,14.953613,-11.169434,0,0
11492,2024 10 17,09:01:35.754,-0.656244,-0.252047,0.632412,-0.325379,-1.020051,0.056642,0.018555,2.258301,12.390137,-12.878418,0,0
11493,2024 10 17,09:01:35.762,-0.657225,-0.252571,0.631434,-0.324891,-0.991241,0.029786,0.074221,1.220703,11.413574,-13.916016,0,0
11494,2024 10 17,09:01:35.771,-0.658216,-0.25298,0.630629,-0.324128,-0.993194,0.044435,0.04004,-2.868652,8.422852,-14.648438,0,0
11495,2024 10 17,09:01:35.779,-0.659084,-0.253343,0.630122,-0.323067,-1.010773,0.057619,0.039064,-6.774902,5.310059,-15.563965,0,0
11496,2024 10 17,09:01:35.787,-0.659942,-0.25367,0.629726,-0.321827,-1.012238,0.041993,0.032228,-8.117676,4.272461,-16.296387,0,0
11497,2024 10 17,09:01:35.796,-0.659942,-0.25367,0.629726,-0.321827,-1.012238,0.041993,0.032228,-8.117676,4.272461,-16.296387,0,0
11498,2024 10 17,09:01:35.804,-0.660772,-0.253982,0.629478,-0.320361,-1.010285,0.04297,0.030274,-10.009766,2.01416,-17.211914,0,0
11499,2024 10 17,09:01:35.812,-0.661564,-0.254293,0.629336,-0.318753,-1.00882,0.048341,0.039064,-11.230469,1.037598,-17.883301,0,0
11500,2024 10 17,09:01:35.821,-0.662349,-0.254643,0.629168,-0.317174,-1.006867,0.037599,0.039552,-10.009766,1.159668,-17.883301,0,0
11501,2024 10 17,09:01:35.829,-0.663133,-0.255037,0.628971,-0.315605,-0.995636,0.052248,0.051759,-9.70459,1.281738,-18.188477,0,0
11502,2024 10 17,09:01:35.837,-0.663904,-0.255494,0.628696,-0.314158,-0.994171,0.047365,0.060549,-7.873535,1.953125,-17.822266,0,0
11503,2024 10 17,09:01:35.846,-0.66465,-0.256054,0.628334,-0.312847,-0.997101,0.041505,0.054689,-5.554199,2.380371,-17.63916,0,0
11504,2024 10 17,09:01:35.854,-0.66465,-0.256054,0.628334,-0.312847,-0.997101,0.041505,0.054689,-5.554199,2.380371,-17.63916,0,0
11505,2024 10 17,09:01:35.862,-0.665369,-0.256726,0.627895,-0.311646,-0.998077,0.033692,0.064455,-3.173828,2.807617,-17.700195,0,0
11506,2024 10 17,09:01:35.871,-0.666082,-0.25744,0.627406,-0.31052,-0.953154,0.024415,0.087405,-2.746582,2.929688,-17.76123,0,0
11507,2024 10 17,09:01:35.879,-0.666696,-0.258175,0.627036,-0.309334,-0.970244,0.028809,0.084964,-3.479004,0.183105,-17.578125,0,0
11508,2024 10 17,09:01:35.887,-0.667208,-0.258975,0.62677,-0.308097,-0.984405,0.037599,0.090335,-3.417969,-1.159668,-17.883301,0,0
11509,2024 10 17,09:01:35.896,-0.667642,-0.259899,0.626506,-0.306916,-0.992218,0.021485,0.094729,-1.342773,-1.953125,-18.188477,0,0
11510,2024 10 17,09:01:35.904,-0.667642,-0.259899,0.626506,-0.306916,-0.992218,0.021485,0.094729,-1.342773,-1.953125,-18.188477,0,0
11511,2024 10 17,09:01:35.912,-0.6681,-0.26087,0.62615,-0.305818,-0.992218,0.030763,0.061037,0.0,-0.488281,-17.944336,0,0
11512,2024 10 17,09:01:35.921,-0.668441,-0.262004,0.6258,-0.304821,-1.00589,0.030274,0.113773,1.953125,-2.319336,-18.188477,0,0
11513,2024 10 17,09:01:35.929,-0.668844,-0.263213,0.625244,-0.304034,-1.012726,0.01709,0.079592,5.249023,1.464844,-17.63916,0,0
11514,2024 10 17,09:01:35.937,-0.66929,-0.264462,0.62456,-0.303374,-1.050813,0.028809,0.064455,6.835938,2.01416,-17.63916,0,0
11515,2024 10 17,09:01:35.946,-0.669817,-0.265825,0.623639,-0.302913,-1.043977,-0.004883,0.024415,9.58252,6.469727,-17.944336,0,0
11516,2024 10 17,09:01:35.954,-0.669817,-0.265825,0.623639,-0.302913,-1.043977,-0.004883,0.024415,9.58252,6.469727,-17.944336,0,0
11517,2024 10 17,09:01:35.962,-0.670536,-0.267158,0.622443,-0.302611,-1.022004,0.035157,0.08301,10.498047,8.605957,-17.944336,0,0
11518,2024 10 17,09:01:35.971,-0.671173,-0.268682,0.621192,-0.302419,-1.061556,0.061037,0.125492,12.634277,9.155273,-18.981934,0,0
11519,2024 10 17,09:01:35.979,-0.672061,-0.270332,0.619499,-0.302449,-1.070345,0.024415,0.028809,15.74707,14.526367,-20.629883,0,0
11520,2024 10 17,09:01:35.987,-0.673071,-0.272094,0.617708,-0.302288,-1.05179,0.025391,0.105472,15.625,14.282227,-23.803711,0,0
11521,2024 10 17,09:01:35.996,-0.67416,-0.274055,0.615881,-0.301817,-1.085971,0.018067,0.067873,13.73291,13.305664,-28.442383,0,0
11522,2024 10 17,09:01:36.004,-0.67416,-0.274055,0.615881,-0.301817,-1.085971,0.018067,0.067873,13.73291,13.305664,-28.442383,0,0
11523,2024 10 17,09:01:36.012,-0.675299,-0.276288,0.614116,-0.300828,-1.112339,0.010743,0.070803,13.305664,9.94873,-34.484863,0,0
11524,2024 10 17,09:01:36.021,-0.676473,-0.278861,0.612509,-0.299088,-1.153844,0.012207,0.070803,8.605957,5.92041,-42.785645,0,0
11525,2024 10 17,09:01:36.029,-0.677877,-0.28172,0.610851,-0.29661,-1.198279,0.02002,0.043947,4.455566,4.272461,-52.55127,0,0
11526,2024 10 17,09:01:36.037,-0.679557,-0.284831,0.609214,-0.293141,-1.22953,-0.014161,0.07178,-0.915527,3.417969,-62.316895,0,0
11527,2024 10 17,09:01:36.046,-0.681693,-0.288162,0.607304,-0.288857,-1.25248,-0.01709,0.030763,-6.286621,4.760742,-73.242188,0,0
11528,2024 10 17,09:01:36.054,-0.681693,-0.288162,0.607304,-0.288857,-1.25248,-0.01709,0.030763,-6.286621,4.760742,-73.242188,0,0
11529,2024 10 17,09:01:36.062,-0.684136,-0.291801,0.605261,-0.28367,-1.257851,0.014161,0.08887,-8.728027,4.333496,-83.068848,0,0
11530,2024 10 17,09:01:36.071,-0.686949,-0.295814,0.602614,-0.278303,-1.35551,0.051271,0.100101,-5.981445,10.986328,-90.515137,0,0
11531,2024 10 17,09:01:36.079,-0.690132,-0.300428,0.599354,-0.272463,-1.376019,0.066408,0.126469,-3.662109,14.343262,-103.149414,0,0
11532,2024 10 17,09:01:36.087,-0.693802,-0.305731,0.595268,-0.266127,-1.416059,0.092288,0.103519,-0.915527,20.935059,-116.394043,0,0
11533,2024 10 17,09:01:36.096,-0.697884,-0.31192,0.590204,-0.259467,-1.477096,0.088382,0.113773,5.615234,27.893066,-130.371094,0,0
11534,2024 10 17,09:01:36.104,-0.697884,-0.31192,0.590204,-0.259467,-1.477096,0.088382,0.113773,5.615234,27.893066,-130.371094,0,0
11535,2024 10 17,09:01:36.112,-0.702374,-0.319069,0.58429,-0.251935,-1.514206,0.106449,0.094729,8.728027,30.395508,-149.536133,0,0
11536,2024 10 17,09:01:36.121,-0.707232,-0.327333,0.577453,-0.243359,-1.574267,0.124516,0.06299,11.291504,32.836914,-171.081543,0,0
11537,2024 10 17,09:01:36.129,-0.711901,-0.337027,0.570454,-0.232792,-1.692434,0.169927,0.104007,11.962891,17.333984,-198.486328,0,0
11538,2024 10 17,09:01:36.137,-0.716641,-0.34821,0.562818,-0.220023,-1.868221,0.193854,0.051759,9.155273,17.211914,-230.407715,0,0
11539,2024 10 17,09:01:36.146,-0.722168,-0.360589,0.553512,-0.205117,-2.082095,0.265145,-0.023438,5.79834,23.254395,-266.967773,0,0
11540,2024 10 17,09:01:36.154,-0.722168,-0.360589,0.553512,-0.205117,-2.082095,0.265145,-0.023438,5.79834,23.254395,-266.967773,0,0
11541,2024 10 17,09:01:36.162,-0.728426,-0.374455,0.542162,-0.187723,-2.360912,0.404797,0.085452,6.347656,33.691406,-310.241699,0,0
11542,2024 10 17,09:01:36.171,-0.735707,-0.389961,0.527783,-0.16766,-2.617267,0.496597,0.039552,5.371094,50.598145,-361.083984,0,0
11543,2024 10 17,09:01:36.179,-0.743585,-0.407383,0.510128,-0.144535,-2.859462,0.602069,0.238777,7.141113,67.626953,-417.114258,0,0
11544,2024 10 17,09:01:36.187,-0.751963,-0.426598,0.488176,-0.11937,-2.902921,0.510758,0.560076,16.662598,93.688965,-465.148926,0,0
11545,2024 10 17,09:01:36.196,-0.759714,-0.447892,0.462142,-0.093016,-2.999603,0.201666,0.382336,38.208008,113.769531,-503.967285,0,0
11546,2024 10 17,09:01:36.204,-0.759714,-0.447892,0.462142,-0.093016,-2.999603,0.201666,0.382336,38.208008,113.769531,-503.967285,0,0
11547,2024 10 17,09:01:36.212,-0.765787,-0.470405,0.433568,-0.065642,-2.836024,0.013672,0.109378,52.429199,119.32373,-526.428223,0,0
11548,2024 10 17,09:01:36.221,-0.770448,-0.49216,0.403447,-0.037669,-2.690512,0.001953,0.21778,45.593262,125.549316,-529.602051,0,1
11549,2024 10 17,09:01:36.229,-0.774327,-0.511718,0.372105,-0.009993,-2.467849,0.186529,-0.210944,33.508301,130.126953,-522.644043,0,0
11550,2024 10 17,09:01:36.237,-0.776431,-0.529709,0.340939,0.01798,-2.250557,0.519547,0.018555,29.846191,121.154785,-521.240234,0,0
11551,2024 10 17,09:01:36.246,-0.776931,-0.546469,0.309307,0.045596,-1.345256,0.687521,-0.971709,30.212402,117.980957,-506.164551,0,0
11552,2024 10 17,09:01:36.254,-0.776931,-0.546469,0.309307,0.045596,-1.345256,0.687521,-0.971709,30.212402,117.980957,-506.164551,0,0
11553,2024 10 17,09:01:36.262,-0.774549,-0.560767,0.283172,0.073675,-1.908261,0.577166,-0.47853,21.54541,38.818359,-467.407227,0,0
11554,2024 10 17,09:01:36.271,-0.771018,-0.571749,0.260248,0.104429,-1.186071,0.994659,-1.124058,-11.352539,-1.159668,-471.374512,0,0
11555,2024 10 17,09:01:36.279,-0.770288,-0.576626,0.237816,0.132671,1.198767,1.402387,-1.648976,-84.594727,35.15625,-380.615234,0,0
11556,2024 10 17,09:01:36.287,-0.77067,-0.57843,0.224062,0.145886,1.042024,0.820338,-0.401868,-38.085938,14.343262,-140.930176,0,0
11557,2024 10 17,09:01:36.296,-0.77425,-0.573103,0.225273,0.146091,-0.265633,1.542528,0.07178,-61.401367,4.821777,80.566406,0,0
11558,2024 10 17,09:01:36.304,-0.779632,-0.566536,0.232276,0.131371,-0.095706,1.326212,-0.597186,-44.311523,30.517578,234.741211,0,0
11559,2024 10 17,09:01:36.312,-0.779632,-0.566536,0.232276,0.131371,-0.095706,1.326212,-0.597186,-44.311523,30.517578,234.741211,0,0
11560,2024 10 17,09:01:36.321,-0.783618,-0.559359,0.246991,0.1098,-0.772973,0.73928,0.010743,-4.577637,12.207031,328.613281,0,0
11561,2024 10 17,09:01:36.329,-0.787525,-0.55121,0.262349,0.084529,-0.688498,0.469253,-0.669942,-5.981445,23.498535,351.501465,0,0
11562,2024 10 17,09:01:36.337,-0.78975,-0.542657,0.279425,0.061158,-0.687521,0.239753,-0.477065,-7.629395,-13.793945,337.402344,0,0
11563,2024 10 17,09:01:36.346,-0.79123,-0.533343,0.296327,0.041109,-0.728538,0.054689,-0.799829,-23.986816,-34.423828,305.419922,0,0
11564,2024 10 17,09:01:36.354,-0.792184,-0.523067,0.313424,0.024725,-0.750511,0.015137,-0.617206,-45.227051,-57.189941,279.23584,0,0
11565,2024 10 17,09:01:36.362,-0.792184,-0.523067,0.313424,0.024725,-0.750511,0.015137,-0.617206,-45.227051,-57.189941,279.23584,0,0
11566,2024 10 17,09:01:36.371,-0.793665,-0.511108,0.3298,0.009839,-0.567888,0.098636,-0.632832,-67.810059,-54.504395,273.31543,0,0
11567,2024 10 17,09:01:36.379,-0.795353,-0.497198,0.346677,-0.004841,-0.518571,0.17188,-0.468276,-85.754395,-62.316895,286.865234,0,0
11568,2024 10 17,09:01:36.387,-0.797097,-0.481031,0.364461,-0.020323,-0.600604,0.200201,-0.443373,-102.600098,-64.39209,309.692383,0,0
11569,2024 10 17,09:01:36.396,-0.798571,-0.462707,0.383197,-0.036701,-0.69631,0.210944,-0.371105,-116.455078,-69.580078,330.749512,0,0
11570,2024 10 17,09:01:36.404,-0.799541,-0.442543,0.402528,-0.053492,-0.751488,0.180181,-0.331553,-127.990723,-74.157715,343.566895,0,0
11571,2024 10 17,09:01:36.412,-0.799541,-0.442543,0.402528,-0.053492,-0.751488,0.180181,-0.331553,-127.990723,-74.157715,343.566895,0,0
11572,2024 10 17,09:01:36.421,-0.79963,-0.42106,0.422398,-0.069862,-0.798364,0.159673,-0.271004,-137.268066,-86.791992,346.862793,0,0
11573,2024 10 17,09:01:36.429,-0.798559,-0.398761,0.44278,-0.085085,-0.890164,0.138188,-0.245613,-143.798828,-102.416992,341.674805,0,0
11574,2024 10 17,09:01:36.437,-0.796075,-0.376258,0.463619,-0.098747,-0.981964,0.188971,-0.125004,-146.850586,-121.398926,330.566406,0,0
11575,2024 10 17,09:01:36.446,-0.792133,-0.354038,0.484639,-0.110939,-1.068392,0.261727,-0.043458,-144.042969,-136.657715,317.504883,0,0
11576,2024 10 17,09:01:36.454,-0.786655,-0.332514,0.505648,-0.122186,-1.152867,0.308115,0.037111,-134.277344,-149.963379,307.983398,0,0
11577,2024 10 17,09:01:36.462,-0.786655,-0.332514,0.505648,-0.122186,-1.152867,0.308115,0.037111,-134.277344,-149.963379,307.983398,0,0
11578,2024 10 17,09:01:36.471,-0.779552,-0.311918,0.526532,-0.133301,-1.261269,0.345225,0.118168,-118.713379,-158.874512,304.6875,0,0
11579,2024 10 17,09:01:36.479,-0.770835,-0.292261,0.54716,-0.144956,-1.373089,0.403333,0.170904,-100.158691,-166.19873,306.396484,0,0
11580,2024 10 17,09:01:36.487,-0.760516,-0.273702,0.567316,-0.157653,-1.489792,0.427259,0.224128,-76.293945,-169.311523,309.692383,0,0
11581,2024 10 17,09:01:36.496,-0.748721,-0.256618,0.586638,-0.171524,-1.592822,0.419446,0.208991,-49.438477,-171.081543,309.509277,0,0
11582,2024 10 17,09:01:36.504,-0.735448,-0.241206,0.6052,-0.186196,-1.67925,0.377453,0.160161,-24.597168,-176.208496,305.297852,0,0
11583,2024 10 17,09:01:36.512,-0.735448,-0.241206,0.6052,-0.186196,-1.67925,0.377453,0.160161,-24.597168,-176.208496,305.297852,0,0
11584,2024 10 17,09:01:36.521,-0.720648,-0.227539,0.623188,-0.201321,-1.761284,0.344737,0.150884,-2.075195,-185.852051,298.950195,0,0
11585,2024 10 17,09:01:36.529,-0.7042,-0.215453,0.640827,-0.216847,-1.906308,0.342784,0.17481,18.493652,-197.509766,295.410156,0,0
11586,2024 10 17,09:01:36.537,-0.686182,-0.204603,0.657976,-0.23315,-2.085025,0.316904,0.247566,39.245605,-205.383301,297.119141,0,0
11587,2024 10 17,09:01:36.546,-0.666965,-0.194588,0.674158,-0.250608,-2.237861,0.208991,0.291513,59.631348,-205.01709,302.246094,0,0
11588,2024 10 17,09:01:36.554,-0.646978,-0.185241,0.68897,-0.269122,-2.352611,0.003418,0.309091,78.00293,-199.707031,304.56543,0,0
11589,2024 10 17,09:01:36.562,-0.646978,-0.185241,0.68897,-0.269122,-2.352611,0.003418,0.309091,78.00293,-199.707031,304.56543,0,0
11590,2024 10 17,09:01:36.571,-0.626612,-0.1767,0.702283,-0.287982,-2.408277,-0.326182,0.249519,90.026855,-193.969727,298.76709,0,0
11591,2024 10 17,09:01:36.579,-0.606124,-0.16889,0.71435,-0.30626,-2.51326,-0.785668,0.126957,92.346191,-189.758301,288.208008,0,0
11592,2024 10 17,09:01:36.587,-0.585946,-0.161399,0.725366,-0.323205,-2.626057,-1.376019,0.081545,84.472656,-182.006836,276.611328,0,0
11593,2024 10 17,09:01:36.596,-0.566869,-0.153375,0.735346,-0.338234,-2.655354,-1.935606,0.033692,64.697266,-165.344238,265.930176,0,0
11594,2024 10 17,09:01:36.604,-0.549567,-0.144813,0.744396,-0.350542,-2.395093,-2.430738,0.159673,37.841797,-148.376465,243.530273,0,0
11595,2024 10 17,09:01:36.612,-0.549567,-0.144813,0.744396,-0.350542,-2.395093,-2.430738,0.159673,37.841797,-148.376465,243.530273,0,0
11596,2024 10 17,09:01:36.621,-0.533721,-0.137195,0.753268,-0.359035,-1.959044,-2.715903,0.545915,9.765625,-152.282715,202.819824,0,0
11597,2024 10 17,09:01:36.629,-0.518174,-0.132472,0.762787,-0.36346,-1.766167,-2.752525,1.220252,-7.629395,-178.344727,151.000977,0,0
11598,2024 10 17,09:01:36.637,-0.503357,-0.131293,0.772017,-0.365219,-2.067934,-2.927824,1.786187,-6.652832,-184.448242,102.111816,0,0
11599,2024 10 17,09:01:36.646,-0.491894,-0.132404,0.778873,-0.365877,-2.420484,-3.41612,1.927793,1.708984,-142.883301,62.5,0,0
11600,2024 10 17,09:01:36.654,-0.485762,-0.134505,0.783923,-0.362503,-9.401654,-5.169103,0.664083,-61.096191,-109.436035,-9.399414,0,0
11601,2024 10 17,09:01:36.662,-0.485762,-0.134505,0.783923,-0.362503,-9.401654,-5.169103,0.664083,-61.096191,-109.436035,-9.399414,0,0
11602,2024 10 17,09:01:36.671,-0.490458,-0.148564,0.785378,-0.347218,-3.664662,-4.373669,2.917081,-57.617188,48.461914,-210.144043,0,0
11603,2024 10 17,09:01:36.679,-0.518523,-0.157688,0.773792,-0.327895,-1.305216,-2.741783,2.144108,-121.032715,267.822266,-316.162109,1,0
11604,2024 10 17,09:01:36.687,-0.550368,-0.163855,0.758658,-0.30771,0.287606,1.115268,-1.079623,-166.137695,286.376953,-315.368652,0,0
11605,2024 10 17,09:01:36.696,-0.561987,-0.178377,0.754377,-0.288562,-2.065004,1.459517,0.11182,-65.307617,-26.550293,-299.072266,0,0
11606,2024 10 17,09:01:36.704,-0.571375,-0.194485,0.747594,-0.277145,-2.459059,-0.123051,0.944853,25.085449,107.116699,-242.858887,0,0
11607,2024 10 17,09:01:36.712,-0.587798,-0.206931,0.732113,-0.275106,-1.086459,-0.192389,-0.152837,86.364746,179.016113,-192.565918,0,0
11608,2024 10 17,09:01:36.721,-0.587798,-0.206931,0.732113,-0.275106,-1.086459,-0.192389,-0.152837,86.364746,179.016113,-192.565918,0,0
11609,2024 10 17,09:01:36.729,-0.597508,-0.21714,0.721916,-0.273261,-1.598193,-0.342784,0.310068,47.119141,112.731934,-136.962891,0,0
11610,2024 10 17,09:01:36.737,-0.608764,-0.222041,0.71069,-0.273904,-1.164586,0.073244,-0.563982,55.786133,159.790039,-85.998535,0,0
11611,2024 10 17,09:01:36.746,-0.616533,-0.227479,0.700613,-0.277996,-1.216834,0.052248,-0.278817,91.064453,120.056152,-59.570313,0,0
11612,2024 10 17,09:01:36.754,-0.623629,-0.232518,0.689867,-0.284791,-1.124058,-0.126469,0.003906,108.703613,144.348145,-37.29248,0,0
11613,2024 10 17,09:01:36.762,-0.631302,-0.235935,0.678515,-0.29225,-0.970733,-0.100589,-0.252937,95.153809,146.42334,-25.512695,0,0
11614,2024 10 17,09:01:36.771,-0.631302,-0.235935,0.678515,-0.29225,-0.970733,-0.100589,-0.252937,95.153809,146.42334,-25.512695,0,0
11615,2024 10 17,09:01:36.779,-0.637144,-0.238682,0.669314,-0.298491,-1.039582,0.013672,0.003906,82.397461,113.40332,-17.333984,0,0
11616,2024 10 17,09:01:36.787,-0.641958,-0.241028,0.660757,-0.30528,-0.947295,-0.056642,0.077151,85.205078,109.619141,-5.371094,0,0
11617,2024 10 17,09:01:36.796,-0.646069,-0.24261,0.653441,-0.311047,-0.797876,-0.078127,0.047365,62.561035,87.158203,-3.845215,0,0
11618,2024 10 17,09:01:36.804,-0.64865,-0.243779,0.648834,-0.314387,-0.905301,0.010254,0.0918,38.696289,50.109863,-5.371094,0,0
11619,2024 10 17,09:01:36.812,-0.650345,-0.244719,0.645619,-0.316764,-0.938505,0.003906,0.091311,28.808594,37.597656,-3.90625,0,0
11620,2024 10 17,09:01:36.821,-0.650345,-0.244719,0.645619,-0.316764,-0.938505,0.003906,0.091311,28.808594,37.597656,-3.90625,0,0
11621,2024 10 17,09:01:36.829,-0.651653,-0.245344,0.643358,-0.318191,-0.915067,0.011231,0.033204,15.991211,23.742676,-5.187988,0,0
11622,2024 10 17,09:01:36.837,-0.652309,-0.245898,0.642378,-0.318399,-0.996124,0.06006,0.061525,5.432129,7.385254,-7.995605,0,0
11623,2024 10 17,09:01:36.846,-0.652828,-0.246423,0.64182,-0.318054,-1.013703,0.058596,0.012696,0.427246,4.821777,-10.681152,0,0
11624,2024 10 17,09:01:36.854,-0.653385,-0.246905,0.641501,-0.317178,-1.032258,0.061525,0.001953,-4.272461,1.342773,-13.73291,0,0
11625,2024 10 17,09:01:36.862,-0.654011,-0.247379,0.641295,-0.315934,-1.067904,0.076662,-0.015137,-7.080078,1.464844,-16.235352,0,0
11626,2024 10 17,09:01:36.871,-0.654011,-0.247379,0.641295,-0.315934,-1.067904,0.076662,-0.015137,-7.080078,1.464844,-16.235352,0,0
11627,2024 10 17,09:01:36.879,-0.654819,-0.247864,0.64093,-0.314617,-1.052278,0.074221,0.015625,-6.835938,4.150391,-17.700195,0,0
11628,2024 10 17,09:01:36.887,-0.655754,-0.248376,0.640397,-0.313349,-1.051302,0.072268,0.006836,-5.615234,5.981445,-18.310547,0,0
11629,2024 10 17,09:01:36.896,-0.656806,-0.248894,0.639697,-0.312162,-1.026399,0.062014,0.024903,-5.67627,8.422852,-18.493652,0,0
11630,2024 10 17,09:01:36.904,-0.657885,-0.249386,0.638941,-0.311044,-1.024445,0.051271,0.018555,-4.455566,8.789063,-17.883301,0,0
11631,2024 10 17,09:01:36.912,-0.659044,-0.249809,0.638128,-0.309917,-1.046419,0.055666,-0.004395,-6.225586,10.803223,-18.188477,0,0
11632,2024 10 17,09:01:36.921,-0.659044,-0.249809,0.638128,-0.309917,-1.046419,0.055666,-0.004395,-6.225586,10.803223,-18.188477,0,0
11633,2024 10 17,09:01:36.929,-0.66034,-0.250177,0.637174,-0.308824,-1.028352,0.037599,0.010743,-5.371094,13.48877,-18.127441,0,0
11634,2024 10 17,09:01:36.937,-0.661707,-0.250509,0.636155,-0.307728,-0.973662,0.038087,0.044923,-5.493164,13.122559,-18.432617,0,0
11635,2024 10 17,09:01:36.946,-0.662944,-0.250924,0.635287,-0.306517,-0.984405,0.0459,0.041017,-6.225586,9.887695,-19.165039,0,0
11636,2024 10 17,09:01:36.954,-0.664094,-0.251397,0.634557,-0.305149,-0.967803,0.057619,0.074709,-7.202148,7.995605,-20.080566,0,0
11637,2024 10 17,09:01:36.962,-0.665134,-0.252028,0.633833,-0.303864,-0.998077,0.048341,0.040529,-4.638672,6.896973,-20.324707,0,0
11638,2024 10 17,09:01:36.971,-0.665134,-0.252028,0.633833,-0.303864,-0.998077,0.048341,0.040529,-4.638672,6.896973,-20.324707,0,0
11639,2024 10 17,09:01:36.979,-0.666104,-0.252825,0.633051,-0.302706,-1.00882,0.046388,0.063478,-1.342773,6.958008,-20.385742,0,0
11640,2024 10 17,09:01:36.987,-0.667071,-0.253764,0.63215,-0.301673,-1.016633,0.036134,0.030763,0.549316,7.8125,-20.690918,0,0
11641,2024 10 17,09:01:36.996,-0.667994,-0.254793,0.631234,-0.30068,-0.996612,0.000488,0.052736,0.915527,7.507324,-20.874023,0,0
11642,2024 10 17,09:01:37.004,-0.668929,-0.255755,0.630347,-0.299643,-0.987823,0.045412,0.074709,0.488281,6.896973,-20.568848,0,0
11643,2024 10 17,09:01:37.012,-0.669788,-0.256812,0.629459,-0.298686,-0.975127,0.023927,0.102542,1.89209,6.835938,-20.629883,0,0
11644,2024 10 17,09:01:37.021,-0.669788,-0.256812,0.629459,-0.298686,-0.975127,0.023927,0.102542,1.89209,6.835938,-20.629883,0,0
11645,2024 10 17,09:01:37.029,-0.670682,-0.257884,0.628411,-0.297962,-1.003937,0.014161,0.081545,4.150391,8.239746,-19.226074,0,0
11646,2024 10 17,09:01:37.037,-0.67144,-0.259076,0.627425,-0.297297,-1.016144,0.016114,0.06592,6.469727,7.263184,-18.859863,0,0
11647,2024 10 17,09:01:37.046,-0.672239,-0.260298,0.626298,-0.2968,-1.010773,0.025391,0.076174,7.568359,8.728027,-18.615723,0,0
11648,2024 10 17,09:01:37.054,-0.673008,-0.261629,0.62515,-0.296308,-1.057649,0.029786,0.059084,8.728027,8.605957,-19.775391,0,0
11649,2024 10 17,09:01:37.062,-0.673948,-0.263028,0.623755,-0.295871,-1.052278,-0.005371,0.057619,8.605957,12.939453,-21.728516,0,0
11650,2024 10 17,09:01:37.071,-0.673948,-0.263028,0.623755,-0.295871,-1.052278,-0.005371,0.057619,8.605957,12.939453,-21.728516,0,0
11651,2024 10 17,09:01:37.079,-0.675179,-0.264398,0.622112,-0.295304,-1.05179,0.036134,0.098148,8.605957,15.014648,-23.925781,0,0
11652,2024 10 17,09:01:37.087,-0.676349,-0.266051,0.620554,-0.294418,-1.089877,0.040529,0.076662,8.056641,11.59668,-28.381348,0,0
11653,2024 10 17,09:01:37.096,-0.67759,-0.267877,0.619025,-0.293126,-1.086459,0.019532,0.086428,6.04248,10.070801,-33.752441,0,0
11654,2024 10 17,09:01:37.104,-0.678856,-0.269969,0.617602,-0.291272,-1.133824,-0.009278,0.034669,4.211426,6.103516,-39.489746,0,0
11655,2024 10 17,09:01:37.112,-0.680132,-0.272324,0.616498,-0.288427,-1.241737,0.027833,0.089358,-3.112793,0.610352,-49.133301,0,0
11656,2024 10 17,09:01:37.121,-0.680132,-0.272324,0.616498,-0.288427,-1.241737,0.027833,0.089358,-3.112793,0.610352,-49.133301,0,0
11657,2024 10 17,09:01:37.129,-0.681995,-0.274883,0.614931,-0.284924,-1.230995,-0.013672,0.023927,-7.263184,8.178711,-59.143066,0,0
11658,2024 10 17,09:01:37.137,-0.684307,-0.277592,0.613132,-0.280599,-1.310099,0.015137,0.004883,-10.986328,7.080078,-69.030762,0,0
11659,2024 10 17,09:01:37.146,-0.686907,-0.280697,0.611272,-0.275163,-1.40141,0.0459,0.059572,-17.51709,6.958008,-82.519531,0,0
11660,2024 10 17,09:01:37.154,-0.690363,-0.284071,0.608483,-0.269167,-1.355022,0.047365,0.081057,-17.089844,19.897461,-94.238281,0,0
11661,2024 10 17,09:01:37.162,-0.694306,-0.288034,0.604934,-0.262736,-1.299844,0.079592,0.146977,-14.221191,22.399902,-105.957031,0,0
11662,2024 10 17,09:01:37.171,-0.698334,-0.292937,0.600682,-0.256318,-1.250526,0.093753,0.209479,-2.563477,27.22168,-114.013672,0,0
11663,2024 10 17,09:01:37.179,-0.698334,-0.292937,0.600682,-0.256318,-1.250526,0.093753,0.209479,-2.563477,27.22168,-114.013672,0,0
11664,2024 10 17,09:01:37.187,-0.702244,-0.298965,0.595769,-0.250066,-1.271035,0.093265,0.236824,9.399414,26.123047,-123.596191,0,0
11665,2024 10 17,09:01:37.196,-0.706001,-0.306196,0.590394,-0.243396,-1.391644,0.079592,0.059572,17.089844,25.268555,-137.145996,0,0
11666,2024 10 17,09:01:37.204,-0.709812,-0.314553,0.584375,-0.23607,-1.59624,0.059084,0.081057,22.521973,26.550293,-153.930664,0,0
11667,2024 10 17,09:01:37.212,-0.714293,-0.323822,0.577224,-0.227458,-1.862362,0.076662,-0.009278,20.202637,35.949707,-178.771973,0,0
11668,2024 10 17,09:01:37.221,-0.720046,-0.333803,0.568328,-0.217054,-1.980529,0.146001,-0.106937,12.939453,50.537109,-210.083008,0,0
11669,2024 10 17,09:01:37.229,-0.720046,-0.333803,0.568328,-0.217054,-1.980529,0.146001,-0.106937,12.939453,50.537109,-210.083008,0,0
11670,2024 10 17,09:01:37.237,-0.726795,-0.344868,0.557564,-0.204834,-2.109439,0.222663,-0.014649,13.427734,65.063477,-242.858887,0,0
11671,2024 10 17,09:01:37.246,-0.734591,-0.357199,0.544443,-0.190702,-2.133366,0.326182,-0.109378,11.962891,77.636719,-281.188965,0,0
11672,2024 10 17,09:01:37.254,-0.742218,-0.371344,0.530148,-0.173663,-2.370678,0.368664,-0.130863,13.549805,67.382813,-323.486328,0,0
11673,2024 10 17,09:01:37.262,-0.750343,-0.387035,0.513407,-0.153632,-2.837489,0.417493,-0.106449,10.192871,83.740234,-372.741699,0,0
11674,2024 10 17,09:01:37.271,-0.759474,-0.403984,0.49277,-0.131049,-3.131932,0.514664,0.056642,9.399414,112.609863,-423.64502,0,0
11675,2024 10 17,09:01:37.279,-0.759474,-0.403984,0.49277,-0.131049,-3.131932,0.514664,0.056642,9.399414,112.609863,-423.64502,0,0
11676,2024 10 17,09:01:37.287,-0.769089,-0.422409,0.467719,-0.10635,-3.306253,0.260262,0.1377,15.319824,139.465332,-471.984863,0,0
11677,2024 10 17,09:01:37.296,-0.778283,-0.442107,0.438596,-0.080318,-3.30723,-0.034181,0.101566,29.907227,167.114258,-506.286621,0,0
11678,2024 10 17,09:01:37.304,-0.786765,-0.461661,0.406182,-0.053718,-2.796472,-0.041993,-0.113285,25.32959,187.072754,-520.874023,0,0
11679,2024 10 17,09:01:37.312,-0.793902,-0.47977,0.372625,-0.026303,-2.410718,0.172369,-0.268075,13.183594,181.57959,-523.498535,0,1
11680,2024 10 17,09:01:37.321,-0.799297,-0.495862,0.339474,0.001647,-2.382885,0.37843,-0.307138,5.065918,166.687012,-516.601563,0,0
11681,2024 10 17,09:01:37.329,-0.799297,-0.495862,0.339474,0.001647,-2.382885,0.37843,-0.307138,5.065918,166.687012,-516.601563,0,0
11682,2024 10 17,09:01:37.337,-0.802784,-0.510451,0.306664,0.03058,-1.709525,0.768578,-0.630879,-5.371094,150.20752,-519.592285,0,0
11683,2024 10 17,09:01:37.346,-0.803655,-0.523336,0.276873,0.05999,-1.643605,0.788598,-0.600116,1.159668,96.313477,-491.088867,0,0
11684,2024 10 17,09:01:37.354,-0.801959,-0.534357,0.251273,0.090482,-2.02057,0.731956,-0.593768,-11.108398,52.307129,-479.431152,0,0
11685,2024 10 17,09:01:37.362,-0.800562,-0.540761,0.22776,0.121667,-0.451186,1.261269,-1.71099,-65.246582,22.155762,-450.073242,0,0
11686,2024 10 17,09:01:37.371,-0.801394,-0.540949,0.209639,0.14558,2.67391,1.658742,-1.11185,-99.365234,27.526855,-276.977539,0,0
11687,2024 10 17,09:01:37.379,-0.801394,-0.540949,0.209639,0.14558,2.67391,1.658742,-1.11185,-99.365234,27.526855,-276.977539,0,0
11688,2024 10 17,09:01:37.387,-0.804006,-0.535908,0.206644,0.153871,0.534684,1.483932,0.349132,-104.003906,-48.278809,-1.647949,0,0
11689,2024 10 17,09:01:37.396,-0.809967,-0.526578,0.214002,0.144471,-0.083987,1.461959,-0.731468,-76.721191,-6.774902,208.374023,0,0
11690,2024 10 17,09:01:37.404,-0.815267,-0.516555,0.229412,0.126017,-0.583026,1.219764,0.049318,-33.508301,-37.902832,320.129395,0,0
11691,2024 10 17,09:01:37.412,-0.818915,-0.50785,0.246938,0.102415,-0.847682,0.873562,-0.265145,-13.73291,-23.071289,349.914551,0,0
11692,2024 10 17,09:01:37.421,-0.82061,-0.500324,0.264576,0.079211,-0.853053,0.482925,-0.442396,9.460449,-38.208008,331.604004,0,0
11693,2024 10 17,09:01:37.429,-0.82061,-0.500324,0.264576,0.079211,-0.853053,0.482925,-0.442396,9.460449,-38.208008,331.604004,0,0
11694,2024 10 17,09:01:37.437,-0.82078,-0.493464,0.281643,0.059083,-0.749535,0.177252,-0.695334,10.009766,-52.001953,293.884277,0,0
11695,2024 10 17,09:01:37.446,-0.819744,-0.486641,0.298981,0.042539,-0.618671,0.079104,-0.573748,0.610352,-81.90918,265.686035,0,0
11696,2024 10 17,09:01:37.454,-0.81832,-0.47872,0.316865,0.027857,-0.506851,0.186041,-0.564959,-13.549805,-95.275879,261.84082,0,0
11697,2024 10 17,09:01:37.462,-0.816569,-0.469142,0.336074,0.013225,-0.546892,0.239265,-0.412122,-26.062012,-110.900879,279.602051,0,0
11698,2024 10 17,09:01:37.471,-0.814494,-0.457497,0.356777,-0.002565,-0.674337,0.277352,-0.324717,-38.024902,-117.736816,307.861328,0,0
11699,2024 10 17,09:01:37.479,-0.814494,-0.457497,0.356777,-0.002565,-0.674337,0.277352,-0.324717,-38.024902,-117.736816,307.861328,0,0
11700,2024 10 17,09:01:37.487,-0.811965,-0.443822,0.378603,-0.019856,-0.822779,0.288583,-0.224128,-47.180176,-122.009277,334.16748,0,0
11701,2024 10 17,09:01:37.496,-0.808766,-0.42852,0.401027,-0.038006,-0.921903,0.250984,-0.107425,-54.443359,-125.427246,348.876953,0,0
11702,2024 10 17,09:01:37.504,-0.804727,-0.412145,0.423557,-0.056132,-1.000519,0.189947,-0.074221,-59.936523,-131.652832,351.501465,0,0
11703,2024 10 17,09:01:37.512,-0.79964,-0.395154,0.446162,-0.073275,-1.101108,0.137211,0.011719,-65.124512,-141.845703,344.482422,0,0
11704,2024 10 17,09:01:37.521,-0.793548,-0.377922,0.468534,-0.089066,-1.172887,0.131352,0.110355,-68.969727,-150.817871,332.092285,0,0
11705,2024 10 17,09:01:37.529,-0.793548,-0.377922,0.468534,-0.089066,-1.172887,0.131352,0.110355,-68.969727,-150.817871,332.092285,0,0
11706,2024 10 17,09:01:37.537,-0.786553,-0.360699,0.490396,-0.103646,-1.218787,0.144047,0.188482,-70.43457,-155.761719,320.495605,0,0
11707,2024 10 17,09:01:37.546,-0.778673,-0.343486,0.511727,-0.117564,-1.311075,0.172857,0.249031,-68.29834,-158.325195,315.063477,0,0
11708,2024 10 17,09:01:37.554,-0.77003,-0.326259,0.532264,-0.131545,-1.410688,0.222175,0.341807,-62.744141,-153.930664,314.63623,0,0
11709,2024 10 17,09:01:37.562,-0.760758,-0.30914,0.551681,-0.146037,-1.486862,0.272958,0.379406,-53.771973,-146.362305,315.246582,0,0
11710,2024 10 17,09:01:37.571,-0.750797,-0.292457,0.569886,-0.161255,-1.532273,0.299814,0.412122,-39.733887,-138.305664,315.612793,0,0
11711,2024 10 17,09:01:37.579,-0.750797,-0.292457,0.569886,-0.161255,-1.532273,0.299814,0.412122,-39.733887,-138.305664,315.612793,0,0
11712,2024 10 17,09:01:37.587,-0.740141,-0.276464,0.586795,-0.177287,-1.598193,0.285165,0.343272,-23.803711,-130.981445,314.819336,0,0
11713,2024 10 17,09:01:37.596,-0.728653,-0.261317,0.602666,-0.193838,-1.639699,0.224616,0.282723,-9.216309,-129.02832,311.950684,0,0
11714,2024 10 17,09:01:37.604,-0.716187,-0.247009,0.617847,-0.210543,-1.697317,0.14893,0.183111,2.502441,-132.93457,308.349609,0,0
11715,2024 10 17,09:01:37.612,-0.70251,-0.233446,0.632723,-0.227253,-1.806207,0.056154,0.196295,12.207031,-140.563965,306.518555,0,0
11716,2024 10 17,09:01:37.621,-0.687834,-0.220493,0.647075,-0.244051,-1.938047,-0.020997,0.177252,21.972656,-144.53125,304.931641,0,0
11717,2024 10 17,09:01:37.629,-0.672319,-0.208309,0.660641,-0.261052,-2.059633,-0.115726,0.211432,34.179688,-145.324707,301.574707,0,0
11718,2024 10 17,09:01:37.637,-0.672319,-0.208309,0.660641,-0.261052,-2.059633,-0.115726,0.211432,34.179688,-145.324707,301.574707,0,0
11719,2024 10 17,09:01:37.646,-0.656248,-0.196928,0.673194,-0.278152,-2.160222,-0.204108,0.166021,44.98291,-144.165039,296.203613,0,0
11720,2024 10 17,09:01:37.654,-0.639619,-0.186371,0.684833,-0.295224,-2.211005,-0.349132,0.115238,54.80957,-144.592285,290.527344,0,0
11721,2024 10 17,09:01:37.662,-0.62245,-0.176401,0.695822,-0.311882,-2.196356,-0.661153,0.017579,57.067871,-147.888184,284.912109,0,0
11722,2024 10 17,09:01:37.671,-0.604669,-0.166638,0.706667,-0.327458,-2.205634,-1.098178,-0.105472,49.194336,-155.334473,279.785156,0,0
11723,2024 10 17,09:01:37.679,-0.58649,-0.156996,0.717664,-0.341087,-2.297433,-1.505905,-0.120609,32.958984,-162.841797,267.700195,0,0
11724,2024 10 17,09:01:37.687,-0.58649,-0.156996,0.717664,-0.341087,-2.297433,-1.505905,-0.120609,32.958984,-162.841797,267.700195,0,0
11725,2024 10 17,09:01:37.696,-0.568725,-0.147876,0.728558,-0.351977,-2.327219,-1.831599,-0.010254,13.244629,-165.039063,242.126465,0,0
11726,2024 10 17,09:01:37.704,-0.552137,-0.139911,0.739115,-0.359554,-2.086489,-2.007874,0.284677,-7.324219,-163.635254,204.711914,0,0
11727,2024 10 17,09:01:37.712,-0.536741,-0.13381,0.749405,-0.363862,-1.652394,-2.075259,0.715354,-22.583008,-169.189453,162.475586,0,0
11728,2024 10 17,09:01:37.721,-0.521545,-0.130271,0.759907,-0.36546,-1.451705,-2.196844,1.275429,-29.602051,-189.086914,124.450684,0,0
11729,2024 10 17,09:01:37.729,-0.506289,-0.129035,0.770212,-0.36578,-1.961486,-2.566484,1.657765,-24.353027,-196.777344,101.806641,0,0
11730,2024 10 17,09:01:37.737,-0.506289,-0.129035,0.770212,-0.36578,-1.961486,-2.566484,1.657765,-24.353027,-196.777344,101.806641,0,0
11731,2024 10 17,09:01:37.746,-0.49405,-0.128196,0.778122,-0.36607,-2.56795,-2.922941,1.763237,-15.258789,-142.211914,85.083008,0,0
11732,2024 10 17,09:01:37.754,-0.489527,-0.126501,0.781073,-0.366451,-2.519608,-3.199317,1.627491,-12.145996,-30.700684,50.964355,0,0
11733,2024 10 17,09:01:37.762,-0.493535,-0.124371,0.779345,-0.365481,-1.77984,-3.088473,1.032746,-21.362305,60.60791,2.502441,0,0
11734,2024 10 17,09:01:37.771,-0.496469,-0.130244,0.784352,-0.348348,-1.770074,-1.104038,5.660329,-234.191895,-166.503906,-242.492676,0,0
11735,2024 10 17,09:01:37.779,-0.517887,-0.141835,0.775081,-0.333055,-1.6021,-2.935637,1.419477,-94.970703,267.211914,-292.236328,0,0
11736,2024 10 17,09:01:37.787,-0.517887,-0.141835,0.775081,-0.333055,-1.6021,-2.935637,1.419477,-94.970703,267.211914,-292.236328,0,0
11737,2024 10 17,09:01:37.796,-0.557103,-0.142797,0.756835,-0.310557,1.433149,1.446821,-1.889706,-171.875,383.544922,-310.852051,0,0
11738,2024 10 17,09:01:37.804,-0.565034,-0.159895,0.754811,-0.292285,-1.914121,1.722709,0.820826,-78.186035,-97.961426,-312.133789,1,0
11739,2024 10 17,09:01:37.812,-0.574484,-0.178101,0.748493,-0.279297,-2.398511,-0.262703,0.476089,53.527832,109.741211,-274.719238,0,0
11740,2024 10 17,09:01:37.821,-0.588976,-0.194645,0.73464,-0.274818,-1.59624,-0.382824,0.067873,92.895508,132.873535,-232.727051,0,0
11741,2024 10 17,09:01:37.829,-0.599877,-0.208189,0.72293,-0.272354,-1.838923,-0.573748,0.746117,69.335938,135.681152,-169.677734,0,0
11742,2024 10 17,09:01:37.837,-0.599877,-0.208189,0.72293,-0.272354,-1.838923,-0.573748,0.746117,69.335938,135.681152,-169.677734,0,0
11743,2024 10 17,09:01:37.846,-0.61434,-0.213174,0.709719,-0.271001,-1.158238,0.06299,-0.749535,28.503418,189.880371,-109.375,0,0
11744,2024 10 17,09:01:37.854,-0.622829,-0.218807,0.699498,-0.273697,-1.290078,0.17481,-0.179693,86.669922,118.041992,-69.274902,0,0
11745,2024 10 17,09:01:37.862,-0.630062,-0.224905,0.687744,-0.281865,-1.271523,-0.200201,0.044435,138.549805,159.912109,-33.996582,0,0
11746,2024 10 17,09:01:37.871,-0.63909,-0.228654,0.674266,-0.290942,-0.867702,-0.151372,-0.296396,105.651855,175.598145,-25.939941,0,0
11747,2024 10 17,09:01:37.879,-0.645727,-0.231323,0.664185,-0.297296,-1.057649,0.039064,-0.055666,82.946777,122.314453,-18.981934,0,0
11748,2024 10 17,09:01:37.887,-0.645727,-0.231323,0.664185,-0.297296,-1.057649,0.039064,-0.055666,82.946777,122.314453,-18.981934,0,0
11749,2024 10 17,09:01:37.896,-0.650813,-0.233993,0.65475,-0.304946,-1.052767,-0.035157,0.10889,101.013184,123.046875,-1.77002,0,0
11750,2024 10 17,09:01:37.904,-0.655955,-0.235658,0.645785,-0.311691,-0.708518,-0.061525,0.051271,66.772461,109.49707,-6.103516,0,0
11751,2024 10 17,09:01:37.912,-0.658966,-0.237153,0.640508,-0.315074,-0.904813,0.001465,0.118168,45.166016,52.55127,-10.070801,0,0
11752,2024 10 17,09:01:37.921,-0.661001,-0.238601,0.63666,-0.317507,-0.938017,0.012207,0.180181,34.362793,45.776367,-9.94873,0,0
11753,2024 10 17,09:01:37.929,-0.663023,-0.239615,0.633448,-0.318951,-0.923368,0.01709,-0.008789,21.179199,33.569336,-13.244629,0,0
11754,2024 10 17,09:01:37.937,-0.663023,-0.239615,0.633448,-0.318951,-0.923368,0.01709,-0.008789,21.179199,33.569336,-13.244629,0,0
11755,2024 10 17,09:01:37.946,-0.664106,-0.240785,0.631777,-0.319129,-1.040071,0.021485,0.093265,11.413574,14.343262,-16.174316,0,0
11756,2024 10 17,09:01:37.954,-0.665492,-0.241585,0.630197,-0.318761,-0.96292,0.06592,0.054201,4.089355,18.798828,-18.432617,0,0
11757,2024 10 17,09:01:37.962,-0.666588,-0.242435,0.629192,-0.317811,-0.993683,0.050783,-0.007324,-2.624512,6.103516,-20.812988,0,0
11758,2024 10 17,09:01:37.971,-0.667367,-0.243328,0.628796,-0.316273,-1.05179,0.048341,0.117191,-5.249023,1.708984,-22.094727,0,0
11759,2024 10 17,09:01:37.979,-0.668356,-0.244137,0.628144,-0.314852,-1.065462,0.013184,-0.036622,-3.90625,5.981445,-21.728516,0,0
11760,2024 10 17,09:01:37.987,-0.668356,-0.244137,0.628144,-0.314852,-1.065462,0.013184,-0.036622,-3.90625,5.981445,-21.728516,0,0
11761,2024 10 17,09:01:37.996,-0.669249,-0.244872,0.627723,-0.313221,-0.985382,0.029298,0.088382,-6.408691,2.075195,-21.728516,0,0
11762,2024 10 17,09:01:38.004,-0.670095,-0.245556,0.627283,-0.311756,-0.982452,0.059084,0.066897,-5.493164,2.807617,-20.080566,0,0
11763,2024 10 17,09:01:38.012,-0.670781,-0.246324,0.626865,-0.310511,-0.985382,0.024903,0.066408,-3.90625,1.403809,-18.554688,0,0
11764,2024 10 17,09:01:38.021,-0.671361,-0.247079,0.626592,-0.309206,-0.981475,0.037111,0.068361,-4.211426,-0.061035,-18.005371,0,0
11765,2024 10 17,09:01:38.029,-0.671913,-0.247839,0.626257,-0.308075,-0.976592,0.031251,0.07178,-2.075195,0.671387,-16.601563,0,0
11766,2024 10 17,09:01:38.037,-0.671913,-0.247839,0.626257,-0.308075,-0.976592,0.031251,0.07178,-2.075195,0.671387,-16.601563,0,0
11767,2024 10 17,09:01:38.046,-0.672297,-0.248645,0.62608,-0.306948,-0.982452,0.052248,0.064455,-1.89209,-2.807617,-16.235352,0,0
11768,2024 10 17,09:01:38.054,-0.67253,-0.249536,0.626007,-0.30586,-0.972686,0.035646,0.12598,-1.586914,-4.150391,-15.869141,0,0
11769,2024 10 17,09:01:38.062,-0.672755,-0.250484,0.625866,-0.304876,-0.978057,0.041017,0.097171,0.671387,-3.601074,-15.136719,0,0
11770,2024 10 17,09:01:38.071,-0.672834,-0.25154,0.625824,-0.303919,-0.983917,0.039064,0.110355,0.610352,-6.225586,-15.625,0,0
11771,2024 10 17,09:01:38.079,-0.672917,-0.252663,0.625717,-0.303022,-0.996124,0.027833,0.083987,2.990723,-4.577637,-15.258789,0,0
11772,2024 10 17,09:01:38.087,-0.673002,-0.253803,0.625581,-0.30216,-0.995636,0.028321,0.045412,2.502441,-4.882813,-15.686035,0,0
11773,2024 10 17,09:01:38.096,-0.673002,-0.253803,0.625581,-0.30216,-0.995636,0.028321,0.045412,2.502441,-4.882813,-15.686035,0,0
11774,2024 10 17,09:01:38.104,-0.673125,-0.254924,0.625364,-0.301389,-1.00882,0.010743,0.083987,3.356934,-2.746582,-14.831543,0,0
11775,2024 10 17,09:01:38.112,-0.673398,-0.255938,0.625024,-0.300625,-0.983428,0.013672,0.074709,2.929688,0.0,-14.709473,0,0
11776,2024 10 17,09:01:38.121,-0.6737,-0.256902,0.624597,-0.300013,-0.95706,0.008789,0.106449,3.356934,-0.244141,-13.671875,0,0
11777,2024 10 17,09:01:38.129,-0.673893,-0.257876,0.624282,-0.299399,-0.995148,0.001465,0.106937,4.333496,-1.098633,-13.000488,0,0
11778,2024 10 17,09:01:38.137,-0.674187,-0.258796,0.623814,-0.298919,-0.990265,0.006348,0.041017,3.78418,1.464844,-12.634277,0,0
11779,2024 10 17,09:01:38.146,-0.674187,-0.258796,0.623814,-0.298919,-0.990265,0.006348,0.041017,3.78418,1.464844,-12.634277,0,0
11780,2024 10 17,09:01:38.154,-0.674442,-0.259657,0.623422,-0.298414,-0.991729,0.008789,0.104007,3.662109,0.427246,-11.901855,0,0
11781,2024 10 17,09:01:38.162,-0.674796,-0.260461,0.622892,-0.298021,-1.012726,-0.000977,0.047365,3.479004,3.112793,-11.71875,0,0
11782,2024 10 17,09:01:38.171,-0.675243,-0.261241,0.622262,-0.297642,-1.035188,-0.001465,0.041505,4.272461,4.943848,-12.023926,0,0
11783,2024 10 17,09:01:38.179,-0.675885,-0.261987,0.62145,-0.297224,-1.04593,0.001465,0.087405,4.02832,8.605957,-13.183594,0,0
11784,2024 10 17,09:01:38.187,-0.676674,-0.262801,0.620455,-0.296788,-1.009796,0.053224,0.099124,3.234863,8.483887,-15.869141,0,0
11785,2024 10 17,09:01:38.196,-0.676674,-0.262801,0.620455,-0.296788,-1.009796,0.053224,0.099124,3.234863,8.483887,-15.869141,0,0
11786,2024 10 17,09:01:38.204,-0.677343,-0.263915,0.619488,-0.296293,-1.057161,0.024415,0.097659,6.469727,6.04248,-17.883301,0,0
11787,2024 10 17,09:01:38.212,-0.677993,-0.265285,0.618576,-0.295489,-1.092807,-0.000488,0.050783,6.835938,4.577637,-21.972656,0,0
11788,2024 10 17,09:01:38.221,-0.678818,-0.266801,0.617574,-0.294322,-1.148473,0.022462,0.056642,3.601074,5.004883,-27.160645,0,0
11789,2024 10 17,09:01:38.229,-0.679829,-0.268468,0.616588,-0.292534,-1.122105,0.0,0.071291,0.549316,3.90625,-33.813477,0,0
11790,2024 10 17,09:01:38.237,-0.681113,-0.270283,0.615461,-0.29024,-1.167028,-0.018067,0.042482,-3.295898,5.004883,-40.405273,0,0
11791,2024 10 17,09:01:38.246,-0.681113,-0.270283,0.615461,-0.29024,-1.167028,-0.018067,0.042482,-3.295898,5.004883,-40.405273,0,0
11792,2024 10 17,09:01:38.254,-0.682786,-0.272194,0.614191,-0.287199,-1.192419,0.009766,0.037599,-9.460449,6.408691,-48.950195,0,0
11793,2024 10 17,09:01:38.262,-0.684751,-0.274359,0.612722,-0.283577,-1.225135,0.013184,0.108402,-9.94873,7.324219,-57.006836,0,0
11794,2024 10 17,09:01:38.271,-0.686991,-0.276934,0.611047,-0.279235,-1.293985,0.041993,0.070315,-12.023926,6.530762,-67.871094,0,0
11795,2024 10 17,09:01:38.279,-0.689568,-0.280071,0.609011,-0.274158,-1.373089,0.048341,0.062502,-12.756348,9.094238,-80.444336,0,0
11796,2024 10 17,09:01:38.287,-0.692776,-0.283691,0.606233,-0.268445,-1.32963,0.064455,0.103519,-12.390137,16.967773,-93.383789,0,0
11797,2024 10 17,09:01:38.296,-0.692776,-0.283691,0.606233,-0.268445,-1.32963,0.064455,0.103519,-12.390137,16.967773,-93.383789,0,0
11798,2024 10 17,09:01:38.304,-0.696386,-0.287987,0.602714,-0.262385,-1.282754,0.052248,0.160649,-6.896973,20.996094,-104.125977,0,0
11799,2024 10 17,09:01:38.312,-0.700202,-0.293074,0.598526,-0.256108,-1.274453,0.04883,0.049806,-0.732422,24.353027,-113.708496,0,0
11800,2024 10 17,09:01:38.321,-0.703955,-0.299093,0.593886,-0.249581,-1.518601,0.084475,0.124516,5.371094,23.376465,-124.938965,0,0
11801,2024 10 17,09:01:38.329,-0.70823,-0.305986,0.588394,-0.242023,-1.645558,0.110355,0.10596,5.554199,30.395508,-146.484375,0,0
11802,2024 10 17,09:01:38.337,-0.713396,-0.313865,0.581469,-0.233342,-1.769585,0.135258,0.015625,7.263184,41.748047,-170.593262,0,0
11803,2024 10 17,09:01:38.346,-0.713396,-0.313865,0.581469,-0.233342,-1.769585,0.135258,0.015625,7.263184,41.748047,-170.593262,0,0
11804,2024 10 17,09:01:38.354,-0.719087,-0.323017,0.573516,-0.222829,-1.904355,0.205573,0.077639,5.371094,42.419434,-201.35498,0,0
11805,2024 10 17,09:01:38.362,-0.725815,-0.333498,0.56347,-0.210888,-1.957579,0.23487,0.043458,9.94873,62.438965,-233.703613,0,0
11806,2024 10 17,09:01:38.371,-0.733334,-0.345469,0.55141,-0.197028,-2.046937,0.317881,0.007813,11.169434,68.603516,-270.385742,0,0
11807,2024 10 17,09:01:38.379,-0.7414,-0.359022,0.537299,-0.180939,-2.302805,0.353038,-0.030274,12.634277,80.749512,-310.668945,0,0
11808,2024 10 17,09:01:38.387,-0.750204,-0.37415,0.520448,-0.162293,-2.56795,0.424818,-0.164556,14.099121,94.787598,-357.666016,0,0
11809,2024 10 17,09:01:38.396,-0.750204,-0.37415,0.520448,-0.162293,-2.56795,0.424818,-0.164556,14.099121,94.787598,-357.666016,0,0
11810,2024 10 17,09:01:38.404,-0.758567,-0.391232,0.50188,-0.14011,-2.884365,0.523942,0.134281,12.390137,83.251953,-409.179688,0,0
11811,2024 10 17,09:01:38.412,-0.767302,-0.40985,0.47947,-0.115668,-2.952727,0.497574,0.315439,22.338867,117.30957,-454.833984,0,0
11812,2024 10 17,09:01:38.421,-0.775746,-0.430001,0.453021,-0.089937,-2.988861,0.223151,0.440931,35.095215,138.793945,-491.333008,0,0
11813,2024 10 17,09:01:38.429,-0.783124,-0.451017,0.423375,-0.063663,-2.871181,0.026368,0.172369,44.98291,156.860352,-510.314941,0,0
11814,2024 10 17,09:01:38.437,-0.789688,-0.471061,0.391252,-0.037629,-2.51619,-0.023438,-0.064455,43.945313,179.6875,-513.000488,0,1
11815,2024 10 17,09:01:38.446,-0.789688,-0.471061,0.391252,-0.037629,-2.51619,-0.023438,-0.064455,43.945313,179.6875,-513.000488,0,0
11816,2024 10 17,09:01:38.454,-0.794927,-0.489391,0.358401,-0.011696,-2.439039,0.096683,-0.304697,32.775879,171.386719,-502.868652,0,0
11817,2024 10 17,09:01:38.462,-0.798667,-0.505657,0.325965,0.013752,-2.366283,0.36964,-0.238289,27.22168,171.508789,-489.257813,0,0
11818,2024 10 17,09:01:38.471,-0.80107,-0.520462,0.293164,0.038214,-1.676809,0.901883,-0.684103,24.291992,173.828125,-474.914551,0,0
11819,2024 10 17,09:01:38.479,-0.801389,-0.533609,0.26323,0.061208,-1.692434,0.697775,-0.948271,29.296875,135.986328,-432.128906,0,0
11820,2024 10 17,09:01:38.487,-0.800117,-0.544226,0.237464,0.085093,-1.397504,1.065951,-0.830103,1.708984,90.209961,-418.823242,0,0
11821,2024 10 17,09:01:38.496,-0.800117,-0.544226,0.237464,0.085093,-1.397504,1.065951,-0.830103,1.708984,90.209961,-418.823242,0,0
11822,2024 10 17,09:01:38.504,-0.799854,-0.551149,0.21241,0.106538,0.907254,0.712424,-1.904843,-23.193359,112.731934,-352.172852,0,0
11823,2024 10 17,09:01:38.512,-0.800845,-0.55329,0.195287,0.119919,1.569872,0.510758,-0.621113,-64.086914,46.99707,-184.204102,0,0
11824,2024 10 17,09:01:38.521,-0.80589,-0.546731,0.191543,0.122221,0.304209,1.18656,-0.26075,-115.539551,31.921387,36.804199,0,0
11825,2024 10 17,09:01:38.529,-0.812892,-0.536782,0.197075,0.110606,0.070803,1.124058,-0.561052,-102.661133,5.310059,212.341309,0,0
11826,2024 10 17,09:01:38.537,-0.81938,-0.525422,0.210416,0.090958,-0.634785,0.883816,0.053713,-72.44873,5.187988,319.702148,0,0
11827,2024 10 17,09:01:38.546,-0.824985,-0.514168,0.224973,0.066467,-0.832057,0.666524,-0.30665,-60.546875,11.474609,350.036621,0,0
11828,2024 10 17,09:01:38.554,-0.824985,-0.514168,0.224973,0.066467,-0.832057,0.666524,-0.30665,-60.546875,11.474609,350.036621,0,0
11829,2024 10 17,09:01:38.562,-0.828763,-0.503698,0.240087,0.04241,-0.896023,0.480972,-0.229499,-45.715332,1.77002,335.449219,0,0
11830,2024 10 17,09:01:38.571,-0.831302,-0.493992,0.253947,0.020505,-0.864772,0.283212,-0.532731,-37.963867,-3.601074,302.856445,0,0
11831,2024 10 17,09:01:38.579,-0.832671,-0.485019,0.267233,0.001037,-0.754418,0.197272,-0.493179,-35.217285,-12.695313,277.34375,0,0
11832,2024 10 17,09:01:38.587,-0.833392,-0.476146,0.280071,-0.017393,-0.531754,0.22364,-0.534196,-33.447266,-17.822266,270.446777,0,0
11833,2024 10 17,09:01:38.596,-0.833165,-0.46706,0.29396,-0.035763,-0.463393,0.272958,-0.34669,-30.212402,-32.409668,281.066895,0,0
11834,2024 10 17,09:01:38.604,-0.833165,-0.46706,0.29396,-0.035763,-0.463393,0.272958,-0.34669,-30.212402,-32.409668,281.066895,0,0
11835,2024 10 17,09:01:38.612,-0.831926,-0.457471,0.30918,-0.055019,-0.533708,0.281747,-0.384777,-26.062012,-43.762207,300.537109,0,0
11836,2024 10 17,09:01:38.621,-0.829404,-0.447366,0.326015,-0.075274,-0.648457,0.239753,-0.341807,-21.54541,-57.922363,320.556641,0,0
11837,2024 10 17,09:01:38.629,-0.825565,-0.436752,0.34416,-0.096148,-0.720725,0.187994,-0.296884,-19.104004,-71.960449,334.228516,0,0
11838,2024 10 17,09:01:38.637,-0.820348,-0.42576,0.363382,-0.117098,-0.807154,0.118168,-0.26661,-16.967773,-86.730957,342.041016,0,0
11839,2024 10 17,09:01:38.646,-0.813802,-0.414376,0.383479,-0.137708,-0.917508,0.06006,-0.26368,-17.150879,-101.379395,345.64209,0,0
11840,2024 10 17,09:01:38.654,-0.813802,-0.414376,0.383479,-0.137708,-0.917508,0.06006,-0.26368,-17.150879,-101.379395,345.64209,0,0
11841,2024 10 17,09:01:38.662,-0.805967,-0.402671,0.404262,-0.157627,-1.045442,0.021485,-0.210456,-18.127441,-115.966797,344.665527,0,0
11842,2024 10 17,09:01:38.671,-0.797007,-0.390766,0.4253,-0.176639,-1.110874,0.015137,-0.161626,-19.470215,-126.159668,339.660645,0,0
11843,2024 10 17,09:01:38.679,-0.787019,-0.378722,0.446404,-0.194664,-1.150426,0.013184,-0.129398,-20.935059,-136.71875,333.862305,0,0
11844,2024 10 17,09:01:38.687,-0.775867,-0.366635,0.467683,-0.211853,-1.303262,0.022462,-0.073244,-20.141602,-147.338867,330.932617,0,0
11845,2024 10 17,09:01:38.696,-0.763704,-0.354476,0.488719,-0.228597,-1.483932,0.043947,0.009278,-17.272949,-150.268555,328.857422,0,0
11846,2024 10 17,09:01:38.704,-0.763704,-0.354476,0.488719,-0.228597,-1.483932,0.043947,0.009278,-17.272949,-150.268555,328.857422,0,0
11847,2024 10 17,09:01:38.712,-0.750815,-0.34226,0.508809,-0.245454,-1.608448,0.068361,0.044435,-10.986328,-143.615723,328.735352,0,0
11848,2024 10 17,09:01:38.721,-0.737332,-0.330013,0.527628,-0.262758,-1.689016,0.067385,0.041505,-1.953125,-133.972168,329.772949,0,0
11849,2024 10 17,09:01:38.729,-0.723233,-0.317906,0.545185,-0.280435,-1.757866,0.021485,-0.021973,7.202148,-127.197266,328.979492,0,0
11850,2024 10 17,09:01:38.737,-0.70841,-0.306121,0.561797,-0.298044,-1.838435,-0.041993,-0.053224,14.465332,-126.342773,325.195313,0,0
11851,2024 10 17,09:01:38.746,-0.692851,-0.294682,0.577742,-0.315174,-1.892148,-0.099612,-0.148442,18.127441,-129.882813,320.129395,0,0
11852,2024 10 17,09:01:38.754,-0.692851,-0.294682,0.577742,-0.315174,-1.892148,-0.099612,-0.148442,18.127441,-129.882813,320.129395,0,0
11853,2024 10 17,09:01:38.762,-0.676253,-0.283731,0.593466,-0.331627,-2.003967,-0.139653,-0.114261,21.911621,-139.770508,315.368652,0,0
11854,2024 10 17,09:01:38.771,-0.6587,-0.273391,0.608809,-0.347452,-2.106021,-0.169439,-0.046388,27.770996,-148.010254,308.776855,0,0
11855,2024 10 17,09:01:38.779,-0.640231,-0.264103,0.623511,-0.36275,-2.253975,-0.241707,0.013672,38.879395,-155.090332,299.072266,0,0
11856,2024 10 17,09:01:38.787,-0.621143,-0.2561,0.637181,-0.377617,-2.349193,-0.362316,0.039552,51.452637,-158.508301,286.865234,0,0
11857,2024 10 17,09:01:38.796,-0.601637,-0.249381,0.649724,-0.392046,-2.331126,-0.583514,-0.000488,62.561035,-160.339355,274.291992,0,0
11858,2024 10 17,09:01:38.804,-0.601637,-0.249381,0.649724,-0.392046,-2.331126,-0.583514,-0.000488,62.561035,-160.339355,274.291992,0,0
11859,2024 10 17,09:01:38.812,-0.581827,-0.243638,0.6614,-0.405793,-2.254463,-0.917508,-0.086917,67.626953,-163.879395,263.793945,0,0
11860,2024 10 17,09:01:38.821,-0.561615,-0.23859,0.672727,-0.418452,-2.291085,-1.31547,-0.109378,65.246582,-171.020508,254.577637,0,0
11861,2024 10 17,09:01:38.829,-0.541482,-0.233832,0.683711,-0.42972,-2.244209,-1.663625,-0.060549,55.969238,-172.180176,244.32373,0,0
11862,2024 10 17,09:01:38.837,-0.521827,-0.229254,0.694394,-0.439268,-1.988342,-1.827204,0.171392,44.250488,-172.912598,228.820801,0,0
11863,2024 10 17,09:01:38.846,-0.502791,-0.226009,0.704559,-0.446897,-1.680715,-1.988342,0.59328,39.611816,-180.908203,198.608398,0,0
11864,2024 10 17,09:01:38.854,-0.502791,-0.226009,0.704559,-0.446897,-1.680715,-1.988342,0.59328,39.611816,-180.908203,198.608398,0,0
11865,2024 10 17,09:01:38.862,-0.48429,-0.225798,0.714008,-0.452406,-1.492721,-2.173406,1.158727,44.067383,-197.387695,155.090332,0,0
11866,2024 10 17,09:01:38.871,-0.466163,-0.229232,0.72218,-0.456729,-1.704154,-2.487869,1.719291,62.316895,-209.899902,116.760254,0,0
11867,2024 10 17,09:01:38.879,-0.449828,-0.234659,0.727742,-0.4615,-2.201239,-2.801355,1.821345,86.303711,-179.443359,91.308594,0,0
11868,2024 10 17,09:01:38.887,-0.438866,-0.239849,0.728723,-0.467794,-2.421461,-3.181249,1.645558,104.919434,-91.97998,60.302734,0,0
11869,2024 10 17,09:01:38.896,-0.436539,-0.243448,0.724829,-0.47412,-1.868709,-3.242775,0.941923,92.773438,11.71875,11.413574,0,0
11870,2024 10 17,09:01:38.904,-0.436539,-0.243448,0.724829,-0.47412,-1.868709,-3.242775,0.941923,92.773438,11.71875,11.413574,0,0
11871,2024 10 17,09:01:38.912,-0.439581,-0.246751,0.719534,-0.477655,-1.1348,-2.836512,0.491226,56.45752,40.466309,-31.188965,0,0
11872,2024 10 17,09:01:38.921,-0.442605,-0.254636,0.721707,-0.467334,-7.063692,-5.550462,4.654927,-160.705566,-150.32959,-183.959961,0,0
11873,2024 10 17,09:01:38.929,-0.458916,-0.273453,0.717414,-0.447143,-0.83694,-1.448775,0.165533,-135.314941,109.49707,-319.580078,0,0
11874,2024 10 17,09:01:38.937,-0.491881,-0.277213,0.709068,-0.422407,-0.507828,1.543016,-0.921415,-200.012207,202.575684,-349.731445,1,0
11875,2024 10 17,09:01:38.946,-0.507801,-0.291138,0.704542,-0.401245,-2.022523,1.198279,-0.970244,-150.756836,-26.184082,-335.81543,0,0
11876,2024 10 17,09:01:38.954,-0.522973,-0.306037,0.696494,-0.384366,-2.412671,-0.46144,0.846217,-13.122559,93.200684,-308.349609,0,0
11877,2024 10 17,09:01:38.962,-0.522973,-0.306037,0.696494,-0.384366,-2.412671,-0.46144,0.846217,-13.122559,93.200684,-308.349609,0,0
11878,2024 10 17,09:01:38.971,-0.542555,-0.318552,0.679116,-0.378101,-1.67925,-0.010254,-0.373547,60.546875,182.434082,-268.066406,0,0
11879,2024 10 17,09:01:38.979,-0.555704,-0.329872,0.663114,-0.3777,-1.888241,-0.491226,0.468764,75.683594,153.259277,-183.227539,0,0
11880,2024 10 17,09:01:38.987,-0.570189,-0.334317,0.646944,-0.380237,-1.436567,0.093265,-0.440931,77.941895,209.411621,-123.413086,0,0
11881,2024 10 17,09:01:38.996,-0.579498,-0.339458,0.631302,-0.387825,-1.213416,-0.145512,0.0,128.295898,168.273926,-77.880859,0,0
11882,2024 10 17,09:01:39.004,-0.586417,-0.343355,0.616855,-0.39713,-0.949248,-0.37257,0.006836,127.01416,165.222168,-44.067383,0,0
11883,2024 10 17,09:01:39.012,-0.586417,-0.343355,0.616855,-0.39713,-0.949248,-0.37257,0.006836,127.01416,165.222168,-44.067383,0,0
11884,2024 10 17,09:01:39.021,-0.592289,-0.34501,0.605676,-0.404126,-0.908719,-0.146001,-0.24659,74.890137,123.22998,-30.944824,0,0
11885,2024 10 17,09:01:39.029,-0.596231,-0.346354,0.597916,-0.40871,-1.070833,0.037599,0.107913,61.401367,87.70752,-24.108887,0,0
11886,2024 10 17,09:01:39.037,-0.599673,-0.347399,0.590034,-0.414206,-0.967315,-0.064943,0.051759,68.847656,96.008301,-14.221191,0,0
11887,2024 10 17,09:01:39.046,-0.60243,-0.348065,0.583384,-0.419037,-0.91995,-0.035157,0.004395,53.344727,72.08252,-9.216309,0,0
11888,2024 10 17,09:01:39.054,-0.604082,-0.348869,0.578757,-0.422393,-0.9888,-0.020508,0.119144,39.916992,49.01123,-8.117676,0,0
11889,2024 10 17,09:01:39.062,-0.604082,-0.348869,0.578757,-0.422393,-0.9888,-0.020508,0.119144,39.916992,49.01123,-8.117676,0,0
11890,2024 10 17,09:01:39.071,-0.605688,-0.349307,0.575036,-0.424806,-0.931181,0.011719,0.079104,26.245117,41.259766,-9.094238,0,0
11891,2024 10 17,09:01:39.079,-0.606851,-0.349848,0.572521,-0.426097,-1.013214,0.00586,0.053224,18.676758,23.864746,-10.131836,0,0
11892,2024 10 17,09:01:39.087,-0.60792,-0.350338,0.570459,-0.426935,-1.014191,0.02002,0.107913,14.831543,23.376465,-10.498047,0,0
11893,2024 10 17,09:01:39.096,-0.609165,-0.350561,0.568457,-0.427647,-0.95999,0.018067,0.031251,8.728027,22.888184,-10.498047,0,0
11894,2024 10 17,09:01:39.104,-0.610144,-0.350882,0.567159,-0.427712,-1.023469,0.024415,0.074709,4.455566,12.390137,-11.779785,0,0
11895,2024 10 17,09:01:39.112,-0.610144,-0.350882,0.567159,-0.427712,-1.023469,0.024415,0.074709,4.455566,12.390137,-11.779785,0,0
11896,2024 10 17,09:01:39.121,-0.611186,-0.351168,0.565971,-0.427563,-1.009308,0.060549,0.098636,2.380371,13.977051,-12.939453,0,0
11897,2024 10 17,09:01:39.129,-0.612201,-0.351487,0.564796,-0.427402,-0.983917,0.047853,0.076662,2.441406,11.71875,-13.122559,0,0
11898,2024 10 17,09:01:39.137,-0.61304,-0.35198,0.563792,-0.427119,-1.020539,0.055177,0.104495,3.356934,8.483887,-13.549805,0,0
11899,2024 10 17,09:01:39.146,-0.61386,-0.352545,0.562763,-0.426833,-0.995148,0.049806,0.10596,3.90625,8.850098,-13.916016,0,0
11900,2024 10 17,09:01:39.154,-0.614528,-0.353387,0.561787,-0.426461,-0.958037,0.047853,0.125004,6.713867,3.78418,-15.625,0,0
11901,2024 10 17,09:01:39.162,-0.614528,-0.353387,0.561787,-0.426461,-0.958037,0.047853,0.125004,6.713867,3.78418,-15.625,0,0
11902,2024 10 17,09:01:39.171,-0.614928,-0.354555,0.560986,-0.42597,-0.964873,0.033692,0.123051,6.408691,-0.305176,-16.540527,0,0
11903,2024 10 17,09:01:39.179,-0.615252,-0.355829,0.560378,-0.425238,-0.955596,0.028321,0.121586,6.225586,-3.540039,-17.51709,0,0
11904,2024 10 17,09:01:39.187,-0.615484,-0.357191,0.559856,-0.424446,-0.952666,0.024903,0.126957,5.310059,-5.310059,-17.76123,0,0
11905,2024 10 17,09:01:39.196,-0.615631,-0.358582,0.559474,-0.423564,-0.980987,0.015625,0.117191,5.187988,-7.080078,-17.51709,0,0
11906,2024 10 17,09:01:39.204,-0.615866,-0.359868,0.559048,-0.422693,-0.962432,0.018067,0.100101,4.272461,-4.943848,-17.028809,0,0
11907,2024 10 17,09:01:39.212,-0.615866,-0.359868,0.559048,-0.422693,-0.962432,0.018067,0.100101,4.272461,-4.943848,-17.028809,0,0
11908,2024 10 17,09:01:39.221,-0.616044,-0.361104,0.558689,-0.421853,-0.982452,0.010743,0.110843,4.150391,-6.04248,-15.930176,0,0
11909,2024 10 17,09:01:39.229,-0.616265,-0.362215,0.558267,-0.421136,-0.991729,-0.006348,0.067873,4.089355,-2.624512,-14.648438,0,0
11910,2024 10 17,09:01:39.237,-0.616592,-0.363113,0.557807,-0.420493,-0.967803,-0.007324,0.08301,2.380371,-1.89209,-13.48877,0,0
11911,2024 10 17,09:01:39.246,-0.61687,-0.363919,0.557494,-0.419803,-0.979034,0.000977,0.10889,1.525879,-2.502441,-12.207031,0,0
11912,2024 10 17,09:01:39.254,-0.617213,-0.364563,0.557128,-0.419226,-0.978545,0.0,0.097171,0.732422,-0.305176,-11.047363,0,0
11913,2024 10 17,09:01:39.262,-0.617213,-0.364563,0.557128,-0.419226,-0.978545,0.0,0.097171,0.732422,-0.305176,-11.047363,0,0
11914,2024 10 17,09:01:39.271,-0.617553,-0.365136,0.556724,-0.418763,-0.998566,0.007324,0.100589,2.13623,0.488281,-9.94873,0,0
11915,2024 10 17,09:01:39.279,-0.617901,-0.365694,0.556235,-0.418412,-1.02591,0.011231,0.094241,2.685547,1.89209,-9.765625,0,0
11916,2024 10 17,09:01:39.287,-0.6183,-0.366271,0.555622,-0.418133,-1.032258,0.012207,0.089358,3.90625,3.601074,-10.253906,0,0
11917,2024 10 17,09:01:39.296,-0.6188,-0.366875,0.554799,-0.417957,-1.027375,0.014161,0.095218,5.249023,6.04248,-11.108398,0,0
11918,2024 10 17,09:01:39.304,-0.619362,-0.367507,0.553814,-0.417875,-1.02298,0.012696,0.08887,6.469727,7.263184,-11.59668,0,0
11919,2024 10 17,09:01:39.312,-0.619362,-0.367507,0.553814,-0.417875,-1.02298,0.012696,0.08887,6.469727,7.263184,-11.59668,0,0
11920,2024 10 17,09:01:39.321,-0.61987,-0.368247,0.552883,-0.417703,-1.022004,0.01709,0.112308,6.347656,5.493164,-12.573242,0,0
11921,2024 10 17,09:01:39.329,-0.620426,-0.369046,0.551875,-0.417504,-1.026887,-0.000488,0.104007,7.507324,6.225586,-13.793945,0,0
11922,2024 10 17,09:01:39.337,-0.620942,-0.370021,0.550897,-0.417166,-1.038118,0.002441,0.101566,7.93457,3.417969,-15.50293,0,0
11923,2024 10 17,09:01:39.346,-0.621429,-0.3712,0.550001,-0.416577,-1.050325,0.011231,0.120609,7.141113,1.342773,-18.432617,0,0
11924,2024 10 17,09:01:39.354,-0.621949,-0.372596,0.548968,-0.415915,-1.046907,0.018067,0.125492,7.507324,0.671387,-21.54541,0,0
11925,2024 10 17,09:01:39.362,-0.621949,-0.372596,0.548968,-0.415915,-1.046907,0.018067,0.125492,7.507324,0.671387,-21.54541,0,0
11926,2024 10 17,09:01:39.371,-0.622485,-0.374242,0.547941,-0.414989,-1.090854,0.007324,0.129887,8.850098,-1.77002,-25.024414,0,0
11927,2024 10 17,09:01:39.379,-0.62319,-0.376137,0.546856,-0.413646,-1.105014,0.015625,0.099612,6.286621,-2.624512,-31.25,0,0
11928,2024 10 17,09:01:39.387,-0.624051,-0.378306,0.545665,-0.41194,-1.132359,-0.012696,0.095218,5.737305,-3.90625,-36.865234,0,0
11929,2024 10 17,09:01:39.396,-0.625245,-0.380595,0.544401,-0.409687,-1.149937,0.001953,0.118656,2.990723,-3.90625,-43.273926,0,0
11930,2024 10 17,09:01:39.404,-0.626743,-0.383114,0.542979,-0.406929,-1.195837,0.02002,0.114261,-0.427246,-4.394531,-51.208496,0,0
11931,2024 10 17,09:01:39.412,-0.628613,-0.385926,0.541309,-0.403598,-1.274941,0.005371,0.099612,-1.037598,-4.089355,-60.241699,0,0
11932,2024 10 17,09:01:39.421,-0.628613,-0.385926,0.541309,-0.403598,-1.274941,0.005371,0.099612,-1.037598,-4.089355,-60.241699,0,0
11933,2024 10 17,09:01:39.429,-0.631011,-0.38904,0.539349,-0.399468,-1.3184,0.021973,0.075686,-5.67627,-3.356934,-72.44873,0,0
11934,2024 10 17,09:01:39.437,-0.633967,-0.392539,0.536983,-0.394522,-1.354045,0.025391,0.101077,-7.751465,-1.831055,-85.388184,0,0
11935,2024 10 17,09:01:39.446,-0.637554,-0.396484,0.533966,-0.388852,-1.40141,0.051759,0.105472,-8.789063,2.01416,-99.731445,0,0
11936,2024 10 17,09:01:39.454,-0.641864,-0.400866,0.530037,-0.382593,-1.44438,0.095218,0.132328,-7.8125,9.643555,-114.501953,0,0
11937,2024 10 17,09:01:39.462,-0.646945,-0.40577,0.524901,-0.375889,-1.512741,0.049318,0.097171,-4.394531,18.798828,-130.432129,0,0
11938,2024 10 17,09:01:39.471,-0.646945,-0.40577,0.524901,-0.375889,-1.512741,0.049318,0.097171,-4.394531,18.798828,-130.432129,0,0
11939,2024 10 17,09:01:39.479,-0.652951,-0.411213,0.518622,-0.368226,-1.63921,0.092776,0.068361,-7.324219,25.45166,-151.916504,0,0
11940,2024 10 17,09:01:39.487,-0.660003,-0.417327,0.511081,-0.359208,-1.750542,0.135746,0.020997,-9.094238,32.775879,-177.734375,0,0
11941,2024 10 17,09:01:39.496,-0.668107,-0.424331,0.501952,-0.348742,-1.860408,0.167974,0.030274,-9.399414,41.137695,-208.007813,0,0
11942,2024 10 17,09:01:39.504,-0.677518,-0.432187,0.490613,-0.336871,-2.048891,0.259774,-0.011719,-8.361816,56.762695,-240.783691,0,0
11943,2024 10 17,09:01:39.512,-0.688065,-0.441273,0.476968,-0.323027,-2.348705,0.386731,0.018067,-5.67627,65.429688,-282.226563,0,0
11944,2024 10 17,09:01:39.521,-0.688065,-0.441273,0.476968,-0.323027,-2.348705,0.386731,0.018067,-5.67627,65.429688,-282.226563,0,0
11945,2024 10 17,09:01:39.529,-0.700015,-0.451703,0.4601,-0.307003,-2.738365,0.511246,-0.027833,-3.356934,87.280273,-332.336426,0,0
11946,2024 10 17,09:01:39.537,-0.7133,-0.463722,0.43921,-0.288547,-3.128025,0.738304,0.281259,9.033203,105.957031,-389.282227,0,0
11947,2024 10 17,09:01:39.546,-0.727423,-0.477593,0.413325,-0.268185,-3.202246,0.74514,0.393078,28.076172,140.625,-445.373535,0,0
11948,2024 10 17,09:01:39.554,-0.741617,-0.492951,0.382012,-0.247125,-2.694418,0.420911,0.456557,56.518555,173.76709,-482.910156,0,0
11949,2024 10 17,09:01:39.562,-0.754175,-0.509365,0.34878,-0.223874,-2.529374,0.469741,0.385754,59.692383,153.076172,-508.056641,0,1
11950,2024 10 17,09:01:39.571,-0.754175,-0.509365,0.34878,-0.223874,-2.529374,0.469741,0.385754,59.692383,153.076172,-508.056641,0,0
11951,2024 10 17,09:01:39.579,-0.765008,-0.525282,0.314369,-0.200033,-2.282784,0.229499,0.339854,70.800781,170.349121,-507.385254,0,0
11952,2024 10 17,09:01:39.587,-0.774744,-0.53927,0.278336,-0.177448,-1.81988,0.292001,-0.11475,68.847656,184.875488,-491.516113,0,0
11953,2024 10 17,09:01:39.596,-0.781711,-0.552715,0.243498,-0.155378,-2.055238,0.364757,-0.050295,82.15332,168.029785,-472.229004,0,0
11954,2024 10 17,09:01:39.604,-0.786715,-0.565312,0.208445,-0.13436,-1.810114,0.505387,-0.41261,86.669922,180.725098,-460.998535,0,0
11955,2024 10 17,09:01:39.612,-0.790963,-0.575085,0.173995,-0.11567,-1.340861,0.882351,-0.814478,58.349609,187.866211,-416.015625,0,0
11956,2024 10 17,09:01:39.621,-0.790963,-0.575085,0.173995,-0.11567,-1.340861,0.882351,-0.814478,58.349609,187.866211,-416.015625,0,0
11957,2024 10 17,09:01:39.629,-0.792905,-0.58333,0.14415,-0.101233,-1.586474,0.404797,-0.606952,71.411133,169.494629,-336.120605,0,0
11958,2024 10 17,09:01:39.637,-0.794668,-0.58881,0.113794,-0.094111,-0.058596,1.376019,-0.539567,53.344727,261.413574,-268.371582,0,0
11959,2024 10 17,09:01:39.646,-0.79514,-0.592657,0.077999,-0.102109,1.883847,2.65389,-1.742729,92.834473,400.634766,-139.282227,0,0
11960,2024 10 17,09:01:39.654,-0.790024,-0.598976,0.05653,-0.117876,1.770562,-1.086459,-2.000549,140.869141,219.726563,72.998047,0,0
11961,2024 10 17,09:01:39.662,-0.786096,-0.599433,0.062795,-0.137075,-0.534196,1.205603,-0.279794,34.851074,61.401367,270.202637,0,0
11962,2024 10 17,09:01:39.671,-0.786096,-0.599433,0.062795,-0.137075,-0.534196,1.205603,-0.279794,34.851074,61.401367,270.202637,0,0
11963,2024 10 17,09:01:39.679,-0.780167,-0.598959,0.071879,-0.165594,-0.312998,0.551775,-1.793512,16.540527,110.656738,334.228516,0,0
11964,2024 10 17,09:01:39.687,-0.773603,-0.597922,0.088302,-0.190344,-1.110385,-0.041993,-0.465834,13.427734,3.234863,341.064453,0,0
11965,2024 10 17,09:01:39.696,-0.768752,-0.594247,0.103348,-0.212629,-1.152379,-0.139653,-1.207068,-16.540527,32.592773,298.400879,0,0
11966,2024 10 17,09:01:39.704,-0.764814,-0.589838,0.118367,-0.230519,-1.056673,0.077151,-0.74221,-37.475586,-12.390137,262.329102,0,0
11967,2024 10 17,09:01:39.712,-0.761328,-0.584283,0.132263,-0.247991,-0.990753,0.234382,-0.579608,-41.137695,23.620605,260.437012,0,0
11968,2024 10 17,09:01:39.721,-0.761328,-0.584283,0.132263,-0.247991,-0.990753,0.234382,-0.579608,-41.137695,23.620605,260.437012,0,0
11969,2024 10 17,09:01:39.729,-0.757183,-0.577629,0.144545,-0.26856,-0.983428,0.30079,-0.542009,-33.569336,49.804688,286.376953,0,0
11970,2024 10 17,09:01:39.737,-0.751559,-0.570076,0.15659,-0.292663,-1.012726,0.271004,-0.393078,-24.291992,82.092285,323.059082,0,0
11971,2024 10 17,09:01:39.746,-0.744267,-0.561292,0.167964,-0.320634,-0.943388,0.15186,-0.612812,-15.380859,108.032227,359.25293,0,0
11972,2024 10 17,09:01:39.754,-0.735156,-0.551695,0.179994,-0.3504,-0.901883,-0.001953,-0.610859,-11.84082,111.022949,384.94873,0,0
11973,2024 10 17,09:01:39.762,-0.724677,-0.541192,0.192828,-0.380488,-0.781762,-0.08594,-0.730003,-15.686035,102.233887,397.949219,0,0
11974,2024 10 17,09:01:39.771,-0.724677,-0.541192,0.192828,-0.380488,-0.781762,-0.08594,-0.730003,-15.686035,102.233887,397.949219,0,0
11975,2024 10 17,09:01:39.779,-0.712917,-0.530631,0.207545,-0.408785,-0.848659,-0.054201,-0.661153,-19.897461,68.908691,397.644043,0,0
11976,2024 10 17,09:01:39.787,-0.69996,-0.52088,0.223656,-0.434417,-0.986847,-0.023927,-0.594256,-16.845703,35.095215,385.192871,0,0
11977,2024 10 17,09:01:39.796,-0.685866,-0.51238,0.240266,-0.457522,-1.064486,0.031739,-0.546892,-5.67627,9.338379,370.056152,0,0
11978,2024 10 17,09:01:39.804,-0.670333,-0.505543,0.256516,-0.478832,-1.24955,0.056154,-0.514664,15.136719,-9.338379,357.116699,0,0
11979,2024 10 17,09:01:39.812,-0.653284,-0.500425,0.271687,-0.49898,-1.369182,0.043947,-0.460463,40.588379,-19.165039,345.275879,0,0
11980,2024 10 17,09:01:39.821,-0.653284,-0.500425,0.271687,-0.49898,-1.369182,0.043947,-0.460463,40.588379,-19.165039,345.275879,0,0
11981,2024 10 17,09:01:39.829,-0.634699,-0.496816,0.285567,-0.518442,-1.414594,0.004395,-0.528825,66.833496,-27.404785,338.928223,0,0
11982,2024 10 17,09:01:39.837,-0.61419,-0.494624,0.298708,-0.537486,-1.538133,-0.017579,-0.55031,89.599609,-38.635254,340.881348,0,0
11983,2024 10 17,09:01:39.846,-0.591675,-0.49329,0.311133,-0.55658,-1.669973,-0.057131,-0.644063,110.534668,-43.945313,347.595215,0,0
11984,2024 10 17,09:01:39.854,-0.5673,-0.49257,0.322786,-0.575635,-1.792047,-0.118168,-0.670431,130.249023,-48.522949,352.294922,0,0
11985,2024 10 17,09:01:39.862,-0.541525,-0.492359,0.333328,-0.594327,-1.853572,-0.189947,-0.753441,146.30127,-51.330566,349.67041,0,0
11986,2024 10 17,09:01:39.871,-0.514695,-0.492847,0.342743,-0.612142,-1.838435,-0.267098,-0.797876,160.583496,-59.570313,342.407227,0,0
11987,2024 10 17,09:01:39.879,-0.514695,-0.492847,0.342743,-0.612142,-1.838435,-0.267098,-0.797876,160.583496,-59.570313,342.407227,0,0
11988,2024 10 17,09:01:39.887,-0.486907,-0.494217,0.351332,-0.628679,-1.8399,-0.278817,-0.812525,171.99707,-72.753906,334.594727,0,0
11989,2024 10 17,09:01:39.896,-0.457974,-0.496425,0.359343,-0.643967,-1.926817,-0.258797,-0.801782,182.312012,-87.219238,330.688477,0,0
11990,2024 10 17,09:01:39.904,-0.427804,-0.499308,0.366489,-0.658301,-2.021058,-0.280282,-0.771996,195.983887,-97.045898,327.209473,0,0
11991,2024 10 17,09:01:39.912,-0.396766,-0.502759,0.372412,-0.671654,-2.076235,-0.351573,-0.782739,208.92334,-104.248047,319.030762,0,0
11992,2024 10 17,09:01:39.921,-0.365251,-0.506766,0.376982,-0.68386,-2.050355,-0.439467,-0.812525,218.811035,-111.083984,307.495117,0,0
11993,2024 10 17,09:01:39.929,-0.365251,-0.506766,0.376982,-0.68386,-2.050355,-0.439467,-0.812525,218.811035,-111.083984,307.495117,0,0
11994,2024 10 17,09:01:39.937,-0.333655,-0.511341,0.380339,-0.694656,-1.940977,-0.57033,-0.845241,224.121094,-119.628906,293.029785,0,0
11995,2024 10 17,09:01:39.946,-0.302164,-0.516713,0.382873,-0.703643,-1.935606,-0.706076,-0.916532,223.876953,-135.131836,278.137207,0,0
11996,2024 10 17,09:01:39.954,-0.270829,-0.522928,0.385037,-0.710595,-2.080142,-0.805689,-0.89407,219.360352,-151.000977,266.052246,0,0
11997,2024 10 17,09:01:39.962,-0.239868,-0.529291,0.386932,-0.71596,-2.208564,-0.888699,-0.869167,212.402344,-156.982422,257.263184,0,0
11998,2024 10 17,09:01:39.971,-0.209722,-0.535426,0.388206,-0.720161,-2.271065,-1.051302,-0.855007,207.458496,-155.151367,244.140625,0,0
11999,2024 10 17,09:01:39.979,-0.209722,-0.535426,0.388206,-0.720161,-2.271065,-1.051302,-0.855007,207.458496,-155.151367,244.140625,0,0
12000,2024 10 17,09:01:39.987,-0.181047,-0.54138,0.388544,-0.7233,-2.14948,-1.289102,-0.928251,200.073242,-152.22168,224.121094,0,0
12001,2024 10 17,09:01:39.996,-0.154161,-0.547831,0.388037,-0.724943,-1.966369,-1.687063,-0.987335,189.63623,-158.081055,199.157715,0,0
12002,2024 10 17,09:01:40.004,-0.129381,-0.555485,0.387039,-0.724498,-1.838435,-2.126041,-1.083529,171.813965,-173.400879,170.715332,0,0
12003,2024 10 17,09:01:40.012,-0.107332,-0.564865,0.386174,-0.721302,-0.932646,-2.520097,-0.670431,137.329102,-193.54248,136.474609,0,0
12004,2024 10 17,09:01:40.020,-0.088078,-0.578278,0.385678,-0.713505,-0.907254,-2.920011,-0.55031,104.431152,-271.850586,90.942383,0,0
12005,2024 10 17,09:01:40.029,-0.088078,-0.578278,0.385678,-0.713505,-0.907254,-2.920011,-0.55031,104.431152,-271.850586,90.942383,0,0
12006,2024 10 17,09:01:40.037,-0.069499,-0.600295,0.386299,-0.696842,-2.769127,-3.06357,0.753929,58.654785,-393.310547,50.720215,0,0
12007,2024 10 17,09:01:40.045,-0.056119,-0.616849,0.384672,-0.684379,-3.270119,-3.110935,1.955138,61.584473,-218.261719,30.334473,0,0
12008,2024 10 17,09:01:40.054,-0.05139,-0.619315,0.380857,-0.684658,-1.945372,-3.094333,0.671407,63.110352,-6.408691,19.226074,0,0
12009,2024 10 17,09:01:40.062,-0.049589,-0.619516,0.377164,-0.68665,-1.419965,-2.780847,0.72805,43.029785,-1.77002,1.647949,0,0
12010,2024 10 17,09:01:40.070,-0.050062,-0.620484,0.373256,-0.687876,-2.518143,-1.736869,-0.272958,30.517578,6.286621,-25.512695,0,0
12011,2024 10 17,09:01:40.079,-0.050062,-0.620484,0.373256,-0.687876,-2.518143,-1.736869,-0.272958,30.517578,6.286621,-25.512695,0,0
12012,2024 10 17,09:01:40.087,-0.063292,-0.634251,0.362475,-0.67995,-0.129399,-2.203192,1.071322,-24.291992,-104.980469,-268.554688,0,0
12013,2024 10 17,09:01:40.095,-0.0854,-0.643551,0.352826,-0.673842,-0.717795,0.529313,-1.312052,-40.466309,-49.255371,-281.616211,1,0
12014,2024 10 17,09:01:40.104,-0.098584,-0.660291,0.342,-0.661312,-1.077181,1.835017,-0.205084,-91.369629,-178.100586,-273.498535,0,0
12015,2024 10 17,09:01:40.112,-0.108337,-0.677613,0.328644,-0.64892,-2.594317,-0.691427,-0.538591,15.441895,-152.46582,-257.385254,0,0
12016,2024 10 17,09:01:40.120,-0.124945,-0.684874,0.314886,-0.645122,-2.247627,-0.230964,0.549821,-32.897949,46.813965,-249.145508,0,0
12017,2024 10 17,09:01:40.129,-0.124945,-0.684874,0.314886,-0.645122,-2.247627,-0.230964,0.549821,-32.897949,46.813965,-249.145508,0,0
12018,2024 10 17,09:01:40.137,-0.140228,-0.684256,0.302034,-0.648772,-1.440474,-0.193854,-0.338878,-10.803223,101.68457,-188.171387,0,0
12019,2024 10 17,09:01:40.145,-0.150893,-0.684522,0.292772,-0.650343,-1.420942,0.039552,0.205084,-7.629395,54.260254,-135.192871,0,0
12020,2024 10 17,09:01:40.154,-0.159227,-0.681979,0.284494,-0.654686,-1.251503,0.213874,-0.146977,10.864258,110.046387,-104.064941,0,0
12021,2024 10 17,09:01:40.162,-0.164558,-0.678394,0.27606,-0.660676,-1.113315,-0.062502,-0.646016,41.015625,97.473145,-76.843262,0,0
12022,2024 10 17,09:01:40.170,-0.168082,-0.676794,0.269504,-0.664128,-1.179724,-0.014161,-0.000488,27.587891,59.143066,-61.828613,0,0
12023,2024 10 17,09:01:40.179,-0.168082,-0.676794,0.269504,-0.664128,-1.179724,-0.014161,-0.000488,27.587891,59.143066,-61.828613,0,0
12024,2024 10 17,09:01:40.187,-0.171669,-0.673986,0.263799,-0.668343,-1.109409,0.042482,-0.090823,22.155762,82.641602,-51.940918,0,0
12025,2024 10 17,09:01:40.195,-0.174997,-0.67059,0.258584,-0.672919,-1.0889,0.063478,-0.405774,22.399902,78.063965,-44.067383,0,0
12026,2024 10 17,09:01:40.204,-0.177092,-0.668025,0.253814,-0.676726,-1.197791,0.090823,-0.054201,28.747559,66.40625,-35.217285,0,0
12027,2024 10 17,09:01:40.212,-0.178614,-0.664212,0.248803,-0.681921,-1.122105,0.028321,-0.176763,36.621094,89.538574,-25.695801,0,0
12028,2024 10 17,09:01:40.220,-0.179456,-0.66032,0.244211,-0.68712,-0.984405,0.019044,-0.10303,36.010742,77.331543,-17.578125,0,0
12029,2024 10 17,09:01:40.229,-0.179456,-0.66032,0.244211,-0.68712,-0.984405,0.019044,-0.10303,36.010742,77.331543,-17.578125,0,0
12030,2024 10 17,09:01:40.237,-0.17957,-0.657349,0.240444,-0.691256,-1.052767,0.006348,0.011719,34.362793,60.60791,-10.803223,0,0
12031,2024 10 17,09:01:40.245,-0.179676,-0.654231,0.237226,-0.695286,-0.973174,0.018067,0.023438,26.794434,62.561035,-7.263184,0,0
12032,2024 10 17,09:01:40.254,-0.17999,-0.651622,0.234756,-0.698486,-0.934111,0.036134,-0.027345,18.310547,45.10498,-7.202148,0,0
12033,2024 10 17,09:01:40.262,-0.180336,-0.649987,0.23297,-0.700514,-0.980499,0.059572,0.105472,13.427734,31.12793,-7.080078,0,0
12034,2024 10 17,09:01:40.270,-0.180814,-0.648454,0.231388,-0.702334,-0.971221,0.083499,0.036134,8.605957,29.23584,-8.239746,0,0
12035,2024 10 17,09:01:40.279,-0.180814,-0.648454,0.231388,-0.702334,-0.971221,0.083499,0.036134,8.605957,29.23584,-8.239746,0,0
12036,2024 10 17,09:01:40.287,-0.181419,-0.647405,0.230045,-0.703586,-1.0347,0.078127,0.006836,6.958008,20.019531,-9.887695,0,0
12037,2024 10 17,09:01:40.295,-0.182112,-0.646372,0.22865,-0.704811,-1.070833,0.087893,0.050295,8.178711,24.536133,-10.803223,0,0
12038,2024 10 17,09:01:40.304,-0.182959,-0.644896,0.226984,-0.706479,-1.012238,0.077151,0.023438,8.483887,31.066895,-12.023926,0,0
12039,2024 10 17,09:01:40.312,-0.183875,-0.643516,0.225373,-0.708014,-1.000519,0.041993,0.000977,6.04248,27.404785,-12.817383,0,0
12040,2024 10 17,09:01:40.320,-0.18511,-0.642367,0.224023,-0.709163,-1.011261,0.07178,0.049318,2.01416,23.4375,-14.892578,0,0
12041,2024 10 17,09:01:40.329,-0.186453,-0.641283,0.22268,-0.710215,-0.984405,0.049806,0.051271,1.159668,22.949219,-15.930176,0,0
12042,2024 10 17,09:01:40.337,-0.186453,-0.641283,0.22268,-0.710215,-0.984405,0.049806,0.051271,1.159668,22.949219,-15.930176,0,0
12043,2024 10 17,09:01:40.345,-0.187856,-0.640265,0.221442,-0.71115,-0.947295,0.067385,0.101566,0.244141,20.751953,-15.808105,0,0
12044,2024 10 17,09:01:40.354,-0.189089,-0.639527,0.220283,-0.711847,-0.944853,0.079592,0.095706,0.488281,15.075684,-15.014648,0,0
12045,2024 10 17,09:01:40.362,-0.190025,-0.63904,0.219032,-0.712421,-0.960967,0.067385,0.117679,4.699707,12.756348,-14.404297,0,0
12046,2024 10 17,09:01:40.370,-0.190746,-0.638729,0.217709,-0.712913,-0.948759,0.044923,0.084964,5.79834,9.82666,-13.671875,0,0
12047,2024 10 17,09:01:40.379,-0.191452,-0.638661,0.216548,-0.713138,-0.98001,0.062502,0.098148,4.760742,5.92041,-13.48877,0,0
12048,2024 10 17,09:01:40.387,-0.191452,-0.638661,0.216548,-0.713138,-0.98001,0.062502,0.098148,4.760742,5.92041,-13.48877,0,0
12049,2024 10 17,09:01:40.395,-0.192026,-0.638595,0.215301,-0.71342,-0.992706,0.064455,0.117191,6.835938,6.896973,-13.000488,0,0
12050,2024 10 17,09:01:40.404,-0.192513,-0.638548,0.21393,-0.713743,-1.001495,0.098148,0.068361,8.300781,6.103516,-13.61084,0,0
12051,2024 10 17,09:01:40.412,-0.192856,-0.638569,0.212425,-0.714082,-0.978057,0.06299,0.129887,9.70459,6.286621,-13.671875,0,0
12052,2024 10 17,09:01:40.420,-0.193172,-0.638628,0.210883,-0.7144,-0.970733,0.021973,0.084475,11.71875,5.249023,-13.305664,0,0
12053,2024 10 17,09:01:40.429,-0.193614,-0.638917,0.209515,-0.714424,-1.017609,0.021485,0.081545,8.605957,1.403809,-14.221191,0,0
12054,2024 10 17,09:01:40.437,-0.193614,-0.638917,0.209515,-0.714424,-1.017609,0.021485,0.081545,8.605957,1.403809,-14.221191,0,0
12055,2024 10 17,09:01:40.445,-0.194176,-0.639068,0.208197,-0.714522,-1.043489,0.057619,0.063967,6.04248,4.577637,-14.587402,0,0
12056,2024 10 17,09:01:40.454,-0.194762,-0.639041,0.206831,-0.714783,-1.006378,0.021485,0.08887,7.019043,6.835938,-14.099121,0,0
12057,2024 10 17,09:01:40.462,-0.195468,-0.63899,0.205565,-0.715001,-1.000519,0.002441,0.122074,7.385254,7.263184,-14.099121,0,0
12058,2024 10 17,09:01:40.470,-0.196351,-0.638929,0.204291,-0.715179,-1.039582,0.070315,0.090823,4.02832,6.713867,-16.296387,0,0
12059,2024 10 17,09:01:40.479,-0.197245,-0.638892,0.202906,-0.71536,-1.085971,0.074709,0.063967,2.990723,6.713867,-18.066406,0,0
12060,2024 10 17,09:01:40.487,-0.197245,-0.638892,0.202906,-0.71536,-1.085971,0.074709,0.063967,2.990723,6.713867,-18.066406,0,0
12061,2024 10 17,09:01:40.495,-0.198285,-0.638759,0.201355,-0.71563,-1.051302,0.022462,0.108402,4.699707,9.82666,-19.592285,0,0
12062,2024 10 17,09:01:40.504,-0.199677,-0.638583,0.199788,-0.715839,-1.030793,0.029786,0.192877,4.272461,9.58252,-22.583008,0,0
12063,2024 10 17,09:01:40.512,-0.201241,-0.638474,0.19803,-0.715987,-1.063021,0.049806,0.046876,1.342773,8.850098,-26.306152,0,0
12064,2024 10 17,09:01:40.520,-0.20301,-0.638666,0.196253,-0.715806,-1.138707,0.010254,0.081545,0.732422,4.699707,-29.541016,0,0
12065,2024 10 17,09:01:40.529,-0.20534,-0.638733,0.194391,-0.715589,-1.169469,0.020997,0.058107,-1.220703,9.216309,-34.484863,0,0
12066,2024 10 17,09:01:40.537,-0.20534,-0.638733,0.194391,-0.715589,-1.169469,0.020997,0.058107,-1.220703,9.216309,-34.484863,0,0
12067,2024 10 17,09:01:40.545,-0.208187,-0.638491,0.192297,-0.715548,-1.168493,0.049806,0.044923,-6.469727,13.366699,-39.794922,0,0
12068,2024 10 17,09:01:40.554,-0.211451,-0.638468,0.190067,-0.715207,-1.154332,-0.015137,0.009278,-6.103516,10.437012,-45.349121,0,0
12069,2024 10 17,09:01:40.562,-0.215273,-0.638283,0.187686,-0.714862,-1.169469,0.056154,0.163579,-9.765625,14.892578,-50.415039,0,0
12070,2024 10 17,09:01:40.570,-0.21927,-0.637824,0.184733,-0.714825,-1.171911,0.018067,0.082522,-5.310059,20.263672,-54.931641,0,0
12071,2024 10 17,09:01:40.579,-0.223611,-0.637378,0.181451,-0.714719,-1.199255,0.057131,0.129398,-6.103516,20.446777,-60.60791,0,0
12072,2024 10 17,09:01:40.587,-0.223611,-0.637378,0.181451,-0.714719,-1.199255,0.057131,0.129398,-6.103516,20.446777,-60.60791,0,0
12073,2024 10 17,09:01:40.595,-0.228143,-0.63668,0.177609,-0.714873,-1.187536,0.01709,0.143071,-3.051758,28.564453,-64.758301,0,0
12074,2024 10 17,09:01:40.604,-0.233002,-0.635662,0.173298,-0.71527,-1.202185,0.004883,0.075198,-1.098633,32.653809,-69.580078,0,0
12075,2024 10 17,09:01:40.612,-0.238198,-0.634667,0.168634,-0.715557,-1.24955,0.026856,0.117191,-2.075195,33.996582,-75.805664,0,0
12076,2024 10 17,09:01:40.620,-0.243836,-0.633355,0.16343,-0.716028,-1.290078,0.023438,0.109378,-0.671387,41.564941,-82.702637,0,0
12077,2024 10 17,09:01:40.629,-0.249991,-0.631747,0.157572,-0.716639,-1.258827,0.00293,0.137211,0.549316,47.180176,-91.308594,0,0
12078,2024 10 17,09:01:40.637,-0.249991,-0.631747,0.157572,-0.716639,-1.258827,0.00293,0.137211,0.549316,47.180176,-91.308594,0,0
12079,2024 10 17,09:01:40.645,-0.256774,-0.630074,0.1511,-0.717108,-1.40434,0.050783,0.038087,0.0,47.729492,-101.501465,0,0
12080,2024 10 17,09:01:40.654,-0.264148,-0.628426,0.143919,-0.717352,-1.408246,0.043947,0.235847,1.831055,53.100586,-112.854004,0,0
12081,2024 10 17,09:01:40.662,-0.272131,-0.62576,0.135464,-0.718344,-1.373089,0.051759,0.10303,7.141113,71.777344,-122.680664,0,0
12082,2024 10 17,09:01:40.670,-0.28049,-0.623127,0.126047,-0.719132,-1.488327,0.039552,0.077639,12.084961,68.725586,-134.399414,0,0
12083,2024 10 17,09:01:40.679,-0.289668,-0.620438,0.115753,-0.719549,-1.565966,0.041993,0.118656,12.390137,76.721191,-149.169922,0,0
12084,2024 10 17,09:01:40.687,-0.289668,-0.620438,0.115753,-0.719549,-1.565966,0.041993,0.118656,12.390137,76.721191,-149.169922,0,0
12085,2024 10 17,09:01:40.695,-0.299734,-0.616309,0.103922,-0.720779,-1.653371,-0.022462,-0.161138,12.390137,102.905273,-163.269043,0,0
12086,2024 10 17,09:01:40.704,-0.311049,-0.611179,0.091166,-0.722078,-1.812555,-0.051759,-0.214362,7.629395,114.196777,-178.955078,0,0
12087,2024 10 17,09:01:40.712,-0.323814,-0.604796,0.077436,-0.723443,-2.058168,0.0,-0.209967,1.586914,135.070801,-197.265625,0,0
12088,2024 10 17,09:01:40.720,-0.337729,-0.595973,0.061828,-0.725901,-2.321848,-0.054689,-0.30372,2.197266,174.865723,-214.416504,0,0
12089,2024 10 17,09:01:40.729,-0.352766,-0.584565,0.044253,-0.729302,-2.599689,-0.007324,-0.253914,-0.427246,211.242676,-231.994629,0,0
12090,2024 10 17,09:01:40.737,-0.352766,-0.584565,0.044253,-0.729302,-2.599689,-0.007324,-0.253914,-0.427246,211.242676,-231.994629,0,0
12091,2024 10 17,09:01:40.745,-0.36833,-0.569617,0.024172,-0.73436,-2.620685,-0.107425,-0.149419,7.507324,269.470215,-244.262695,0,0
12092,2024 10 17,09:01:40.754,-0.38367,-0.550711,0.001494,-0.741291,-2.518143,-0.28663,-0.433119,15.319824,321.044922,-247.680664,0,0
12093,2024 10 17,09:01:40.762,-0.398732,-0.529957,-0.021745,-0.748122,-2.317942,-0.458998,-0.228523,12.939453,329.467773,-249.572754,0,0
12094,2024 10 17,09:01:40.770,-0.414055,-0.507598,-0.044946,-0.754243,-2.251045,-0.092776,-0.028321,2.990723,341.186523,-255.493164,0,0
12095,2024 10 17,09:01:40.779,-0.428963,-0.484025,-0.068749,-0.759594,-1.865291,0.096194,-0.104495,0.0,347.595215,-262.023926,0,0
12096,2024 10 17,09:01:40.787,-0.443884,-0.46047,-0.092246,-0.763167,-1.883358,0.147465,-0.37257,4.760742,324.09668,-268.249512,0,1
12097,2024 10 17,09:01:40.795,-0.443884,-0.46047,-0.092246,-0.763167,-1.883358,0.147465,-0.37257,4.760742,324.09668,-268.249512,0,0
12098,2024 10 17,09:01:40.804,-0.458692,-0.43896,-0.113959,-0.764153,-2.203192,0.291513,-0.125004,3.540039,294.372559,-266.113281,0,0
12099,2024 10 17,09:01:40.812,-0.470553,-0.416365,-0.136583,-0.765876,-2.049867,0.302744,-0.584002,19.65332,324.707031,-238.830566,0,0
12100,2024 10 17,09:01:40.820,-0.47914,-0.393861,-0.15876,-0.768175,-0.750023,0.675802,-0.835475,30.639648,320.068359,-200.134277,0,0
12101,2024 10 17,09:01:40.829,-0.482717,-0.372278,-0.179551,-0.772111,1.485397,1.809626,-1.100131,44.921875,315.124512,-123.596191,0,0
12102,2024 10 17,09:01:40.837,-0.479456,-0.359014,-0.198191,-0.775855,1.661672,0.131352,-1.041047,146.057129,196.228027,-25.634766,0,0
12103,2024 10 17,09:01:40.845,-0.479456,-0.359014,-0.198191,-0.775855,1.661672,0.131352,-1.041047,146.057129,196.228027,-25.634766,0,0
12104,2024 10 17,09:01:40.854,-0.469694,-0.358229,-0.208945,-0.779359,-0.267098,0.973174,-0.196295,127.01416,85.144043,93.078613,0,0
12105,2024 10 17,09:01:40.862,-0.452496,-0.362771,-0.217934,-0.784952,-0.797876,0.921903,-0.519547,171.020508,71.777344,169.86084,0,0
12106,2024 10 17,09:01:40.870,-0.430209,-0.370073,-0.22751,-0.791331,-1.155309,0.542985,-0.53029,208.007813,70.19043,215.942383,0,0
12107,2024 10 17,09:01:40.879,-0.405794,-0.377548,-0.23784,-0.797634,-1.036164,0.2378,-0.646016,219.360352,82.763672,223.083496,0,0
12108,2024 10 17,09:01:40.887,-0.381335,-0.384463,-0.248057,-0.803268,-0.717795,0.096194,-0.864284,211.853027,75.866699,219.848633,0,0
12109,2024 10 17,09:01:40.895,-0.381335,-0.384463,-0.248057,-0.803268,-0.717795,0.096194,-0.864284,211.853027,75.866699,219.848633,0,0
12110,2024 10 17,09:01:40.904,-0.35759,-0.39209,-0.256467,-0.807849,-0.579119,-0.019532,-0.851588,193.786621,52.978516,221.313477,0,0
12111,2024 10 17,09:01:40.912,-0.334495,-0.400367,-0.2621,-0.811864,-0.550798,-0.072268,-0.861843,167.785645,30.334473,229.858398,0,0
12112,2024 10 17,09:01:40.920,-0.311719,-0.409402,-0.264438,-0.815655,-0.557146,-0.085452,-0.801782,139.282227,10.375977,245.483398,0,0
12113,2024 10 17,09:01:40.929,-0.288706,-0.419055,-0.263222,-0.819607,-0.624043,-0.072756,-0.826197,107.849121,-6.774902,268.432617,0,0
12114,2024 10 17,09:01:40.937,-0.265025,-0.429215,-0.25857,-0.823819,-0.711936,-0.097659,-0.774438,81.298828,-16.540527,293.273926,0,0
12115,2024 10 17,09:01:40.945,-0.265025,-0.429215,-0.25857,-0.823819,-0.711936,-0.097659,-0.774438,81.298828,-16.540527,293.273926,0,0
12116,2024 10 17,09:01:40.954,-0.240712,-0.439331,-0.250949,-0.828294,-0.71633,-0.136235,-0.796899,55.541992,-21.972656,312.927246,0,0
12117,2024 10 17,09:01:40.962,-0.216431,-0.449809,-0.240598,-0.832432,-0.71633,-0.145512,-0.750511,31.982422,-36.804199,324.768066,0,0
12118,2024 10 17,09:01:40.970,-0.192766,-0.460923,-0.227886,-0.835739,-0.775903,-0.106937,-0.686056,11.657715,-55.725098,328.918457,0,0
12119,2024 10 17,09:01:40.979,-0.170057,-0.472902,-0.213471,-0.837779,-0.916532,-0.039552,-0.572283,-2.319336,-77.209473,326.538086,0,0
12120,2024 10 17,09:01:40.987,-0.148116,-0.485407,-0.198159,-0.838555,-1.0347,0.030763,-0.500992,-8.422852,-90.393066,322.20459,0,0
12121,2024 10 17,09:01:40.995,-0.148116,-0.485407,-0.198159,-0.838555,-1.0347,0.030763,-0.500992,-8.422852,-90.393066,322.20459,0,0
12122,2024 10 17,09:01:41.004,-0.126468,-0.498045,-0.182704,-0.838198,-1.231483,0.06006,-0.429701,-5.737305,-97.412109,318.29834,0,0
12123,2024 10 17,09:01:41.012,-0.104684,-0.510326,-0.167826,-0.836925,-1.316935,0.06885,-0.332041,3.845215,-95.581055,313.720703,0,0
12124,2024 10 17,09:01:41.020,-0.082434,-0.522045,-0.154002,-0.834839,-1.343303,0.073733,-0.328135,18.981934,-94.482422,310.60791,0,0
12125,2024 10 17,09:01:41.029,-0.059402,-0.533759,-0.141451,-0.831603,-1.42729,0.075686,-0.271004,39.489746,-99.487305,310.60791,0,0
12126,2024 10 17,09:01:41.037,-0.035165,-0.545373,-0.130416,-0.827238,-1.520554,0.089846,-0.267098,64.27002,-102.233887,312.194824,0,0
12127,2024 10 17,09:01:41.045,-0.035165,-0.545373,-0.130416,-0.827238,-1.520554,0.089846,-0.267098,64.27002,-102.233887,312.194824,0,0
12128,2024 10 17,09:01:41.054,-0.009521,-0.556988,-0.121164,-0.821579,-1.652882,0.085452,-0.297861,92.651367,-108.276367,314.025879,0,0
12129,2024 10 17,09:01:41.062,0.017633,-0.568428,-0.113878,-0.814623,-1.806207,0.024903,-0.381359,123.046875,-110.900879,315.368652,0,0
12130,2024 10 17,09:01:41.070,0.046124,-0.579243,-0.108632,-0.806567,-1.862362,-0.086428,-0.5215,151.428223,-109.985352,313.781738,0,0
12131,2024 10 17,09:01:41.079,0.075391,-0.589577,-0.105297,-0.797263,-1.866268,-0.226569,-0.691427,174.255371,-115.29541,308.410645,0,0
12132,2024 10 17,09:01:41.087,0.104653,-0.599931,-0.103639,-0.786377,-1.920957,-0.361339,-0.835475,189.27002,-128.479004,298.278809,0,0
12133,2024 10 17,09:01:41.095,0.104653,-0.599931,-0.103639,-0.786377,-1.920957,-0.361339,-0.835475,189.27002,-128.479004,298.278809,0,0
12134,2024 10 17,09:01:41.104,0.133174,-0.61041,-0.103476,-0.773923,-1.978088,-0.495621,-0.920438,197.570801,-142.456055,283.38623,0,0
12135,2024 10 17,09:01:41.112,0.160357,-0.620961,-0.104529,-0.76011,-2.012757,-0.61916,-1.040559,199.34082,-155.639648,265.991211,0,0
12136,2024 10 17,09:01:41.120,0.18588,-0.631695,-0.106463,-0.745034,-2.071841,-0.740257,-1.050325,194.702148,-168.945313,249.023438,0,0
12137,2024 10 17,09:01:41.129,0.209742,-0.642276,-0.10868,-0.729163,-2.066958,-0.839869,-1.105991,185.72998,-174.743652,236.755371,0,0
12138,2024 10 17,09:01:41.137,0.232048,-0.652898,-0.110654,-0.712484,-2.087466,-0.908231,-1.069857,172.302246,-182.922363,229.675293,0,0
12139,2024 10 17,09:01:41.145,0.232048,-0.652898,-0.110654,-0.712484,-2.087466,-0.908231,-1.069857,172.302246,-182.922363,229.675293,0,0
12140,2024 10 17,09:01:41.154,0.252959,-0.663317,-0.111933,-0.695337,-2.056215,-0.990265,-1.066439,157.104492,-183.044434,225.952148,0,0
12141,2024 10 17,09:01:41.162,0.272351,-0.673715,-0.11229,-0.677734,-2.048402,-1.047884,-1.075716,138.48877,-187.805176,222.900391,0,0
12142,2024 10 17,09:01:41.170,0.290016,-0.684336,-0.111741,-0.659612,-2.142643,-1.152379,-1.056185,118.286133,-192.260742,218.688965,0,0
12143,2024 10 17,09:01:41.179,0.305769,-0.694768,-0.110314,-0.641586,-2.167058,-1.352092,-1.033235,96.862793,-187.744141,210.510254,0,0
12144,2024 10 17,09:01:41.187,0.31928,-0.704862,-0.108026,-0.624148,-1.90582,-1.644093,-1.042512,72.44873,-181.396484,198.974609,0,0
12145,2024 10 17,09:01:41.195,0.328944,-0.715561,-0.105284,-0.607193,-0.695334,-1.707572,-0.479507,28.991699,-190.979004,168.273926,0,0
12146,2024 10 17,09:01:41.204,0.328944,-0.715561,-0.105284,-0.607193,-0.695334,-1.707572,-0.479507,28.991699,-190.979004,168.273926,0,0
12147,2024 10 17,09:01:41.212,0.333237,-0.730649,-0.105528,-0.586488,-1.120151,-1.915097,-0.604999,-3.479004,-301.879883,123.046875,0,0
12148,2024 10 17,09:01:41.220,0.331954,-0.751915,-0.110243,-0.558817,-2.496658,-1.832575,0.729514,-28.930664,-411.92627,88.989258,0,0
12149,2024 10 17,09:01:41.229,0.330513,-0.768743,-0.114067,-0.535522,-2.989349,-1.977599,1.597705,-17.700195,-288.330078,82.092285,0,0
12150,2024 10 17,09:01:41.237,0.331913,-0.776275,-0.113668,-0.523746,-2.29841,-2.574297,1.078646,-0.854492,-124.206543,82.092285,0,0
12151,2024 10 17,09:01:41.245,0.333251,-0.780346,-0.111976,-0.517171,-1.77984,-3.004975,1.130406,-7.019043,-73.364258,65.612793,0,0
12152,2024 10 17,09:01:41.254,0.333251,-0.780346,-0.111976,-0.517171,-1.77984,-3.004975,1.130406,-7.019043,-73.364258,65.612793,0,0
12153,2024 10 17,09:01:41.262,0.33243,-0.783084,-0.110876,-0.513786,-1.569872,-2.728599,1.123569,-21.728516,-45.410156,29.602051,0,0
12154,2024 10 17,09:01:41.270,0.330061,-0.785009,-0.111424,-0.512256,-1.605029,-2.266671,1.16654,-20.996094,-34.484863,-1.647949,0,0
12155,2024 10 17,09:01:41.279,0.328311,-0.784833,-0.112873,-0.513332,-1.47026,-1.877499,1.039582,-2.258301,7.507324,-16.784668,0,0
12156,2024 10 17,09:01:41.287,0.320406,-0.786632,-0.115517,-0.514982,-12.489639,-1.397504,-1.290567,-136.901855,-71.228027,-104.248047,0,0
12157,2024 10 17,09:01:41.295,0.311496,-0.779345,-0.135785,-0.526454,-1.385296,-2.309641,1.339885,229.431152,277.648926,-215.698242,0,0
12158,2024 10 17,09:01:41.304,0.311496,-0.779345,-0.135785,-0.526454,-1.385296,-2.309641,1.339885,229.431152,277.648926,-215.698242,0,0
12159,2024 10 17,09:01:41.312,0.29909,-0.750886,-0.139368,-0.572094,1.821833,3.678823,-2.556718,1.220703,503.051758,-332.092285,1,0
12160,2024 10 17,09:01:41.320,0.296336,-0.747964,-0.167552,-0.569791,-1.972716,0.102542,1.262734,131.225586,-251.220703,-273.071289,0,0
12161,2024 10 17,09:01:41.329,0.292936,-0.740861,-0.192162,-0.573051,-3.027925,-0.977081,1.952696,187.62207,104.370117,-238.708496,0,0
12162,2024 10 17,09:01:41.337,0.298083,-0.718905,-0.20516,-0.593491,-0.837916,-0.730003,-0.928251,157.165527,263.183594,-170.227051,0,0
12163,2024 10 17,09:01:41.345,0.295975,-0.710116,-0.215389,-0.60145,-1.349651,-0.363292,1.283242,25.512695,47.973633,-131.286621,0,0
12164,2024 10 17,09:01:41.354,0.295975,-0.710116,-0.215389,-0.60145,-1.349651,-0.363292,1.283242,25.512695,47.973633,-131.286621,0,0
12165,2024 10 17,09:01:41.362,0.293368,-0.701812,-0.219212,-0.611017,-1.38432,0.357433,-0.538102,15.869141,141.723633,-92.529297,0,0
12166,2024 10 17,09:01:41.370,0.296105,-0.691482,-0.223731,-0.619774,-1.249062,0.300302,-1.167028,86.669922,120.239258,-66.467285,0,0
12167,2024 10 17,09:01:41.379,0.302654,-0.682543,-0.230506,-0.624021,-1.458541,-0.066897,0.338389,125.12207,102.172852,-38.574219,0,0
12168,2024 10 17,09:01:41.387,0.311909,-0.669242,-0.234421,-0.632357,-0.918485,-0.167974,-0.014649,121.520996,185.791016,-24.597168,0,0
12169,2024 10 17,09:01:41.395,0.318926,-0.657997,-0.23702,-0.639646,-0.892605,0.069338,-0.445814,82.458496,125.488281,-23.803711,0,0
12170,2024 10 17,09:01:41.404,0.318926,-0.657997,-0.23702,-0.639646,-0.892605,0.069338,-0.445814,82.458496,125.488281,-23.803711,0,0
12171,2024 10 17,09:01:41.412,0.32478,-0.650411,-0.240183,-0.64327,-1.261757,0.115726,0.145024,92.712402,87.646484,-9.82666,0,0
12172,2024 10 17,09:01:41.420,0.33314,-0.640598,-0.242457,-0.64797,-0.887722,-0.183599,0.139653,100.463867,131.896973,2.075195,0,0
12173,2024 10 17,09:01:41.429,0.338758,-0.632838,-0.243244,-0.652374,-0.570818,-0.113773,-0.082522,50.231934,81.665039,-2.441406,0,0
12174,2024 10 17,09:01:41.437,0.340634,-0.630683,-0.244324,-0.65308,-0.979522,0.014161,0.2378,23.986816,10.498047,-1.281738,0,0
12175,2024 10 17,09:01:41.445,0.34202,-0.628884,-0.244838,-0.653898,-1.038606,0.071291,0.116703,18.127441,27.099609,-1.098633,0,0
12176,2024 10 17,09:01:41.454,0.34202,-0.628884,-0.244838,-0.653898,-1.038606,0.071291,0.116703,18.127441,27.099609,-1.098633,0,0
12177,2024 10 17,09:01:41.462,0.343352,-0.626835,-0.244953,-0.655122,-0.908231,0.048341,-0.004395,13.183594,23.4375,-1.586914,0,0
12178,2024 10 17,09:01:41.470,0.34369,-0.626142,-0.245207,-0.655512,-0.994659,0.10303,0.149419,4.150391,5.004883,-3.051758,0,0
12179,2024 10 17,09:01:41.479,0.343882,-0.625393,-0.245434,-0.656042,-1.041536,0.109378,0.075198,4.699707,11.169434,-5.004883,0,0
12180,2024 10 17,09:01:41.487,0.343931,-0.624399,-0.245702,-0.656862,-1.028352,0.097659,0.041017,3.479004,11.962891,-8.544922,0,0
12181,2024 10 17,09:01:41.495,0.34364,-0.623516,-0.246064,-0.657717,-1.035676,0.070803,0.057619,1.342773,10.864258,-10.986328,0,0
12182,2024 10 17,09:01:41.504,0.34364,-0.623516,-0.246064,-0.657717,-1.035676,0.070803,0.057619,1.342773,10.864258,-10.986328,0,0
12183,2024 10 17,09:01:41.512,0.343196,-0.622592,-0.246283,-0.658742,-0.999542,0.069338,0.063478,-1.342773,12.573242,-11.413574,0,0
12184,2024 10 17,09:01:41.520,0.342577,-0.621812,-0.246404,-0.659755,-0.993194,0.077151,0.06299,-3.845215,10.314941,-11.535645,0,0
12185,2024 10 17,09:01:41.529,0.341906,-0.62115,-0.24649,-0.660694,-0.984405,0.084964,0.099612,-4.150391,9.643555,-11.108398,0,0
12186,2024 10 17,09:01:41.537,0.341249,-0.620485,-0.246578,-0.661624,-0.992218,0.075686,0.073244,-3.967285,9.216309,-11.108398,0,0
12187,2024 10 17,09:01:41.545,0.340429,-0.619954,-0.246677,-0.662507,-0.994171,0.08594,0.093265,-6.04248,7.202148,-12.207031,0,0
12188,2024 10 17,09:01:41.554,0.340429,-0.619954,-0.246677,-0.662507,-0.994171,0.08594,0.093265,-6.04248,7.202148,-12.207031,0,0
12189,2024 10 17,09:01:41.562,0.339479,-0.619415,-0.246779,-0.66346,-1.008332,0.08301,0.08301,-7.080078,8.117676,-13.61084,0,0
12190,2024 10 17,09:01:41.570,0.338462,-0.618819,-0.246874,-0.6645,-0.987823,0.072268,0.074709,-7.202148,8.666992,-14.282227,0,0
12191,2024 10 17,09:01:41.579,0.337363,-0.618264,-0.246984,-0.665533,-0.980987,0.079592,0.098148,-7.69043,7.751465,-14.770508,0,0
12192,2024 10 17,09:01:41.587,0.336258,-0.617679,-0.247138,-0.666578,-0.975127,0.06299,0.112796,-7.324219,8.300781,-15.380859,0,0
12193,2024 10 17,09:01:41.595,0.335154,-0.617033,-0.247318,-0.667665,-0.974639,0.051759,0.125004,-6.530762,8.666992,-15.74707,0,0
12194,2024 10 17,09:01:41.604,0.335154,-0.617033,-0.247318,-0.667665,-0.974639,0.051759,0.125004,-6.530762,8.666992,-15.74707,0,0
12195,2024 10 17,09:01:41.612,0.334026,-0.616369,-0.247559,-0.668752,-0.983917,0.056154,0.129398,-6.286621,8.544922,-16.357422,0,0
12196,2024 10 17,09:01:41.620,0.332969,-0.615656,-0.247863,-0.669823,-0.983428,0.061037,0.116214,-5.249023,8.544922,-16.235352,0,0
12197,2024 10 17,09:01:41.629,0.331947,-0.614958,-0.248192,-0.670849,-0.988311,0.062502,0.112796,-5.004883,8.117676,-15.991211,0,0
12198,2024 10 17,09:01:41.637,0.330908,-0.614304,-0.248521,-0.671839,-0.98001,0.050295,0.094241,-5.493164,7.446289,-15.930176,0,0
12199,2024 10 17,09:01:41.645,0.329692,-0.613808,-0.248828,-0.672776,-0.964873,0.092288,0.15479,-7.629395,4.760742,-16.723633,0,0
12200,2024 10 17,09:01:41.654,0.328498,-0.613391,-0.249293,-0.673568,-0.990265,0.074709,0.130375,-5.187988,2.807617,-16.906738,0,0
12201,2024 10 17,09:01:41.662,0.328498,-0.613391,-0.249293,-0.673568,-0.990265,0.074709,0.130375,-5.187988,2.807617,-16.906738,0,0
12202,2024 10 17,09:01:41.670,0.327365,-0.61296,-0.249933,-0.674274,-0.996124,0.0459,0.118168,-3.112793,2.441406,-17.211914,0,0
12203,2024 10 17,09:01:41.679,0.326267,-0.612494,-0.250642,-0.674967,-1.008332,0.056642,0.122562,-1.77002,2.502441,-17.51709,0,0
12204,2024 10 17,09:01:41.687,0.325194,-0.612015,-0.251485,-0.675605,-1.036164,0.051271,0.086917,-0.183105,2.197266,-18.127441,0,0
12205,2024 10 17,09:01:41.695,0.324085,-0.61149,-0.252409,-0.676268,-1.069369,0.038087,0.052736,-0.305176,2.441406,-19.287109,0,0
12206,2024 10 17,09:01:41.704,0.322841,-0.610986,-0.253441,-0.676933,-1.042024,0.078616,0.093753,-1.281738,1.037598,-21.362305,0,0
12207,2024 10 17,09:01:41.712,0.322841,-0.610986,-0.253441,-0.676933,-1.042024,0.078616,0.093753,-1.281738,1.037598,-21.362305,0,0
12208,2024 10 17,09:01:41.720,0.321484,-0.610439,-0.254658,-0.677615,-1.081576,0.075198,0.087405,-1.159668,0.061035,-24.414063,0,0
12209,2024 10 17,09:01:41.729,0.319926,-0.609861,-0.256103,-0.678328,-1.092807,0.053713,0.110355,0.732422,-0.671387,-27.587891,0,0
12210,2024 10 17,09:01:41.737,0.318066,-0.609282,-0.257825,-0.67907,-1.132359,0.079592,0.127445,1.281738,-1.647949,-31.982422,0,0
12211,2024 10 17,09:01:41.745,0.315833,-0.608602,-0.259849,-0.679949,-1.179235,0.061525,0.11182,-1.953125,-2.685547,-38.879395,0,0
12212,2024 10 17,09:01:41.754,0.312971,-0.607653,-0.261961,-0.68131,-1.254433,0.011719,0.042482,-6.958008,1.037598,-47.485352,0,0
12213,2024 10 17,09:01:41.762,0.312971,-0.607653,-0.261961,-0.68131,-1.254433,0.011719,0.042482,-6.958008,1.037598,-47.485352,0,0
12214,2024 10 17,09:01:41.770,0.309023,-0.606615,-0.263998,-0.683248,-1.230995,0.018555,0.061037,-12.390137,4.272461,-56.762695,0,0
12215,2024 10 17,09:01:41.779,0.304405,-0.605267,-0.266157,-0.685675,-1.283731,0.059572,0.074221,-20.812988,6.896973,-66.711426,0,0
12216,2024 10 17,09:01:41.787,0.299156,-0.603327,-0.268403,-0.688812,-1.295938,0.06885,0.141118,-21.42334,15.808105,-76.23291,0,0
12217,2024 10 17,09:01:41.795,0.29352,-0.600666,-0.270898,-0.692575,-1.251991,0.087405,0.149419,-21.42334,22.644043,-85.693359,0,0
12218,2024 10 17,09:01:41.804,0.287508,-0.597554,-0.273907,-0.696594,-1.267617,0.094241,0.188482,-17.822266,23.4375,-94.299316,0,0
12219,2024 10 17,09:01:41.812,0.287508,-0.597554,-0.273907,-0.696594,-1.267617,0.094241,0.188482,-17.822266,23.4375,-94.299316,0,0
12220,2024 10 17,09:01:41.820,0.281168,-0.594057,-0.277675,-0.70067,-1.24662,0.094729,0.229499,-13.48877,23.986816,-103.820801,0,0
12221,2024 10 17,09:01:41.829,0.274783,-0.589781,-0.28205,-0.705054,-1.267617,0.070803,0.133793,-7.568359,31.188965,-111.755371,0,0
12222,2024 10 17,09:01:41.837,0.268268,-0.584971,-0.287125,-0.709507,-1.311075,0.023927,0.107913,0.0,32.409668,-119.07959,0,0
12223,2024 10 17,09:01:41.845,0.261384,-0.579513,-0.292745,-0.714244,-1.439009,0.043458,0.074709,1.586914,39.001465,-130.065918,0,0
12224,2024 10 17,09:01:41.854,0.253975,-0.573029,-0.298947,-0.719559,-1.61919,0.073244,0.008789,3.78418,47.485352,-145.019531,0,0
12225,2024 10 17,09:01:41.862,0.253975,-0.573029,-0.298947,-0.719559,-1.61919,0.073244,0.008789,3.78418,47.485352,-145.019531,0,0
12226,2024 10 17,09:01:41.870,0.245364,-0.565685,-0.306059,-0.725345,-1.767632,0.150395,0.130863,3.356934,51.086426,-167.663574,0,0
12227,2024 10 17,09:01:41.879,0.235988,-0.556428,-0.313979,-0.732198,-1.769585,0.172369,0.116703,9.82666,73.486328,-188.720703,0,0
12228,2024 10 17,09:01:41.887,0.226072,-0.545089,-0.322992,-0.739895,-1.94879,0.229987,0.020508,16.418457,87.524414,-211.608887,0,0
12229,2024 10 17,09:01:41.895,0.214837,-0.532,-0.333196,-0.748199,-2.084536,0.153325,-0.15186,20.507813,102.478027,-239.624023,0,0
12230,2024 10 17,09:01:41.904,0.202174,-0.516396,-0.344078,-0.757675,-2.242256,0.192877,-0.239265,16.845703,124.023438,-269.836426,0,0
12231,2024 10 17,09:01:41.912,0.202174,-0.516396,-0.344078,-0.757675,-2.242256,0.192877,-0.239265,16.845703,124.023438,-269.836426,0,0
12232,2024 10 17,09:01:41.920,0.187312,-0.498543,-0.355668,-0.76803,-2.575274,0.241218,-0.22071,11.59668,140.808105,-306.762695,0,0
12233,2024 10 17,09:01:41.929,0.170768,-0.476994,-0.367906,-0.779718,-2.863369,0.180181,-0.181158,10.375977,176.818848,-344.482422,0,0
12234,2024 10 17,09:01:41.937,0.152294,-0.452074,-0.380674,-0.792163,-2.744713,0.046388,-0.536637,9.033203,192.871094,-380.065918,0,0
12235,2024 10 17,09:01:41.945,0.130659,-0.426876,-0.39389,-0.803465,-2.890225,-0.137211,0.087405,0.488281,178.344727,-408.630371,0,0
12236,2024 10 17,09:01:41.954,0.107977,-0.398849,-0.406501,-0.814873,-2.882412,-0.284188,-0.079592,-8.117676,200.073242,-425.415039,0,0
12237,2024 10 17,09:01:41.962,0.107977,-0.398849,-0.406501,-0.814873,-2.882412,-0.284188,-0.079592,-8.117676,200.073242,-425.415039,0,0
12238,2024 10 17,09:01:41.970,0.084819,-0.369205,-0.417539,-0.825926,-2.643147,0.051271,-0.152837,-20.751953,215.393066,-426.330566,0,1
12239,2024 10 17,09:01:41.979,0.062035,-0.338675,-0.427524,-0.835867,-2.198797,0.207526,-0.39552,-22.338867,217.712402,-421.264648,0,0
12240,2024 10 17,09:01:41.987,0.038217,-0.309135,-0.436208,-0.844214,-2.294504,0.517594,-0.419935,-31.982422,190.979004,-423.095703,0,0
12241,2024 10 17,09:01:41.995,0.013343,-0.280668,-0.443801,-0.850934,-1.609912,0.69631,-0.758324,-38.024902,172.058105,-422.058105,0,0
12242,2024 10 17,09:01:42.004,-0.012966,-0.255601,-0.450321,-0.855401,-1.293008,0.78518,-0.972686,-41.809082,114.562988,-411.071777,0,0
12243,2024 10 17,09:01:42.012,-0.012966,-0.255601,-0.450321,-0.855401,-1.293008,0.78518,-0.972686,-41.809082,114.562988,-411.071777,0,0
12244,2024 10 17,09:01:42.020,-0.040657,-0.234519,-0.453795,-0.858731,0.317392,0.68215,-1.754448,-82.946777,69.091797,-389.282227,0,0
12245,2024 10 17,09:01:42.029,-0.065919,-0.220343,-0.452827,-0.861424,1.964415,0.966826,-0.697775,-106.567383,-10.192871,-286.92627,0,0
12246,2024 10 17,09:01:42.037,-0.081976,-0.217397,-0.447373,-0.863641,0.146001,1.242714,0.037599,-113.708496,-57.373047,-107.788086,0,0
12247,2024 10 17,09:01:42.045,-0.084327,-0.222092,-0.439976,-0.866017,-0.422376,1.563036,-0.008301,-70.983887,-63.293457,56.945801,0,0
12248,2024 10 17,09:01:42.054,-0.075279,-0.230685,-0.434795,-0.86722,-0.522477,1.288614,-0.004883,-2.685547,-29.35791,166.992188,0,0
12249,2024 10 17,09:01:42.062,-0.075279,-0.230685,-0.434795,-0.86722,-0.522477,1.288614,-0.004883,-2.685547,-29.35791,166.992188,0,0
12250,2024 10 17,09:01:42.070,-0.05981,-0.240636,-0.432812,-0.866713,-0.545915,0.833033,-0.218268,45.715332,-25.085449,210.754395,0,0
12251,2024 10 17,09:01:42.079,-0.043399,-0.25185,-0.432683,-0.864566,-0.282235,0.575701,-0.491226,66.833496,-38.452148,213.256836,0,0
12252,2024 10 17,09:01:42.087,-0.028278,-0.265195,-0.433489,-0.86079,-0.183599,0.467299,-0.529313,78.857422,-76.35498,208.740234,0,0
12253,2024 10 17,09:01:42.095,-0.014271,-0.281007,-0.434444,-0.855622,-0.333995,0.456557,-0.492691,82.397461,-106.811523,211.853027,0,0
12254,2024 10 17,09:01:42.104,-4.5e-05,-0.298875,-0.435081,-0.84934,-0.546892,0.517594,-0.420911,86.05957,-126.831055,226.745605,0,0
12255,2024 10 17,09:01:42.112,0.015576,-0.317735,-0.435098,-0.842313,-0.707053,0.485366,-0.348643,89.172363,-124.87793,247.741699,0,0
12256,2024 10 17,09:01:42.120,0.015576,-0.317735,-0.435098,-0.842313,-0.707053,0.485366,-0.348643,89.172363,-124.87793,247.741699,0,0
12257,2024 10 17,09:01:42.129,0.033386,-0.336355,-0.434245,-0.834974,-0.765648,0.340831,-0.363292,89.172363,-111.755371,270.751953,0,0
12258,2024 10 17,09:01:42.137,0.052892,-0.354685,-0.431989,-0.827519,-0.723655,0.175298,-0.368664,80.01709,-101.013184,289.916992,0,0
12259,2024 10 17,09:01:42.145,0.072698,-0.373183,-0.427841,-0.820001,-0.664571,0.035646,-0.446303,60.302734,-104.919434,299.743652,0,0
12260,2024 10 17,09:01:42.154,0.091177,-0.392817,-0.421561,-0.8122,-0.655782,-0.041017,-0.423841,32.897949,-124.572754,300.78125,0,0
12261,2024 10 17,09:01:42.162,0.107395,-0.413867,-0.413145,-0.804047,-0.759789,-0.045412,-0.407727,2.868652,-148.986816,295.471191,0,0
12262,2024 10 17,09:01:42.170,0.107395,-0.413867,-0.413145,-0.804047,-0.759789,-0.045412,-0.407727,2.868652,-148.986816,295.471191,0,0
12263,2024 10 17,09:01:42.179,0.121052,-0.436377,-0.402836,-0.79539,-0.911161,0.024415,-0.275399,-25.390625,-174.194336,287.963867,0,0
12264,2024 10 17,09:01:42.187,0.132902,-0.459679,-0.390794,-0.786329,-1.062044,0.119633,-0.160161,-46.630859,-185.974121,285.217285,0,0
12265,2024 10 17,09:01:42.195,0.143958,-0.483067,-0.377148,-0.77697,-1.213416,0.190924,-0.058596,-61.645508,-187.62207,288.085938,0,0
12266,2024 10 17,09:01:42.204,0.154926,-0.50593,-0.362215,-0.767355,-1.385296,0.208502,0.039552,-70.251465,-180.847168,292.114258,0,0
12267,2024 10 17,09:01:42.212,0.165981,-0.527717,-0.346281,-0.757664,-1.428266,0.208502,0.072268,-75.256348,-169.799805,293.640137,0,0
12268,2024 10 17,09:01:42.220,0.165981,-0.527717,-0.346281,-0.757664,-1.428266,0.208502,0.072268,-75.256348,-169.799805,293.640137,0,0
12269,2024 10 17,09:01:42.229,0.176989,-0.548557,-0.329745,-0.747682,-1.44145,0.207038,0.069826,-77.087402,-164.123535,293.579102,0,0
12270,2024 10 17,09:01:42.237,0.18785,-0.568737,-0.312889,-0.737123,-1.457564,0.209967,0.086917,-76.721191,-163.391113,293.518066,0,0
12271,2024 10 17,09:01:42.245,0.198575,-0.588488,-0.295924,-0.725726,-1.53325,0.228523,0.088382,-74.09668,-166.320801,293.579102,0,0
12272,2024 10 17,09:01:42.254,0.209257,-0.607768,-0.279077,-0.713404,-1.628468,0.218757,0.088382,-68.42041,-169.189453,292.84668,0,0
12273,2024 10 17,09:01:42.262,0.219796,-0.626588,-0.262665,-0.70006,-1.727592,0.192877,0.114261,-61.035156,-175.231934,289.428711,0,0
12274,2024 10 17,09:01:42.270,0.219796,-0.626588,-0.262665,-0.70006,-1.727592,0.192877,0.114261,-61.035156,-175.231934,289.428711,0,0
12275,2024 10 17,09:01:42.279,0.230181,-0.644929,-0.246949,-0.685638,-1.844295,0.154302,0.149907,-51.818848,-181.762695,284.729004,0,0
12276,2024 10 17,09:01:42.287,0.240486,-0.66269,-0.232202,-0.670143,-1.949278,0.064455,0.219245,-39.733887,-188.354492,278.259277,0,0
12277,2024 10 17,09:01:42.295,0.250607,-0.679766,-0.21874,-0.653656,-2.063051,-0.073733,0.269051,-26.428223,-195.617676,268.310547,0,0
12278,2024 10 17,09:01:42.304,0.2604,-0.696191,-0.206515,-0.636287,-2.135807,-0.185553,0.316416,-16.662598,-202.087402,258.728027,0,0
12279,2024 10 17,09:01:42.312,0.270028,-0.711914,-0.195212,-0.618188,-2.190985,-0.32667,0.339366,-7.93457,-206.359863,252.929688,0,0
12280,2024 10 17,09:01:42.320,0.270028,-0.711914,-0.195212,-0.618188,-2.190985,-0.32667,0.339366,-7.93457,-206.359863,252.929688,0,0
12281,2024 10 17,09:01:42.329,0.279525,-0.727005,-0.184416,-0.599433,-2.249092,-0.535661,0.367687,-2.990723,-208.679199,250.732422,0,0
12282,2024 10 17,09:01:42.337,0.288815,-0.741401,-0.173632,-0.580312,-2.323313,-0.839869,0.340831,-2.441406,-207.15332,251.159668,0,0
12283,2024 10 17,09:01:42.345,0.297698,-0.754766,-0.162757,-0.56144,-2.42732,-1.296915,0.394055,-3.417969,-195.861816,246.582031,0,0
12284,2024 10 17,09:01:42.354,0.305495,-0.766517,-0.152168,-0.54403,-2.399487,-1.815973,0.477554,-9.643555,-175.109863,228.69873,0,0
12285,2024 10 17,09:01:42.362,0.311304,-0.776804,-0.142772,-0.528472,-2.143132,-2.225654,0.704123,-17.150879,-160.339355,195.495605,0,0
12286,2024 10 17,09:01:42.370,0.311304,-0.776804,-0.142772,-0.528472,-2.143132,-2.225654,0.704123,-17.150879,-160.339355,195.495605,0,0
12287,2024 10 17,09:01:42.379,0.314504,-0.786155,-0.135993,-0.514347,-1.7481,-2.485916,1.133335,-22.033691,-161.315918,147.949219,0,0
12288,2024 10 17,09:01:42.387,0.315205,-0.795162,-0.133171,-0.500627,-1.531785,-2.655354,1.69097,-18.615723,-179.382324,95.458984,0,0
12289,2024 10 17,09:01:42.395,0.314543,-0.803749,-0.13443,-0.486804,-1.688528,-2.872158,2.111881,-3.845215,-195.007324,54.626465,0,0
12290,2024 10 17,09:01:42.404,0.313995,-0.810778,-0.138435,-0.474218,-2.266182,-2.999603,2.158757,17.456055,-175.598145,26.916504,0,0
12291,2024 10 17,09:01:42.412,0.314416,-0.814038,-0.143702,-0.466728,-2.571368,-3.014252,2.199774,38.574219,-95.581055,-4.02832,0,0
12292,2024 10 17,09:01:42.420,0.314416,-0.814038,-0.143702,-0.466728,-2.571368,-3.014252,2.199774,38.574219,-95.581055,-4.02832,0,0
12293,2024 10 17,09:01:42.429,0.315644,-0.812058,-0.148906,-0.467716,-1.970763,-2.693442,1.623585,47.851563,11.047363,-38.757324,0,0
12294,2024 10 17,09:01:42.437,0.316447,-0.808344,-0.155222,-0.471537,-3.01767,-1.546922,-0.104984,51.025391,20.385742,-64.819336,0,0
12295,2024 10 17,09:01:42.445,0.292693,-0.81098,-0.167929,-0.477956,-3.300394,1.716849,5.439619,-50.78125,39.18457,-283.14209,1,0
12296,2024 10 17,09:01:42.454,0.287215,-0.782789,-0.16411,-0.527082,1.086459,4.454237,-5.930357,-178.649902,667.358398,-249.755859,0,0
12297,2024 10 17,09:01:42.462,0.282792,-0.777509,-0.179085,-0.532388,-1.319865,-0.138188,1.237342,54.6875,-146.911621,-204.345703,0,0
12298,2024 10 17,09:01:42.470,0.282792,-0.777509,-0.179085,-0.532388,-1.319865,-0.138188,1.237342,54.6875,-146.911621,-204.345703,0,0
12299,2024 10 17,09:01:42.479,0.276129,-0.767032,-0.192879,-0.546089,-1.678762,-0.350597,1.75396,70.556641,285.095215,-220.458984,0,0
12300,2024 10 17,09:01:42.487,0.278309,-0.747278,-0.203422,-0.568102,-0.856471,-0.657247,-1.415571,103.149414,185.974121,-177.246094,0,0
12301,2024 10 17,09:01:42.495,0.2767,-0.738634,-0.213904,-0.576283,-2.267159,-0.094241,1.730033,60.852051,124.87793,-127.685547,0,0
12302,2024 10 17,09:01:42.504,0.281278,-0.721428,-0.216934,-0.594445,-0.727073,0.097659,-1.099155,80.810547,264.892578,-85.81543,0,0
12303,2024 10 17,09:01:42.512,0.285743,-0.710968,-0.223032,-0.602605,-1.257851,0.067873,0.287118,89.904785,101.623535,-68.054199,0,0
12304,2024 10 17,09:01:42.520,0.285743,-0.710968,-0.223032,-0.602605,-1.257851,0.067873,0.287118,89.904785,101.623535,-68.054199,0,0
12305,2024 10 17,09:01:42.529,0.292283,-0.700164,-0.228254,-0.610115,-1.109897,-0.078127,0.130375,109.619141,150.878906,-42.541504,0,0
12306,2024 10 17,09:01:42.537,0.298674,-0.689456,-0.231909,-0.617789,-0.8511,-0.113773,-0.336436,82.885742,126.037598,-37.29248,0,0
12307,2024 10 17,09:01:42.545,0.302246,-0.681953,-0.235157,-0.623129,-1.078646,0.078127,0.103031,59.753418,92.590332,-36.865234,0,0
12308,2024 10 17,09:01:42.554,0.306869,-0.673704,-0.237728,-0.62884,-1.029817,-0.006348,-0.248054,71.105957,109.130859,-25.817871,0,0
12309,2024 10 17,09:01:42.562,0.311295,-0.666518,-0.240015,-0.633437,-0.961943,-0.033204,0.027833,58.837891,85.510254,-19.65332,0,0
12310,2024 10 17,09:01:42.570,0.31447,-0.660659,-0.241537,-0.637415,-0.926298,0.013184,0.101566,40.83252,73.608398,-17.76123,0,0
12311,2024 10 17,09:01:42.579,0.31447,-0.660659,-0.241537,-0.637415,-0.926298,0.013184,0.101566,40.83252,73.608398,-17.76123,0,0
12312,2024 10 17,09:01:42.587,0.316766,-0.656001,-0.242595,-0.640679,-0.977569,0.041505,-0.030763,30.639648,55.969238,-14.770508,0,0
12313,2024 10 17,09:01:42.595,0.318498,-0.652361,-0.243626,-0.643141,-1.056185,0.073244,0.036134,26.794434,45.349121,-13.61084,0,0
12314,2024 10 17,09:01:42.604,0.320202,-0.648671,-0.244563,-0.645667,-1.025422,0.070315,-0.00293,26.245117,47.973633,-13.85498,0,0
12315,2024 10 17,09:01:42.612,0.321587,-0.645228,-0.245544,-0.648051,-1.016633,0.080081,0.012696,23.31543,41.625977,-15.380859,0,0
12316,2024 10 17,09:01:42.620,0.322751,-0.642018,-0.246688,-0.650222,-1.028352,0.072268,0.064943,23.55957,39.0625,-16.784668,0,0
12317,2024 10 17,09:01:42.629,0.322751,-0.642018,-0.246688,-0.650222,-1.028352,0.072268,0.064943,23.55957,39.0625,-16.784668,0,0
12318,2024 10 17,09:01:42.637,0.32391,-0.638706,-0.247907,-0.652441,-1.029817,0.019532,0.009278,25.20752,40.039063,-17.39502,0,0
12319,2024 10 17,09:01:42.645,0.324799,-0.635581,-0.249017,-0.654624,-1.038118,0.020508,0.033692,21.118164,38.085938,-18.005371,0,0
12320,2024 10 17,09:01:42.654,0.325329,-0.632696,-0.249754,-0.656871,-0.929228,0.017579,0.044923,10.375977,35.461426,-17.456055,0,0
12321,2024 10 17,09:01:42.662,0.325238,-0.63068,-0.250284,-0.658651,-0.983428,0.038575,0.051271,4.760742,22.888184,-16.540527,0,0
12322,2024 10 17,09:01:42.670,0.324757,-0.629116,-0.250729,-0.660213,-0.9888,0.051271,0.055177,-0.183105,19.897461,-17.272949,0,0
12323,2024 10 17,09:01:42.679,0.324757,-0.629116,-0.250729,-0.660213,-0.9888,0.051271,0.055177,-0.183105,19.897461,-17.272949,0,0
12324,2024 10 17,09:01:42.687,0.32398,-0.627813,-0.251106,-0.66169,-0.984893,0.04883,0.044435,-2.929688,15.625,-17.944336,0,0
12325,2024 10 17,09:01:42.695,0.322855,-0.626806,-0.251469,-0.663055,-0.980987,0.056154,0.078127,-5.859375,12.451172,-19.40918,0,0
12326,2024 10 17,09:01:42.704,0.321589,-0.62588,-0.251902,-0.664379,-0.992218,0.072756,0.057619,-6.225586,10.986328,-20.568848,0,0
12327,2024 10 17,09:01:42.712,0.320266,-0.625008,-0.252488,-0.665616,-1.002472,0.051759,0.037599,-5.310059,9.094238,-21.606445,0,0
12328,2024 10 17,09:01:42.720,0.318851,-0.624219,-0.253186,-0.66677,-0.976104,0.053713,0.08594,-5.615234,7.446289,-22.460938,0,0
12329,2024 10 17,09:01:42.729,0.318851,-0.624219,-0.253186,-0.66677,-0.976104,0.053713,0.08594,-5.615234,7.446289,-22.460938,0,0
12330,2024 10 17,09:01:42.737,0.317467,-0.623453,-0.254045,-0.667819,-0.980499,0.063478,0.100101,-2.746582,5.737305,-22.827148,0,0
12331,2024 10 17,09:01:42.745,0.316189,-0.622682,-0.255145,-0.668725,-1.022004,0.052248,0.063478,1.037598,4.699707,-23.193359,0,0
12332,2024 10 17,09:01:42.754,0.315096,-0.621806,-0.256375,-0.669585,-0.997589,0.041017,0.080569,2.01416,5.371094,-23.010254,0,0
12333,2024 10 17,09:01:42.762,0.313988,-0.621012,-0.257685,-0.670339,-0.989288,0.041505,0.072268,3.479004,2.502441,-22.766113,0,0
12334,2024 10 17,09:01:42.770,0.312877,-0.620373,-0.259145,-0.670887,-0.991729,0.031251,0.065432,2.746582,-0.427246,-23.193359,0,0
12335,2024 10 17,09:01:42.779,0.312877,-0.620373,-0.259145,-0.670887,-0.991729,0.031251,0.065432,2.746582,-0.427246,-23.193359,0,0
12336,2024 10 17,09:01:42.787,0.311763,-0.619764,-0.260576,-0.671414,-0.989288,0.004883,0.106449,4.150391,0.183105,-22.216797,0,0
12337,2024 10 17,09:01:42.795,0.310639,-0.619173,-0.261965,-0.671939,-1.028352,-0.005371,0.048341,4.272461,-0.12207,-21.240234,0,0
12338,2024 10 17,09:01:42.804,0.309475,-0.618676,-0.263378,-0.672381,-1.000031,0.030274,0.103519,3.173828,-1.647949,-21.911621,0,0
12339,2024 10 17,09:01:42.812,0.308473,-0.618096,-0.264849,-0.672798,-1.016144,0.020508,0.095706,5.004883,-0.305176,-21.728516,0,0
12340,2024 10 17,09:01:42.820,0.307453,-0.617387,-0.266247,-0.673364,-1.007843,0.019044,0.067873,4.577637,1.647949,-21.789551,0,0
12341,2024 10 17,09:01:42.829,0.307453,-0.617387,-0.266247,-0.673364,-1.007843,0.019044,0.067873,4.577637,1.647949,-21.789551,0,0
12342,2024 10 17,09:01:42.837,0.306423,-0.616717,-0.26776,-0.673847,-1.032258,0.019532,0.093753,5.249023,0.12207,-22.766113,0,0
