frame,date,time,quaternion_x_left,quaternion_y_left,quaternion_z_left,quaternion_w_left,accel_x_left,accel_y_left,accel_z_left,gyro_x_left,gyro_y_left,gyro_z_left,HS_left,TO_left,filtered_quaternion_x_left,filtered_quaternion_y_left,filtered_quaternion_z_left,filtered_quaternion_w_left,filtered_accel_x_left,filtered_accel_y_left,filtered_accel_z_left,filtered_gyro_x_left,filtered_gyro_y_left,filtered_gyro_z_left,quaternion_x_right,quaternion_y_right,quaternion_z_right,quaternion_w_right,accel_x_right,accel_y_right,accel_z_right,gyro_x_right,gyro_y_right,gyro_z_right,HS_right,TO_right,filtered_quaternion_x_right,filtered_quaternion_y_right,filtered_quaternion_z_right,filtered_quaternion_w_right,filtered_accel_x_right,filtered_accel_y_right,filtered_accel_z_right,filtered_gyro_x_right,filtered_gyro_y_right,filtered_gyro_z_right
17780,2024 8 08,15:42:37.565,-0.663118,0.189973,0.682401,0.241896,-0.971274,-0.102489,-0.111825,0.098059,-0.635819,-0.79317,0,0,-0.663118,0.189973,0.682401,0.241896,-0.971274,-0.102489,-0.111825,0.098059,-0.635819,-0.79317,-0.661027,-0.346869,0.588178,-0.311081,-1.039389,-0.108594,0.06075,-0.282684,-1.939522,-1.0352,0,0,-0.661027,-0.346869,0.588178,-0.311081,-1.039389,-0.108594,0.06075,-0.282684,-1.939522,-1.0352
17781,2024 8 08,15:42:37.573,-0.663128,-0.2375,0.617677,-0.349757,-0.97205,-0.106638,-0.107716,-0.189599,-0.409183,-0.536876,0,0,-0.6631184999999999,0.16859935,0.6791648,0.2123133499999999,-0.9713128,-0.10269645,-0.1116195499999999,0.0836760999999999,-0.6244872,-0.7803553,-0.660966,-0.346945,0.588272,-0.310949,-1.038187,-0.106735,0.058883,-0.544251,-2.32398,-0.972034,0,0,-0.66102395,-0.3468727999999999,0.5881827,-0.3110744,-1.0393289,-0.1085010499999999,0.0606566499999999,-0.29576235,-1.9587449,-1.0320417
17782,2024 8 08,15:42:37.582,-0.663142,-0.186688,0.67864,-0.25456,-0.973793,-0.10486,-0.109905,0.322166,-0.879909,-0.648473,0,0,-0.663119675,0.1508349825,0.67913856,0.1889696824999999,-0.97143681,-0.1028046274999999,-0.1115338224999999,0.095600595,-0.63725829,-0.773761185,-0.660887,-0.241058,0.620669,-0.346251,-1.039914,-0.106311,0.058349,-0.511509,-2.506275,-0.867669,0,0,-0.6610171025,-0.3415820599999999,0.589807015,-0.31283323,-1.039358155,-0.1083915474999999,0.0605412674999999,-0.3065496825,-1.986121405,-1.023823065
17783,2024 8 08,15:42:37.590,-0.663169,-0.237402,0.617615,-0.349857,-0.972486,-0.169777,-0.067271,-0.191607,-0.65915,-0.417309,0,0,-0.6631221412499999,0.131423133375,0.6760623819999999,0.1620283483749999,-0.9714892694999998,-0.1061532461249999,-0.1093206813749999,0.08124021525,-0.6383528755,-0.7559385757499999,-0.660791,-0.347113,0.588528,-0.310649,-1.041242,-0.126376,0.026272,-0.572182,-2.732789,-0.800133,0,0,-0.661005797375,-0.3418586069999999,0.5897430642499999,-0.3127240185,-1.03945234725,-0.1092907701249999,0.0588278041249999,-0.3198312983749999,-2.02345478475,-1.01263856175
17784,2024 8 08,15:42:37.598,-0.663196,-0.237368,0.617568,-0.34991,-0.970674,-0.16464,-0.070656,0.062019,-0.915796,-0.375993,0,0,-0.6631258341874998,0.11298357670625,0.6731376628999999,0.1364314309562499,-0.9714485060249998,-0.1090775838187499,-0.1073874473062499,0.0802791544875,-0.6522250317249999,-0.7369412969624998,-0.660693,-0.347197,0.588661,-0.310511,-1.041319,-0.109318,0.05425,-0.481684,-2.618549,-0.718693,0,0,-0.66099015750625,-0.3421255266499999,0.5896889610374998,-0.3126133675749999,-1.0395456798874998,-0.1092921316187499,0.0585989139187499,-0.3279239334562499,-2.0532094955125,-0.9979412836625
17785,2024 8 08,15:42:37.607,-0.663234,-0.237324,0.617519,-0.349956,-0.969551,-0.183718,-0.096905,0.012503,-0.866851,-0.416914,0,0,-0.6631312424781247,0.0954681978709375,0.6703567297549998,0.1121120594084374,-0.9713536307237496,-0.1128096046278124,-0.1068633249409374,0.076890346763125,-0.6629563301387499,-0.7209399321143747,-0.660611,0.359329,0.627345,0.202274,-1.040322,-0.108587,0.053821,-0.633144,-2.428385,-0.53473,0,0,-0.6609711996309374,-0.3070528003174999,0.5915717629856247,-0.28686899919625,-1.0395844958931246,-0.1092568750378124,0.0583600182228124,-0.3431849367834374,-2.0719682707368747,-0.974780719479375
17786,2024 8 08,15:42:37.615,-0.663241,-0.237316,0.617509,-0.349965,-0.969328,-0.150701,-0.114765,0.002644,-0.857106,-0.425061,0,0,-0.6631367303542184,0.0788289879773906,0.6677143432672499,0.0890082064380155,-0.9712523491875622,-0.1147041743964218,-0.1072584086938906,0.0731780294249687,-0.6726638136318124,-0.7061459855086559,-0.660584,-0.347273,0.58882,-0.310357,-1.04054,-0.108285,0.053475,-0.676314,-2.410048,-0.478583,0,0,-0.6609518396493905,-0.3090638103016249,0.5914341748363435,-0.2880433992364374,-1.0396322710984682,-0.1092082812859218,0.0581157673116718,-0.3598413899442655,-2.088872257200031,-0.949970833505406
17787,2024 8 08,15:42:37.623,-0.663273,-0.237283,0.617474,-0.349987,-0.973845,-0.14988,-0.028365,0.000585,-0.807532,-0.236612,0,0,-0.6631435438365074,0.0630233885785211,0.6652023261038874,0.0670584461161147,-0.971381981728184,-0.1164629656766007,-0.103313738259196,0.0695483779537203,-0.6794072229502217,-0.6826692862332231,-0.660501,-0.347312,0.588945,-0.310252,-1.043371,-0.128247,0.035986,-0.767552,-2.503836,-0.343523,0,0,-0.660929297666921,-0.3109762197865436,0.5913097160945263,-0.2891538292746156,-1.0398192075435448,-0.1101602172216257,0.0570092789460882,-0.3802269204470523,-2.1096204443400293,-0.9196484418301358
17788,2024 8 08,15:42:37.632,-0.663314,-0.237255,0.617411,-0.350039,-0.972577,-0.103891,-0.107858,0.09406,-1.031516,-0.289367,0,0,-0.663152066644682,0.048009469149595,0.662812759798693,0.046203573810309,-0.9714417326417748,-0.1158343673927707,-0.1035409513462362,0.0707739590560342,-0.6970126618027106,-0.6630041719215619,-0.660412,-0.34735,0.589086,-0.310131,-1.044863,-0.057675,0.095948,-0.793834,-2.336475,-0.307667,0,0,-0.6609034327835749,-0.3127949087972164,0.5911985302898001,-0.2902026878108848,-1.0400713971663675,-0.1075359563605444,0.0589562149987838,-0.4009072744246996,-2.1209631721230275,-0.889049369738629
17789,2024 8 08,15:42:37.640,-0.663357,-0.23721,0.617365,-0.350071,-0.973402,-0.152914,-0.044057,-0.02385,-0.896935,-0.301386,0,0,-0.6631623133124478,0.0337484956921152,0.6605403718087584,0.0263898451197935,-0.971539746009686,-0.1176883490231321,-0.1005667537789244,0.0660427611032325,-0.7070087787125751,-0.6449232633254838,-0.660335,-0.347376,0.58922,-0.310012,-1.044611,-0.127202,0.011248,-0.852497,-2.144114,-0.259372,0,0,-0.6608750111443962,-0.3145239633573555,0.59109960377531,-0.2911931534203405,-1.0402983773080492,-0.1085192585425172,0.0565708042488446,-0.4234867607034646,-2.122120713516876,-0.8575655012516975
17790,2024 8 08,15:42:37.648,-0.663396,-0.237166,0.617316,-0.350113,-0.970296,-0.103893,-0.112188,-0.005932,-0.865049,-0.350086,0,0,-0.6631739976468254,0.0202027709075095,0.6583791532183203,0.0075647028638038,-0.9714775587092016,-0.1169985815719755,-0.1011478160899782,0.0624440230480709,-0.7149107897769462,-0.6301814001592095,-0.660258,-0.347396,0.589358,-0.309891,-1.04467,-0.106562,0.053596,-0.945703,-2.125791,-0.260329,0,0,-0.6608441605871763,-0.3161675651894877,0.5910125235865444,-0.2921280457493235,-1.0405169584426466,-0.1084213956153913,0.0564220640364024,-0.4495975726682913,-2.122304227841032,-0.8277036761891126
17791,2024 8 08,15:42:37.657,-0.663423,-0.237119,0.61729,-0.35014,-0.973521,-0.107241,-0.11409,-0.092164,-0.675938,-0.407377,0,0,-0.6631864477644841,0.007336682362134,0.6563246955574042,-0.0103205322793863,-0.9715797307737416,-0.1165107024933767,-0.1017949252854793,0.0547136218956673,-0.712962150288099,-0.619041180151249,-0.660196,-0.347412,0.589473,-0.309786,-1.043431,-0.10394,0.052232,-0.968616,-2.042906,-0.338946,0,0,-0.6608117525578174,-0.3177297869300133,0.5909355474072172,-0.2930109434618573,-1.0406626605205145,-0.1081973258346218,0.0562125608345822,-0.4755484940348767,-2.1183343164489803,-0.8032657923796569
17792,2024 8 08,15:42:37.665,-0.66343,-0.237107,0.617283,-0.350146,-0.974342,-0.108093,-0.114574,-0.114113,-0.627802,-0.421959,0,0,-0.6631986253762598,-0.0048855017559726,0.654372610779534,-0.0273118056654169,-0.9717178442350544,-0.1160898173687079,-0.1024338790212053,0.046272290800884,-0.708704142773694,-0.6091870711436865,-0.660174,-0.347418,0.589514,-0.309748,-1.043406,-0.103902,0.051885,-0.956277,-2.015752,-0.346843,0,0,-0.6607798649299266,-0.3192141975835127,0.5908644700368563,-0.2938477962887644,-1.0407998274944883,-0.1079825595428907,0.0559961827928531,-0.4995849193331328,-2.113205200626531,-0.7804446527606741
17793,2024 8 08,15:42:37.673,-0.663452,-0.237075,0.617249,-0.350187,-0.969597,-0.179978,-0.078981,-0.031318,-0.880847,-0.425795,0,0,-0.6632112941074468,-0.016494976668174,0.6525164302405573,-0.0434555653821461,-0.9716118020233016,-0.1192842265002725,-0.101261235070145,0.0423927762608398,-0.7173112856350092,-0.6000174675865022,-0.660117,-0.347435,0.589615,-0.309658,-1.045238,-0.107684,0.052417,-0.838142,-1.946361,-0.260351,0,0,-0.6607467216834302,-0.3206252377043371,0.5908019965350135,-0.2946383064743262,-1.041021736119764,-0.1079676315657461,0.0558172236532105,-0.5165127733664762,-2.1048629905952048,-0.7544399701226404
17794,2024 8 08,15:42:37.682,-0.663472,-0.237033,0.617233,-0.350206,-0.970062,-0.11143,-0.118639,-0.227776,-0.467876,-0.339266,0,0,-0.6632243294020745,-0.0275218778347653,0.6507522587285294,-0.0587930871130388,-0.9715343119221366,-0.1188915151752589,-0.1021301233166378,0.0288843374477978,-0.7048395213532588,-0.5869798942071771,-0.660059,-0.347447,0.589725,-0.30956,-1.045735,-0.119061,0.071672,-0.800166,-1.752393,-0.172993,0,0,-0.6607123355992586,-0.3219663258191202,0.5907481467082629,-0.2953843911506099,-1.0412573993137757,-0.1085222999874588,0.0566099624705499,-0.5306954346981524,-2.0872394910654446,-0.7253676216165084
17795,2024 8 08,15:42:37.690,-0.663488,-0.236997,0.617212,-0.350235,-0.970884,-0.112399,-0.124193,-0.152791,-0.395758,-0.35838,0,0,-0.6632375129319709,-0.037995633943027,0.6490752457921029,-0.0733651827573869,-0.9715017963260296,-0.1185668894164959,-0.1032332671508059,0.0198005705754079,-0.6893854452855958,-0.5755498994968182,-0.66001,-0.347458,0.589821,-0.309469,-1.046014,-0.106448,0.048291,-0.746256,-1.519142,-0.229317,0,0,-0.6606772188192956,-0.3232409095281642,0.5907017893728497,-0.2960886215930793,-1.0414952293480868,-0.1084185849880859,0.0561940143470224,-0.5414734629632448,-2.0588346165121725,-0.7005650905356829
17796,2024 8 08,15:42:37.698,-0.663495,-0.236968,0.617194,-0.350273,-0.969408,-0.104799,-0.122364,-0.002782,-0.289391,-0.449512,0,0,-0.6632503872853723,-0.0479442522458757,0.6474811835024977,-0.0872105736195175,-0.9713971065097282,-0.1178784949456711,-0.1041898037932656,0.0186714420466375,-0.6693857230213159,-0.5692480045219773,-0.659969,-0.347471,0.589903,-0.309386,-1.046474,-0.106599,0.019723,-0.693731,-1.249584,-0.288325,0,0,-0.6606418078783308,-0.324452414051756,0.5906618499042072,-0.2967534905134254,-1.0417441678806825,-0.1083276057386816,0.0543704636296713,-0.5490863398150826,-2.018372085686564,-0.6799530860088988
17797,2024 8 08,15:42:37.707,-0.663493,-0.236938,0.617205,-0.350279,-0.97541,-0.108993,-0.116742,-0.043204,0.080825,-0.307006,0,0,-0.6632625179211037,-0.0573939396335819,0.6459673743273728,-0.1003639949385416,-0.971597751184242,-0.1174342201983875,-0.1048174136036023,0.0155776699443056,-0.6318751868702501,-0.5561359042958784,-0.659939,-0.347484,0.589969,-0.309309,-1.043661,-0.108751,0.055043,-0.649594,-1.037229,-0.348096,0,0,-0.6606066674844143,-0.3256039933491682,0.5906272074089968,-0.2973812659877541,-1.0418400094866482,-0.1083487754517475,0.0544040904481877,-0.5541117228243284,-1.969314931402236,-0.6633602317084538
17798,2024 8 08,15:42:37.715,-0.663492,-0.236929,0.617208,-0.350281,-0.977227,-0.149889,-0.00647,-0.055443,0.192926,-0.263855,0,0,-0.6632739920250486,-0.0663706926519028,0.6445294056110041,-0.1128598451916146,-0.9718792136250296,-0.1190569591884682,-0.0999000429234222,0.0120266364470903,-0.5906351275267376,-0.5415218590810845,-0.659921,-0.347499,0.590013,-0.309247,-1.044548,-0.107841,0.052789,-0.455077,-0.828007,-0.402425,0,0,-0.6605723841101936,-0.3266987436817097,0.5905964970385469,-0.2979745526883664,-1.0419754090123157,-0.1083233866791601,0.0543233359257784,-0.549159986683112,-1.912249534832124,-0.6503134701230311
17799,2024 8 08,15:42:37.723,-0.663496,-0.23692,0.617186,-0.350319,-0.971491,-0.110657,-0.114511,0.106551,-0.394012,-0.291915,0,0,-0.6632850924237961,-0.0748981580193076,0.6431622353304539,-0.1247328029320338,-0.9718598029437782,-0.1186369612290448,-0.100630590777251,0.0167528546247358,-0.5808039711504007,-0.5290415161270303,-0.659913,-0.347505,0.590031,-0.309222,-1.044465,-0.110353,0.042025,-0.389126,-0.774305,-0.413676,0,0,-0.6605394149046839,-0.3277390564976242,0.5905682221866195,-0.2985369250539481,-1.0420998885617,-0.1084248673452021,0.0537084191294894,-0.5411582873489563,-1.8553523080905177,-0.6384815966168795
17800,2024 8 08,15:42:37.732,-0.663496,-0.23692,0.617186,-0.350319,-0.969013,-0.103892,-0.117296,0.322028,-0.375332,-0.259815,0,0,-0.6632956378026061,-0.0829992501183422,0.6418634235639312,-0.1360121127854321,-0.9717174627965892,-0.1178997131675925,-0.1014638612383885,0.032016611893499,-0.5705303725928806,-0.5155801903206788,-0.659897,-0.347519,0.590063,-0.309178,-1.042036,-0.111524,0.059942,-0.349354,-0.811548,-0.370694,0,0,-0.6605072941594498,-0.328728053672743,0.5905429610772885,-0.2990689788012506,-1.042096694133615,-0.108579823977942,0.054020098173015,-0.5315680729815084,-1.803162092685992,-0.6250922167860355
17801,2024 8 08,15:42:37.740,-0.663496,-0.23692,0.617186,-0.350319,-0.971455,-0.102021,-0.11398,0.594893,-0.247524,-0.330556,0,0,-0.6633056559124757,-0.0906952876124251,0.6406295523857347,-0.1467274571461605,-0.9717043396567596,-0.1171057775092129,-0.1020896681764691,0.0601604312988241,-0.5543800539632365,-0.5063289808046448,-0.65988,-0.34753,0.590102,-0.309128,-1.040843,-0.10841,0.051009,-0.441725,-0.734818,-0.264602,0,0,-0.6604759294514772,-0.3296681509891059,0.590520913023424,-0.2995719298611881,-1.042034009426934,-0.1085713327790449,0.0538695432643642,-0.5270759193324329,-1.749744888051692,-0.6070677059467338
17802,2024 8 08,15:42:37.748,-0.663494,-0.236904,0.617102,-0.350483,-0.974341,-0.103592,-0.115666,0.365668,-0.34035,-0.52228,0,0,-0.6633150731168519,-0.0980057232318038,0.6394531747664479,-0.1569152342888524,-0.9718361726739216,-0.1164300886337522,-0.1027684847676456,0.0754358097338829,-0.5436785512650747,-0.5071265317644126,-0.659854,-0.347539,0.590162,-0.309062,-1.044423,-0.108402,0.051751,-0.487735,-0.853087,-0.003107,0,0,-0.6604448329789032,-0.3305616934396506,0.5905029673722528,-0.3000464333681286,-1.0421534589555872,-0.1085628661400926,0.053763616101146,-0.5251088733658112,-1.7049119936491075,-0.5768696706493971
17803,2024 8 08,15:42:37.757,-0.66349,-0.236875,0.617094,-0.350524,-0.972987,-0.109749,-0.112912,0.049977,-0.211422,-0.54859,0,0,-0.6633238194610093,-0.1049491870702136,0.6383352160281255,-0.1665956725744098,-0.9718937140402256,-0.1160960342020646,-0.1032756605292633,0.0741628692471887,-0.527065723701821,-0.509199705176192,-0.659829,-0.347553,0.590209,-0.309009,-1.046365,-0.108602,0.040444,-0.310079,-0.854454,-0.297062,0,0,-0.6604140413299581,-0.3314112587676681,0.5904882690036402,-0.3004945616997222,-1.0423640360078077,-0.108564822833088,0.0530976352960887,-0.5143573796975207,-1.662389093966652,-0.5628792871169271
17804,2024 8 08,15:42:37.765,-0.66349,-0.236875,0.617094,-0.350524,-0.972698,-0.134308,-0.110173,0.002075,-0.184281,-0.549286,0,0,-0.6633321284879587,-0.1115454777167029,0.6372731552267192,-0.1757920889456893,-0.9719339283382143,-0.1170066324919614,-0.1036205275028002,0.0705584757848293,-0.50992648751673,-0.5112040199173824,-0.659813,-0.34757,0.590241,-0.308962,-1.041736,-0.070415,0.035312,-0.305379,-0.561987,-0.36334,0,0,-0.6603839892634601,-0.3322191958292846,0.5904759055534581,-0.3009179336147361,-1.0423326342074173,-0.1066573316914336,0.0522083535312842,-0.5039084607126446,-1.6073689892683192,-0.5529023227610808
17805,2024 8 08,15:42:37.773,-0.663481,-0.23686,0.617075,-0.350583,-0.970294,-0.106853,-0.119885,0.299154,-0.282851,-0.549315,0,0,-0.6633395720635608,-0.1178112038308678,0.6362632474653832,-0.1845316344984048,-0.9718519319213036,-0.1164989508673633,-0.1044337511276602,0.0819882519955878,-0.4985727131408934,-0.5131095689215133,-0.659812,-0.34757,0.590242,-0.30896,-1.041547,-0.108402,0.049803,-0.305187,-0.550023,-0.366051,0,0,-0.6603553898002871,-0.3329867360378204,0.5904642102757852,-0.3013200369339993,-1.0422933524970464,-0.1067445651068619,0.05208808585472,-0.4939723876770123,-1.554501689804903,-0.5435597566230267
17806,2024 8 08,15:42:37.782,-0.663466,-0.236842,0.61708,-0.350615,-0.968615,-0.153135,-0.120632,-0.03134,0.187485,-0.401984,0,0,-0.6633458934603826,-0.1237627436393244,0.6353040850921141,-0.1928358027734846,-0.9716900853252384,-0.1183307533239951,-0.1052436635712771,0.0763218393958084,-0.4642698274838487,-0.5075532904754376,-0.659803,-0.34758,0.590274,-0.308908,-1.042445,-0.128253,0.045176,-0.418755,-0.662944,-0.30941,0,0,-0.6603277703102728,-0.3337163992359294,0.5904546997619959,-0.3016994350872993,-1.042300934872194,-0.1078199868515188,0.051742481561984,-0.4902115182931617,-1.5099238053146578,-0.5318522687918754
17807,2024 8 08,15:42:37.790,-0.663441,-0.236844,0.617083,-0.350656,-0.972965,-0.10451,-0.119919,0.563097,0.004994,-0.417582,0,0,-0.6633506487873635,-0.1294168064573582,0.6343930308375084,-0.2007268126348104,-0.9717538310589764,-0.1176397156577954,-0.1059774303927133,0.100660597426018,-0.4408066361096562,-0.5030547259516658,-0.659785,-0.347612,0.590297,-0.308867,-1.045641,-0.107803,0.052761,-0.146688,-0.670686,-0.361498,0,0,-0.6603006317947591,-0.3344111792741329,0.590446814773896,-0.3020578133329344,-1.0424679381285842,-0.1078191375089428,0.0517934074838848,-0.4730353423785036,-1.4679619150489247,-0.5233345553522816
17808,2024 8 08,15:42:37.798,-0.663426,-0.236836,0.617078,-0.350698,-0.974037,-0.187328,-0.082178,0.191301,-0.006981,-0.426318,0,0,-0.6633544163479953,-0.1347877661344903,0.6335272792956329,-0.2082253720030698,-0.9718679895060276,-0.1211241298749056,-0.1047874588730776,0.1051926175547171,-0.4191153543041734,-0.4992178896540825,-0.65977,-0.347636,0.590323,-0.308825,-1.045903,-0.108786,0.048766,-0.124434,-0.616144,-0.310583,0,0,-0.6602741002050211,-0.3350724203104263,0.5904406240352011,-0.3023961726662877,-1.042639691222155,-0.1078674806334957,0.0516420371096906,-0.4556052752595784,-1.4253710192964784,-0.5126969775846675
17809,2024 8 08,15:42:37.807,-0.663412,-0.23683,0.617073,-0.350738,-0.972633,-0.106496,-0.116417,0.404516,-0.047805,-0.333053,0,0,-0.6633572955305955,-0.1398898778277658,0.6327045653308512,-0.2153510034029163,-0.9719062400307262,-0.1203927233811603,-0.1053689359294237,0.1201587866769812,-0.4005498365889647,-0.4909096451713783,-0.659758,-0.347655,0.590347,-0.308781,-1.043751,-0.114466,0.057735,-0.231132,-0.502177,-0.360166,0,0,-0.6602482951947699,-0.335701549294905,0.590435942833441,-0.3027154140329733,-1.0426952566610472,-0.1081974066018209,0.051946685254206,-0.4443816114965995,-1.3792113183316546,-0.5050704287054341
17810,2024 8 08,15:42:37.815,-0.663408,-0.236829,0.617072,-0.350747,-0.97225,-0.106454,-0.11581,0.478146,-0.059434,-0.308549,0,0,-0.6633598307540658,-0.1447368339363775,0.6319229370643086,-0.2221208032327705,-0.97192342802919,-0.1196957872121023,-0.1058909891329525,0.1380581473431322,-0.3834940447595165,-0.4817916129128093,-0.659748,-0.347674,0.590369,-0.308739,-1.042233,-0.099906,0.050502,-0.188916,-0.543613,-0.365479,0,0,-0.6602232804350314,-0.3363001718301597,0.590432595691769,-0.3030165933313246,-1.042672143827995,-0.1077828362717298,0.0518744509914957,-0.4316083309217695,-1.3374314024150715,-0.4980908572701623
17811,2024 8 08,15:42:37.823,-0.6634,-0.236824,0.61707,-0.35077,-0.966713,-0.154448,-0.092961,0.120823,-0.060822,-0.351388,0,0,-0.6633618392163625,-0.1493411922395586,0.6311802902110931,-0.228553263071132,-0.9716629066277304,-0.1214333978514972,-0.1052444896763049,0.1371963899759755,-0.3673604425215407,-0.4752714322671689,-0.659746,-0.347676,0.590372,-0.308734,-1.042052,-0.108458,0.049331,-0.183878,-0.548558,-0.366114,0,0,-0.6601994164132798,-0.3368689632386517,0.5904295659071804,-0.3033024636647584,-1.042641136636595,-0.1078165944581433,0.0517472784419209,-0.4192218143756809,-1.297987732294318,-0.4914920144066542
17812,2024 8 08,15:42:37.832,-0.663382,-0.23681,0.61709,-0.350779,-0.972002,-0.111582,-0.109183,-0.072822,0.300183,-0.228622,0,0,-0.6633628472555443,-0.1537146326275807,0.6304757757005385,-0.2346645499175753,-0.971679861296344,-0.1209408279589223,-0.1054414151924897,0.1266954704771767,-0.3339832703954636,-0.4629389606538104,-0.659739,-0.347685,0.590392,-0.308701,-1.044116,-0.109341,0.04047,-0.287632,-0.444792,-0.209574,0,0,-0.6601763955926158,-0.3374097650767191,0.5904276876118214,-0.3035723904815205,-1.0427148798047654,-0.1078928147352361,0.0511834145198249,-0.4126423236568969,-1.255327945679602,-0.4773961136863214
17813,2024 8 08,15:42:37.840,-0.663371,-0.236821,0.617074,-0.350819,-0.970964,-0.170967,0.092434,0.464753,-0.305363,-0.234755,0,0,-0.663363254892767,-0.1578699509962016,0.6298056869155115,-0.2404722724216966,-0.9716440682315268,-0.1234421365609762,-0.0955476444328652,0.1435983469533179,-0.3325522568756904,-0.4515297626211199,-0.659729,-0.347697,0.590413,-0.30867,-1.042763,-0.10658,0.053896,-0.302439,-0.481498,-0.238749,0,0,-0.660154025812985,-0.3379241268228831,0.5904269532312304,-0.3038272709574444,-1.042717285814527,-0.1078271739984743,0.0513190437938336,-0.407132157474052,-1.2166364483956218,-0.4654637580020054
17814,2024 8 08,15:42:37.848,-0.663364,-0.236836,0.617055,-0.350856,-0.972475,-0.105861,-0.116323,0.461008,-0.112874,-0.110675,0,0,-0.6633632921481286,-0.1618182534463915,0.6291681525697359,-0.2459914588006117,-0.9716856148199504,-0.1225630797329274,-0.0965864122112219,0.159468829605652,-0.3215683440319058,-0.4344870244900639,-0.659718,-0.347706,0.590438,-0.308634,-1.04052,-0.108098,0.053336,-0.355559,-0.537988,-0.14156,0,0,-0.6601322245223358,-0.3384132204817389,0.5904275055696688,-0.3040676074095721,-1.0426074215238006,-0.1078407152985506,0.0514198916041419,-0.4045534996003493,-1.1827040259758406,-0.4492685701019051
17815,2024 8 08,15:42:37.857,-0.663369,-0.236846,0.617032,-0.350881,-0.97062,-0.150226,-0.078522,0.172863,-0.280455,-0.026463,0,0,-0.6633635775407222,-0.1655696407740719,0.628561344941249,-0.2512359358605812,-0.9716323340789528,-0.123946225746281,-0.0956831916006608,0.1601385381253694,-0.3195126768303105,-0.4140858232655607,-0.659697,-0.347718,0.590468,-0.308609,-1.043764,-0.109151,0.051237,-0.113401,-0.597485,-0.025169,0,0,-0.6601104632962189,-0.338878459457652,0.5904295302911854,-0.3042946770390935,-1.0426652504476104,-0.1079062295336231,0.0514107470239348,-0.3899958746203318,-1.1534430746770483,-0.4280635915968098
17816,2024 8 08,15:42:37.865,-0.663371,-0.236821,0.617074,-0.350819,-0.969919,-0.111919,-0.124519,0.082091,-0.350064,-0.004983,0,0,-0.663363948663686,-0.1691322087353683,0.6279869776941865,-0.2562150890675521,-0.9715466673750052,-0.1233448644589669,-0.0971249820206278,0.1562361612191009,-0.3210402429887949,-0.3936306821022826,-0.659679,-0.347721,0.5905,-0.308582,-1.044333,-0.137098,0.015698,-0.269066,-0.558386,-0.004739,0,0,-0.6600888901314079,-0.3393205864847693,0.5904330537766261,-0.3045090431871388,-1.0427486379252298,-0.1093658180569419,0.0496251096727381,-0.3839493808893152,-1.123690220943196,-0.4068973620169693
17817,2024 8 08,15:42:37.873,-0.663372,-0.236863,0.617,-0.350918,-0.973173,-0.109862,-0.1222,0.234432,-0.320701,-0.043293,0,0,-0.6633643512305016,-0.1725187482985999,0.6274376288094772,-0.2609502346141744,-0.9716279840062548,-0.1226707212360186,-0.0983787329195964,0.1601459531581459,-0.3210232808393552,-0.3761137979971685,-0.659676,0.187286,0.68188,0.254541,-1.044439,-0.120071,0.052038,-0.298007,-0.551117,-0.000941,0,0,-0.6600682456248375,-0.3129902571605309,0.5950054010877948,-0.2765565410277818,-1.0428331560289683,-0.1099010771540948,0.0497457541891012,-0.3796522618448494,-1.095061559896036,-0.3865995439161208
17818,2024 8 08,15:42:37.882,-0.663374,-0.236878,0.616973,-0.350952,-0.972996,-0.106419,-0.118653,0.332204,-0.224857,-0.099114,0,0,-0.6633648336689766,-0.1757367108836699,0.6269143973690033,-0.2654503228834657,-0.971696384805942,-0.1218581351742176,-0.0993924462736165,0.1687488555002385,-0.3162149667973875,-0.36226380809731,-0.659668,-0.347722,0.590532,-0.308545,-1.045233,-0.114645,0.051486,-0.351991,-0.501382,-0.145126,0,0,-0.6600482333435955,-0.3147268443025043,0.5947817310334049,-0.2781559639763927,-1.0429531482275198,-0.11013827329639,0.0498327664796461,-0.378269198752607,-1.0653775819012343,-0.3745258667203148
17819,2024 8 08,15:42:37.890,-0.663382,-0.23681,0.61709,-0.350779,-0.972754,-0.108928,-0.115529,0.193733,-0.233481,-0.158325,0,0,-0.6633656919855276,-0.1787903753394864,0.6264231775005531,-0.2697167567392924,-0.971749265565645,-0.1212116284155068,-0.1001992739599357,0.1699980627252266,-0.312078268457518,-0.3520668676924445,-0.659661,-0.347717,0.590559,-0.308512,-1.046923,-0.108213,0.048088,-0.506256,-0.395708,-0.031669,0,0,-0.6600288716764158,-0.3163763520873791,0.5945705944817347,-0.279673765777573,-1.043151640816144,-0.1100420096315705,0.0497455281556638,-0.3846685388149766,-1.0318941028061726,-0.357383023384299
17820,2024 8 08,15:42:37.898,-0.663389,-0.236867,0.616936,-0.350998,-0.972375,-0.110682,-0.113572,0.056862,-0.32324,-0.136699,0,0,-0.6633668573862512,-0.1816942065725121,0.6259488186255253,-0.2737808189023278,-0.9717805522873628,-0.1206851469947314,-0.1008679102619389,0.1643412595889652,-0.3126363550346421,-0.3412984743078223,-0.659644,-0.347721,0.590592,-0.308481,-1.044271,-0.10949,0.047906,-0.25669,-0.608612,-0.101485,0,0,-0.6600096280925949,-0.3179435844830101,0.5943716647576479,-0.2811141274886944,-1.0432076087753366,-0.110014409149992,0.0496535517478806,-0.3782696118742278,-1.010729997665864,-0.344588122215084
17821,2024 8 08,15:42:37.907,-0.663399,-0.236865,0.616907,-0.351031,-0.970951,-0.107311,-0.116202,0.174572,-0.436577,-0.125537,0,0,-0.6633684645169386,-0.1844527462438864,0.625496727694249,-0.2776433279572113,-0.9717390746729944,-0.1200164396449948,-0.101634614748842,0.164852796609517,-0.31883338728291,-0.3305104005924312,-0.659625,-0.347723,0.590632,-0.308444,-1.041811,-0.108287,0.050846,-0.386829,-0.609939,-0.024049,0,0,-0.6599903966879651,-0.3194325552588596,0.5941846815197654,-0.2824806211142597,-1.0431377783365696,-0.1099280386924924,0.0497131741604866,-0.3786975812805164,-0.9906904477825706,-0.3285611661043298
17822,2024 8 08,15:42:37.915,-0.663403,-0.236865,0.616897,-0.351042,-0.970418,-0.105924,-0.117316,0.227025,-0.475561,-0.122923,0,0,-0.6633701912910916,-0.1870733589316921,0.6250667413095365,-0.2813132615593507,-0.9716730209393448,-0.1193118176627451,-0.1024186840113999,0.1679614067790411,-0.3266697679187645,-0.3201310305628096,-0.659606,-0.347728,0.590672,-0.308402,-1.041604,-0.107269,0.047853,-0.463322,-0.656269,-0.143975,0,0,-0.6599711768535668,-0.3208473274959166,0.5940090474437772,-0.2837766900585467,-1.043061089419741,-0.1097950867578678,0.0496201654524622,-0.3829288022164905,-0.973969375393442,-0.3193318577991133
17823,2024 8 08,15:42:37.923,-0.663419,-0.236851,0.61688,-0.351049,-0.970918,-0.10779,-0.118845,0.082456,-0.367047,-0.043626,0,0,-0.663372631726537,-0.1895622409851075,0.6246574042440597,-0.2848000484813832,-0.9716352698923776,-0.1187357267796078,-0.1032399998108299,0.1636861364400891,-0.3286886295228263,-0.3063057790346691,-0.659602,-0.347729,0.590681,-0.308392,-1.041553,-0.107022,0.047125,-0.48192,-0.667534,-0.173133,0,0,-0.6599527180108884,-0.3221914111211208,0.5938426450715883,-0.2850074555556193,-1.042985684948754,-0.1096564324199744,0.0494954071798391,-0.387878362105666,-0.95864760662377,-0.3120219149091576
17824,2024 8 08,15:42:37.932,-0.663436,-0.236848,0.61685,-0.351073,-0.972385,-0.108911,-0.117248,0.177227,-0.438104,-0.089245,0,0,-0.6633758001402101,-0.1919265289358521,0.6242670340318567,-0.288113696057314,-0.9716727563977584,-0.1182444904406274,-0.1039403998202884,0.1643631796180846,-0.334159398046685,-0.2954527400829356,-0.659585,-0.347733,0.590713,-0.308363,-1.044417,-0.111189,0.045329,-0.396698,-0.580464,-0.045617,0,0,-0.6599343321103439,-0.3234684905650647,0.5936861628180089,-0.2861752327778384,-1.0430572507013165,-0.1097330607989757,0.0492870868208472,-0.3883193440003827,-0.9397384262925816,-0.2987016691636998
17825,2024 8 08,15:42:37.940,-0.663456,-0.23684,0.616816,-0.351099,-0.971115,-0.204589,-0.007111,0.072225,-0.513068,-0.113145,0,0,-0.6633798101331996,-0.1941722024890595,0.6238944823302638,-0.2912629612544483,-0.9716448685778706,-0.1225617159185961,-0.099098929829274,0.1597562706371804,-0.3431048281443507,-0.2863373530787889,-0.659575,-0.347726,0.590752,-0.308316,-1.042675,-0.110231,0.041714,-0.552257,-0.557786,-0.145721,0,0,-0.6599163655048268,-0.3246813660368115,0.5935394546771084,-0.2872822711389464,-1.0430381381662504,-0.1097579577590269,0.0489084324798048,-0.3965162268003636,-0.9206408049779524,-0.2910526357055147
17826,2024 8 08,15:42:37.948,-0.663474,-0.23681,0.616804,-0.351108,-0.9714,-0.186716,0.044031,-0.207739,-0.197202,-0.195561,0,0,-0.6633845196265395,-0.1963040923646065,0.6235399582137505,-0.2942552131917259,-0.971632625148977,-0.1257694301226662,-0.0919424333378103,0.1413815071053213,-0.3358096867371332,-0.2817985354248494,-0.659562,-0.347726,0.590786,-0.308281,-1.041503,-0.1268,0.020041,-0.374395,-0.551689,-0.040824,0,0,-0.6598986472295855,-0.3258335977349709,0.593401781943253,-0.2883322075819991,-1.0429613812579377,-0.1106100598710755,0.0474650608558146,-0.3954101654603453,-0.9021932147290548,-0.278541203920239
17827,2024 8 08,15:42:37.957,-0.663488,-0.236997,0.617212,-0.350235,-0.97162,-0.105899,-0.114898,-0.019976,-0.470108,-0.342851,0,0,-0.6633896936452126,-0.1983387377463762,0.623223560303063,-0.2970542025321396,-0.971631993891528,-0.1247759086165329,-0.0930902116709197,0.1333136317500552,-0.3425246024002765,-0.2848511586536069,-0.659553,-0.347726,0.59081,-0.308253,-1.043959,-0.107752,0.034939,-0.28168,-0.376222,-0.011765,0,0,-0.6598813648681061,-0.3269282178482224,0.5932721928460903,-0.2893282472028992,-1.0430112621950407,-0.1104671568775217,0.0468387578130238,-0.389723657187328,-0.875894653992602,-0.265202393724227
17828,2024 8 08,15:42:37.965,-0.663494,-0.236904,0.617102,-0.350483,-0.971683,-0.105942,-0.112731,0.080013,-0.611792,-0.402258,0,0,-0.663394908962952,-0.2002670008590573,0.6229174822879099,-0.2997256424055326,-0.9716345441969516,-0.1238342131857063,-0.0940722510873737,0.1306486001625525,-0.3559879722802627,-0.2907215007209265,-0.659544,-0.347722,0.590842,-0.308215,-1.043628,-0.1323,0.035123,-0.427111,-0.498066,-0.003484,0,0,-0.6598644966247008,-0.3279679069558113,0.5931506832037858,-0.2902725848427542,-1.0430420990852889,-0.1115587990336456,0.0462529699223726,-0.3915930243279616,-0.8570032212929718,-0.2521164740380157
17829,2024 8 08,15:42:37.973,-0.6635,-0.236755,0.616768,-0.351159,-0.972289,-0.108307,-0.116801,0.18279,-0.432795,-0.309411,0,0,-0.6634001635148042,-0.2020914008161045,0.6226100081735144,-0.3022973102852559,-0.971667266987104,-0.1230578525264209,-0.095208688533005,0.1332556701544248,-0.3598283236662495,-0.2916559756848802,-0.659541,-0.347721,0.590852,-0.308204,-1.043531,-0.092982,0.002684,-0.469699,-0.533747,-0.001058,0,0,-0.6598483217934656,-0.3289555616080207,0.5930357490435965,-0.2911691556006164,-1.0430665441310245,-0.1106299590819634,0.044074521426254,-0.3954983231115635,-0.8408404102283231,-0.2395635503361148
17830,2024 8 08,15:42:37.982,-0.663512,-0.236734,0.616748,-0.351185,-0.972272,-0.108218,-0.11846,0.04329,-0.381257,-0.228111,0,0,-0.663405755339064,-0.2038235307752993,0.6223169077648387,-0.3047416947709931,-0.9716975036377488,-0.1223158599000999,-0.0963712541063548,0.1287573866467036,-0.360899757482937,-0.2884787269006362,-0.659533,-0.347721,0.590875,-0.308176,-1.04283,-0.102328,0.026783,-0.398429,-0.502436,-0.12643,0,0,-0.6598325557037924,-0.3298938335276196,0.5929277115914166,-0.2920194978205856,-1.043054716924473,-0.1102148611278652,0.0432099453549413,-0.3956448569559853,-0.823920189716907,-0.2339068728193091
17831,2024 8 08,15:42:37.990,-0.663523,-0.236714,0.616731,-0.351208,-0.973084,-0.105709,-0.117488,0.080095,-0.335045,-0.233409,0,0,-0.6634116175721108,-0.2054680542365343,0.6220376123765967,-0.3070650100324434,-0.9717668284558614,-0.1214855169050949,-0.097427091401037,0.1263242673143684,-0.3596070196087902,-0.2857252405556044,-0.659524,-0.347716,0.590907,-0.30814,-1.041948,-0.078077,0.053591,-0.542812,-0.492792,-0.040293,0,0,-0.6598171279186028,-0.3307849418512386,0.5928266760118457,-0.2928255229295563,-1.0429993810782494,-0.1086079680714719,0.0437289980871942,-0.403003214108186,-0.8073637802310616,-0.2242261791783436
17832,2024 8 08,15:42:37.998,-0.663533,-0.236689,0.616712,-0.351238,-0.971766,-0.105416,-0.117528,0.037231,-0.42165,-0.311802,0,0,-0.6634176866935052,-0.2070291015247076,0.6217713317577668,-0.3092736595308213,-0.9717667870330684,-0.1206820410598401,-0.0984321368309852,0.12186960394865,-0.3627091686283507,-0.2870290785278241,-0.659512,-0.347719,0.590938,-0.308103,-1.043645,-0.116956,0.060939,-0.423768,-0.530894,-0.13656,0,0,-0.6598018715226727,-0.3316316447586767,0.5927322422112534,-0.2935893967830785,-1.043031662024337,-0.1090253696678983,0.0445894981828345,-0.4040414534027767,-0.7935402912195084,-0.2198428702194264
17833,2024 8 08,15:42:38.007,-0.663544,-0.23666,0.616697,-0.351264,-0.96995,-0.105735,-0.117347,0.118017,-0.395681,-0.312887,0,0,-0.6634240023588299,-0.2085106464484722,0.6215176151698784,-0.3113731765542802,-0.9716759476814149,-0.1199346890068481,-0.0993778799894359,0.1216769737512175,-0.3643577601969331,-0.2883219746014329,-0.659494,0.150456,0.674699,0.295301,-1.043867,-0.130624,0.006886,-0.344666,-0.543182,-0.045473,0,0,-0.659786477946539,-0.3075272625207428,0.5968305801006908,-0.2641448769439246,-1.04307342892312,-0.1101053011845034,0.0427043232736928,-0.4010726807326379,-0.7810223766585329,-0.2111243767084551
17834,2024 8 08,15:42:38.015,-0.663551,-0.236642,0.616687,-0.35128,-0.968788,-0.105959,-0.117192,0.182648,-0.366418,-0.30523,0,0,-0.6634303522408884,-0.2099172141260486,0.6212760844113844,-0.3133685177265662,-0.971531550297344,-0.1192359045565057,-0.1002685859899641,0.1247255250636566,-0.3644607721870864,-0.2891673758713612,-0.659482,-0.34772,0.591,-0.308047,-1.044108,-0.105277,0.042256,-0.313648,-0.541079,-0.00032,0,0,-0.659771254049212,-0.3095368993947057,0.5965390510956562,-0.2663399830967283,-1.043125157476964,-0.1098638861252782,0.0426819071100081,-0.396701446696006,-0.7690252078256062,-0.2005841578730323
17835,2024 8 08,15:42:38.023,-0.663564,-0.23661,0.616669,-0.35131,-0.970689,-0.179772,-0.003643,0.004072,-0.306541,-0.364852,0,0,-0.6634370346288441,-0.2112518534197461,0.6210457301908152,-0.3152655918402379,-0.9714894227824769,-0.1222627093286804,-0.0954373066904659,0.1186928488104737,-0.3615647835777321,-0.2929516070777931,-0.65947,-0.34772,0.591029,-0.308018,-1.044935,-0.106467,0.044041,-0.365039,-0.489458,-7e-06,0,0,-0.6597561913467513,-0.3114460544249705,0.5962635485408734,-0.2684238839418919,-1.0432156496031155,-0.1096940418190143,0.0427498617545077,-0.3951183243612057,-0.7550468474343259,-0.1905552999793807
17836,2024 8 08,15:42:38.032,-0.663564,-0.23661,0.616669,-0.35131,-0.970731,-0.1084,-0.123046,0.000151,-0.305226,-0.366161,0,0,-0.6634433828974019,-0.2125197607487588,0.6208268936812744,-0.317067812248226,-0.971451501643353,-0.1215695738622464,-0.0968177413559426,0.1127657563699501,-0.3587478443988454,-0.2966120767239035,-0.659468,-0.242259,0.622894,-0.344115,-1.045144,-0.106894,0.045094,-0.350274,-0.480378,-0.02384,0,0,-0.6597417817794138,-0.3079867017037219,0.5975950711138297,-0.2722084397447973,-1.04331206712296,-0.1095540397280636,0.0428670686667823,-0.3928761081431454,-0.7413134050626096,-0.1822195349804116
17837,2024 8 08,15:42:38.040,-0.663566,-0.236586,0.616663,-0.351333,-0.970733,-0.104696,-0.117029,0.115797,-0.131494,-0.308314,0,0,-0.6634495137525318,-0.2137230727113209,0.6206186989972107,-0.3187810716358147,-0.9714155765611852,-0.120725895169134,-0.0978283042881455,0.1129173185514525,-0.3473851521789031,-0.2971971728877083,-0.65946,-0.347684,0.589222,-0.311522,-1.045977,-0.075877,0.017191,-0.233945,-0.422152,-0.182739,0,0,-0.6597276926904431,-0.3099715666185358,0.5971764175581382,-0.2741741177575574,-1.0434453137668118,-0.1078701877416604,0.0415832652334432,-0.3849295527359881,-0.7253553348094791,-0.1822455082313911
17838,2024 8 08,15:42:38.048,-0.663577,-0.236555,0.61665,-0.351355,-0.967995,-0.178381,-0.061307,-0.163561,-0.293819,-0.305381,0,0,-0.6634558880649052,-0.2148646690757548,0.6204202640473502,-0.3204097680540239,-0.971244547733126,-0.1236086504106773,-0.0960022390737382,0.0990934026238799,-0.3447068445699579,-0.2976063642433229,-0.659459,-0.347729,0.591071,-0.30795,-1.04359,-0.109947,0.049335,-0.167951,-0.369869,-0.2247,0,0,-0.6597142580559209,-0.311859438287609,0.5968711466802313,-0.2758629118696796,-1.043452548078471,-0.1079740283545774,0.041970851971771,-0.3740806250991887,-0.7075810180690052,-0.1843682328198215
17839,2024 8 08,15:42:38.057,-0.663583,-0.236536,0.616635,-0.351381,-0.970067,-0.146211,-0.019288,0.211964,-0.30428,-0.248974,0,0,-0.66346224366166,-0.2159482356219671,0.6202310008449827,-0.3219583296513227,-0.9711856703464696,-0.1247387678901434,-0.0921665271200513,0.1047369324926859,-0.34268550234146,-0.2951747460311567,-0.659454,-0.347731,0.591095,-0.307914,-1.043169,-0.106286,0.050328,-0.467593,-0.343695,-0.13017,0,0,-0.6597012451531248,-0.3136530163732285,0.5965823393462197,-0.2774654662761956,-1.0434383706745476,-0.1078896269368485,0.0423887093731825,-0.3787562438442292,-0.6893867171655549,-0.1816583211788304
17840,2024 8 08,15:42:38.065,-0.663602,-0.236494,0.616636,-0.351372,-0.965795,-0.164805,-0.105076,-0.756306,-0.194262,-0.133754,0,0,-0.663469231478577,-0.2169755238408687,0.6200512508027335,-0.3234290131687565,-0.970916136829146,-0.1267420794956363,-0.0928120007640487,0.0616847858680516,-0.335264327224387,-0.2871037087295988,-0.659462,-0.347715,0.591115,-0.307875,-1.042944,-0.098706,0.045601,-0.821837,-0.167919,-0.122816,0,0,-0.6596892828954685,-0.3153561155545671,0.5963089723789087,-0.2789859429623858,-1.0434136521408202,-0.1074304455900061,0.0425493239045234,-0.4009102816520177,-0.6633133313072771,-0.1787162051198889
17841,2024 8 08,15:42:38.073,-0.663595,-0.236489,0.616641,-0.351381,-0.973712,-0.108316,-0.121818,0.248521,-0.129639,-0.123295,0,0,-0.663475519904648,-0.2179511976488253,0.6198807382625968,-0.3248266125103187,-0.9710559299876887,-0.1258207755208545,-0.0942623007258463,0.071026596574649,-0.3249830608631676,-0.2789132732931189,-0.65947,-0.34772,0.591029,-0.308018,-1.036875,-0.119303,-0.04616,-0.523253,0.037031,-0.122148,0,0,-0.659678318750695,-0.3169743097768387,0.5960449737599632,-0.2804375458142665,-1.0430867195337792,-0.1080240733105057,0.0381138577092972,-0.4070274175694168,-0.6282961147419132,-0.1758877948638944
17842,2024 8 08,15:42:38.082,-0.663595,-0.236489,0.616641,-0.351381,-0.97453,-0.107961,-0.121613,0.35241,-0.122958,-0.122214,0,0,-0.6634814939094156,-0.218878087766384,0.619718751349467,-0.3261543318848027,-0.9712296334883044,-0.1249277867448117,-0.095629835689554,0.0850957667459166,-0.3148818078200092,-0.2710783096284629,-0.65947,-0.34772,0.591029,-0.308018,-1.03753,-0.106396,0.047311,-0.441388,0.01451,-0.136649,0,0,-0.6596679028131602,-0.3185115942879968,0.5957941750719651,-0.2818165685235531,-1.04280888355709,-0.1079426696449804,0.0385737148238323,-0.408745446690946,-0.5961558090048175,-0.1739258551206997
17843,2024 8 08,15:42:38.090,-0.663601,-0.236478,0.616619,-0.351416,-0.974625,-0.106644,-0.117338,0.205005,-0.122185,-0.175229,0,0,-0.6634874692139447,-0.2197580833780648,0.6195637637819936,-0.3274174152905625,-0.9713994018138892,-0.1240135974075711,-0.0967152439050762,0.0910912284086207,-0.3052469674290087,-0.2662858441470398,-0.65946,-0.347684,0.589222,-0.311522,-1.045407,-0.109785,0.053022,-0.117419,-0.278195,-0.223051,0,0,-0.6596575076725022,-0.319970214573597,0.5954655663183668,-0.2833018400973754,-1.0429387893792357,-0.1080347861627314,0.0392961290826407,-0.3941791243563986,-0.5802577685545767,-0.1763821123646647
17844,2024 8 08,15:42:38.098,-0.663604,-0.236471,0.616608,-0.351434,-0.972121,-0.181284,0.000172,-0.075918,-0.174509,-0.129571,0,0,-0.6634932957532474,-0.2205937292091615,0.619415975592894,-0.3286182445260344,-0.9714354817231944,-0.1268771175371926,-0.0918708817098224,0.0827407669881897,-0.2987100690575583,-0.2594501019396877,-0.659457,-0.243385,0.626643,-0.33645,-1.044428,-0.110666,0.040523,-0.149767,-0.363685,-0.202918,0,0,-0.6596474822888772,-0.3161409538449171,0.5970244380024484,-0.2859592480925067,-1.0430132499102736,-0.1081663468545948,0.0393574726285087,-0.3819585181385787,-0.5694291301268478,-0.1777089067464314
17845,2024 8 08,15:42:38.107,-0.663602,-0.236494,0.616636,-0.351372,-0.970531,-0.104798,-0.117036,0.247041,-0.13007,-0.174939,0,0,-0.6634987309655851,-0.2213887427487034,0.6192769768132492,-0.3297559322997327,-0.9713902576370348,-0.1257731616603329,-0.0931291376243313,0.0909557786387802,-0.2902780656046804,-0.2552245468427033,-0.659458,-0.34774,0.591151,-0.307787,-1.043498,-0.10702,0.050799,-0.312212,-0.142173,-0.275589,0,0,-0.6596380081744332,-0.3177209061526712,0.596730766102326,-0.2870506356878814,-1.04303748741476,-0.1081090295118651,0.0399295489970832,-0.3784711922316497,-0.5480663236205054,-0.1826029114091099
17846,2024 8 08,15:42:38.115,-0.663603,-0.236447,0.616592,-0.351479,-0.973967,-0.108629,-0.122066,0.040438,-0.072335,-0.181769,0,0,-0.6635039444173058,-0.2221416556112682,0.6191427279725867,-0.330842085684746,-0.971519094755183,-0.1249159535773163,-0.0945759807431147,0.0884298897068412,-0.2793809123244463,-0.2515517695005682,-0.659454,-0.347731,0.591095,-0.307914,-1.045234,-0.109024,0.022869,-0.197337,-0.295029,-0.191342,0,0,-0.6596288077657114,-0.3192214108450376,0.5964489777972096,-0.2880938039034873,-1.043147313044022,-0.1081547780362718,0.0390765215472291,-0.3694144826200672,-0.5354144574394801,-0.1830398658386544
17847,2024 8 08,15:42:38.123,-0.663598,-0.236454,0.616576,-0.351514,-0.9717,-0.110054,-0.113205,0.258968,-0.163771,-0.233254,0,0,-0.6635086471964404,-0.2228572728307048,0.6190143915739573,-0.3318756814005087,-0.9715281400174238,-0.1241728558984505,-0.095507431705959,0.0969567952214991,-0.273600416708224,-0.2506368810255397,-0.659449,-0.347761,0.591163,-0.307759,-1.046212,-0.109064,0.049792,-0.135207,-0.101877,-0.134161,0,0,-0.6596198173774258,-0.3206483903027857,0.596184678907349,-0.2890770637083129,-1.0433005473918209,-0.1082002391344582,0.0396122954698676,-0.3577041084890638,-0.5137375845675061,-0.1805959225467216
17848,2024 8 08,15:42:38.132,-0.663597,-0.236455,0.616573,-0.35152,-0.97131,-0.110299,-0.111678,0.296622,-0.179526,-0.242125,0,0,-0.6635130648366184,-0.2235371591891695,0.6188923219952595,-0.3328578973304832,-0.9715172330165528,-0.1234791631035279,-0.096315960120661,0.1069400554604242,-0.2688966958728128,-0.2502112869742627,-0.659448,-0.347764,0.591163,-0.307757,-1.046111,-0.109159,0.049298,-0.070702,-0.061871,-0.110859,0,0,-0.6596112265085545,-0.3220041707876465,0.5959335949619815,-0.2900110605228972,-1.0434410700222296,-0.1082481771777353,0.0400965806963742,-0.3433540030646106,-0.4911442553391307,-0.1771090764193855
17849,2024 8 08,15:42:38.140,-0.663598,-0.236454,0.616576,-0.351514,-0.969667,-0.10563,-0.122007,0.008859,-0.182406,-0.145532,0,0,-0.6635173115947876,-0.224183001229711,0.6187765058954965,-0.333790702463959,-0.971424721365725,-0.1225867049483515,-0.097600512114628,0.1020360026874029,-0.2645721610791722,-0.2449773226255496,-0.659445,-0.347776,0.591157,-0.307762,-1.044022,-0.126923,0.01154,0.240988,-0.012091,-0.021664,0,0,-0.6596029151831269,-0.3232927622482641,0.5956947652138824,-0.2908986074967524,-1.0434701165211182,-0.1091819183188485,0.0386687516615555,-0.3141369029113801,-0.4671915925721742,-0.1693368225984163
17850,2024 8 08,15:42:38.148,-0.663599,-0.236426,0.616574,-0.351534,-0.975945,-0.112488,-0.115853,-0.095168,0.204991,-0.126891,0,0,-0.6635213960150481,-0.2247951511682255,0.6186663806007217,-0.334677867340761,-0.9716507352974388,-0.1220817697009339,-0.0985131365088966,0.0921758025530328,-0.2410940030252135,-0.2390730064942721,-0.659438,-0.347789,0.591157,-0.307762,-1.041795,-0.113557,0.064018,0.036403,-0.028712,-0.030679,0,0,-0.6595946694239705,-0.3245175741358509,0.5954678769531883,-0.2917417771219148,-1.0433863606950622,-0.1094006724029061,0.0399362140784777,-0.2966099077658111,-0.4452676129435654,-0.1624039314684954
17851,2024 8 08,15:42:38.157,-0.663608,-0.23642,0.616544,-0.351572,-0.969556,-0.108515,-0.118819,0.218992,-0.482725,-0.2189,0,0,-0.6635257262142957,-0.2253763936098142,0.6185602615706856,-0.335522573973723,-0.9715459985325668,-0.1214034312158872,-0.0995284296834517,0.0985166124253811,-0.2531755528739529,-0.2380643561695585,-0.659432,-0.347802,0.591159,-0.307757,-1.044294,-0.110485,0.049585,-0.068527,-0.17186,-0.185236,0,0,-0.659586535952772,-0.3256817954290584,0.5952524331055289,-0.292542538265819,-1.043431742660309,-0.1094548887827608,0.0404186533745538,-0.2852057623775205,-0.4315972322963871,-0.1635455348950706
17852,2024 8 08,15:42:38.165,-0.663609,-0.236415,0.616522,-0.351612,-0.974253,-0.108427,-0.120964,0.333111,-0.345095,-0.285778,0,0,-0.663529889903581,-0.2259283239293235,0.6184583484921512,-0.3363270452750368,-0.9716813486059384,-0.1207546096550929,-0.1006002081992791,0.1102463318041121,-0.2577715252302552,-0.2404500383610805,-0.659431,-0.34781,0.59116,-0.307749,-1.042637,-0.110456,0.050186,0.012713,-0.064229,-0.123478,0,0,-0.6595787591551333,-0.3267882056576054,0.5950478114502524,-0.293302861352528,-1.0433920055272936,-0.1095049443436227,0.0409070207058261,-0.2703098242586445,-0.4132288206815677,-0.1615421581503171
17853,2024 8 08,15:42:38.173,-0.663623,-0.236409,0.616491,-0.351646,-0.972305,-0.10953,-0.119196,0.264975,-0.408009,-0.113663,0,0,-0.6635345454084018,-0.2264523577328573,0.6183599810675435,-0.337092993011285,-0.9717125311756414,-0.1201933791723382,-0.1015299977893152,0.1179827652139065,-0.2652833989687424,-0.2341106864430265,-0.659425,-0.347812,0.59117,-0.30774,-1.043522,-0.108711,0.050087,-0.096828,-0.214651,-0.028915,0,0,-0.6595710711973766,-0.3278393953747251,0.5948539208777398,-0.2940247182849016,-1.043398505250929,-0.1094652471264416,0.0413660196705348,-0.2616357330457123,-0.4032999296474893,-0.1549108002428012
17854,2024 8 08,15:42:38.182,-0.663626,-0.236408,0.616484,-0.351654,-0.971854,-0.109785,-0.118787,0.249209,-0.422566,-0.073838,0,0,-0.6635391181379817,-0.2269501398462144,0.6182661820141663,-0.3378210433607207,-0.9717196046168594,-0.1196729602137213,-0.1023928478998494,0.1245440769532112,-0.2731475290203052,-0.2260970521208752,-0.659414,-0.347817,0.591185,-0.307729,-1.047561,-0.109585,0.046549,-0.162116,-0.329339,-0.007034,0,0,-0.6595632176375077,-0.3288382756059889,0.5946704748338528,-0.2947099323706565,-1.0436066299883824,-0.1094712347701195,0.0416251686870081,-0.2566597463934267,-0.3996018831651148,-0.1475169602306612
17855,2024 8 08,15:42:38.190,-0.663635,-0.236408,0.616456,-0.351682,-0.972111,-0.110941,-0.118324,0.154132,-0.426066,-0.109907,0,0,-0.6635439122310827,-0.2274230328539037,0.618175672913458,-0.3385140911926846,-0.9717391743860164,-0.1192363622030352,-0.1031894055048569,0.1260234731055506,-0.28079345256929,-0.2202875495148314,-0.659409,0.199927,0.683915,0.239724,-1.048138,-0.109845,0.045649,-0.165469,-0.356913,0.004398,0,0,-0.6595555067556322,-0.3024000118256894,0.5991327010921601,-0.2679882357521236,-1.0438331984889633,-0.1094899230316135,0.0418263602526577,-0.2521002090737553,-0.3974674390068591,-0.1399212122191281
17856,2024 8 08,15:42:38.198,-0.663652,-0.236398,0.61643,-0.351704,-0.97398,-0.110869,-0.122539,-0.004906,-0.381825,-0.073784,0,0,-0.6635493166195284,-0.2278717812112085,0.6180883892677851,-0.3391735866330504,-0.9718512156667156,-0.1188179940928835,-0.1041568852296141,0.119476999450273,-0.2858450299408255,-0.2129623720390898,-0.659397,-0.347825,0.591205,-0.307717,-1.045687,-0.099456,-0.036829,-0.124878,-0.357686,0.027961,0,0,-0.6595475814178505,-0.3046712612344049,0.5987363160375521,-0.2699746739645174,-1.043925888564515,-0.1089882268800328,0.0378935922400248,-0.2457390986200675,-0.3954783670565161,-0.1315271016081717
17857,2024 8 08,15:42:38.207,-0.663669,-0.236399,0.616392,-0.351738,-0.973034,-0.160061,-0.131169,0.266249,-0.504202,-0.064469,0,0,-0.663555300788552,-0.2282981421506481,0.6180035698043957,-0.3398018073013979,-0.9719103548833796,-0.1208801443882393,-0.1055074909681334,0.1268155994777594,-0.2967628784437842,-0.2055377034371353,-0.659391,-0.347826,0.591223,-0.307694,-1.044389,-0.068564,0.024191,-0.345801,-0.337409,-0.081659,0,0,-0.6595397523469579,-0.3068289981726847,0.5983606502356744,-0.2718606402662915,-1.0439490441362893,-0.1069670155360312,0.0372084626280235,-0.2507421936890641,-0.3925748987036903,-0.1290336965277631
17858,2024 8 08,15:42:38.215,-0.663693,-0.236398,0.616351,-0.351766,-0.971372,-0.108883,-0.118284,0.294368,-0.492702,-0.0179,0,0,-0.6635621857491244,-0.2287031350431156,0.6179209413141759,-0.340400016936328,-0.9718834371392104,-0.1202802871688273,-0.1061463164197267,0.1351932195038714,-0.306559834521595,-0.1961558182652786,-0.659386,-0.347822,0.591248,-0.307662,-1.044025,-0.119915,-0.029064,-0.410594,-0.422546,-0.11085,0,0,-0.65953206472961,-0.3088786482640505,0.5980050177238907,-0.2736507082529769,-1.0439528419294748,-0.1076144147592296,0.0338948394966224,-0.2587347840046109,-0.3940734537685058,-0.1281245117013749
17859,2024 8 08,15:42:38.223,-0.663723,-0.236396,0.616314,-0.351776,-0.973357,-0.147204,-0.032806,0.084119,-0.445951,0.082072,0,0,-0.6635702264616682,-0.2290877782909599,0.617840594248467,-0.3409688160895116,-0.97195711528225,-0.1216264728103859,-0.1024793005987403,0.1326395085286779,-0.3135293927955153,-0.1822444273520146,-0.659387,-0.347814,0.591268,-0.30763,-1.045546,-0.10544,0.049541,-0.42482,-0.289228,-0.124758,0,0,-0.6595248114931295,-0.3108254158508479,0.5976681668376962,-0.2753496728403281,-1.044032499833001,-0.1075056940212681,0.0346771475217912,-0.2670390448043803,-0.3888311810800804,-0.1279561861163062
17860,2024 8 08,15:42:38.232,-0.663731,-0.236396,0.616303,-0.351779,-0.973918,-0.117388,-0.123545,0.024705,-0.43274,0.110323,0,0,-0.6635782651385848,-0.2294531893764118,0.6177637145360437,-0.3415093252850359,-0.9720551595181374,-0.1214145491698666,-0.1035325855688033,0.127242783102244,-0.3194899231557395,-0.1676160559844139,-0.659387,-0.347814,0.591268,-0.30763,-1.044783,-0.108567,0.048349,-0.167877,-0.214273,-0.165969,0,0,-0.6595179209184729,-0.3126748450583055,0.5973481584958114,-0.2769636891983116,-1.0440700248413508,-0.1075587593202047,0.0353607401457017,-0.2620809425641613,-0.3801032720260764,-0.1298568268104908
17861,2024 8 08,15:42:38.240,-0.663742,-0.236412,0.61627,-0.351806,-0.973057,-0.112816,-0.123541,0.220628,-0.428902,0.033257,0,0,-0.6635864518816555,-0.2298011299075912,0.6176890288092416,-0.3420241590207841,-0.9721052515422304,-0.1209846217113733,-0.1045330062903631,0.1319120439471318,-0.3249605269979525,-0.1575724031851932,-0.659387,-0.347814,0.591268,-0.30763,-1.04433,-0.124157,0.044297,-0.093243,-0.186736,-0.172175,0,0,-0.6595113748725493,-0.3144318028053902,0.5970441505710208,-0.278497004738396,-1.044083023599283,-0.1083886713541945,0.0358075531384166,-0.2536390454359532,-0.3704349084247726,-0.1319727354699663
17862,2024 8 08,15:42:38.248,-0.663755,-0.23643,0.616235,-0.351831,-0.971114,-0.107067,-0.118816,0.32122,-0.427758,0.010278,0,0,-0.6635948792875727,-0.2301325734122117,0.6176163273687795,-0.3425145010697449,-0.9720556889651188,-0.1202887406258046,-0.105247155975845,0.1413774417497751,-0.3301004006480549,-0.1491798830259335,-0.659385,-0.347825,0.591282,-0.307595,-1.042965,-0.110787,0.048511,-0.076691,-0.153459,-0.12615,0,0,-0.6595050561289217,-0.3161014626651207,0.5967560430424697,-0.2799519045014763,-1.0440271224193187,-0.1085085877864848,0.0364427254814957,-0.2447916431641555,-0.359586113003534,-0.131681598696468
17863,2024 8 08,15:42:38.257,-0.663765,-0.236428,0.616226,-0.351828,-0.968851,-0.110316,-0.115369,-0.232104,0.03151,0.003252,0,0,-0.6636033853231941,-0.2304473447416011,0.6175468110003405,-0.3429801760162577,-0.9718954545168628,-0.1197901035945144,-0.1057532481770527,0.1227033696622864,-0.3120198806156521,-0.1415582888746368,-0.659379,-0.34783,0.591291,-0.307584,-1.043991,-0.109229,0.048061,-0.124633,-0.226725,-0.051204,0,0,-0.6594987533224757,-0.3176878895318646,0.5964827908903462,-0.2813335092764024,-1.0440253162983528,-0.1085446083971605,0.0370236392074209,-0.2387837110059477,-0.3529430573533573,-0.1276577187616446
17864,2024 8 08,15:42:38.265,-0.663764,-0.236443,0.616222,-0.351828,-0.972105,-0.109682,-0.115611,0.089966,-0.237457,0.083605,0,0,-0.6636114160570343,-0.2307471275045211,0.6174805704503235,-0.3434225672154448,-0.9719059317910196,-0.1192846984147887,-0.1062461357682001,0.121066501179172,-0.3082917365848694,-0.1303001244309049,-0.659372,-0.347835,0.591306,-0.307565,-1.044133,-0.092826,0.004263,-0.224404,-0.309893,-0.082386,0,0,-0.6594924156563519,-0.3191952450552713,0.5962239513458288,-0.2826450838125823,-1.044030700483435,-0.1077586779773025,0.0353856072470499,-0.2380647254556503,-0.3507905544856894,-0.1253941328235623
17865,2024 8 08,15:42:38.273,-0.663766,-0.236459,0.616201,-0.351849,-0.97086,-0.174582,-0.002757,0.111449,-0.119403,-0.013182,0,0,-0.6636191452541825,-0.231032721129295,0.6174165919278073,-0.3438438888546725,-0.9718536352014688,-0.1220495634940492,-0.1010716789797901,0.1205856261202134,-0.298847299755626,-0.1244442182093597,-0.65936,-0.347839,0.591326,-0.307548,-1.043093,-0.117448,0.062213,-0.131652,-0.276939,0.008063,0,0,-0.6594857948735342,-0.3206274328025078,0.5959790537785374,-0.2838902296219531,-1.043983815459263,-0.1082431440784374,0.0367269768846974,-0.2327440891828678,-0.3470979767614049,-0.1187212761823842
17866,2024 8 08,15:42:38.282,-0.663768,-0.236466,0.616191,-0.351859,-0.970246,-0.107915,-0.121093,0.122046,-0.061168,-0.060926,0,0,-0.6636265879914733,-0.2313043850728302,0.6173553123314168,-0.3442446444119388,-0.9717732534413952,-0.1213428353193468,-0.1020727450308005,0.1206586448142028,-0.2869633347678447,-0.1212683072988917,-0.659347,-0.347846,0.591349,-0.307523,-1.043001,-0.11084,0.046614,-0.243885,-0.366008,1.8e-05,0,0,-0.6594788551298574,-0.3219883611623824,0.5957475510896106,-0.2850718681408554,-1.0439346746863,-0.1083729868745155,0.0372213280404625,-0.2333011347237244,-0.3480434779233347,-0.112784312373265
17867,2024 8 08,15:42:38.290,-0.663768,-0.236466,0.616191,-0.351859,-0.973148,-0.166966,0.047232,0.12207,0.234683,-0.009787,0,0,-0.6636336585918996,-0.2315624658191887,0.6172970967148459,-0.3446253621913419,-0.9718419907693252,-0.1236239935533794,-0.0946075077792605,0.1207292125734926,-0.2608810180294525,-0.1156942419339471,-0.659347,-0.347846,0.591349,-0.307523,-1.043001,-0.11084,0.046614,-0.244136,-0.366207,0.0,0,0,-0.6594722623733644,-0.3232812431042632,0.5955276235351301,-0.2861944247338126,-1.043887990951985,-0.1084963375307897,0.0376909616384394,-0.2338428779875382,-0.3489516540271679,-0.1071450967546017
17868,2024 8 08,15:42:38.298,-0.663772,-0.236466,0.616167,-0.351893,-0.971195,-0.108597,-0.117288,0.173131,-0.131446,-0.07071,0,0,-0.6636405756623046,-0.2318076425282293,0.6172405918791036,-0.3449887440817747,-0.971809641230859,-0.1228726438757105,-0.0957415323902975,0.123349301944818,-0.2544092671279798,-0.1134450298372497,-0.659341,-0.347846,0.591363,-0.30751,-1.042056,-0.109623,0.018302,-0.24414,-0.549317,1e-06,0,0,-0.6594656992546962,-0.3245094809490501,0.5953193923583736,-0.2872602034971219,-1.0437963914043855,-0.1085526706542502,0.0367215135565174,-0.2343577340881612,-0.3589699213258094,-0.1017877919168716
17869,2024 8 08,15:42:38.307,-0.66377,-0.236469,0.616155,-0.351917,-0.971962,-0.172126,0.009836,0.232931,-0.122512,-0.111787,0,0,-0.6636470468791893,-0.2320407104018178,0.6171863122851484,-0.345335156877686,-0.971817259169316,-0.1253353116819249,-0.0904626557707826,0.1288283868475771,-0.2478144037715808,-0.1133621283453872,-0.659362,-0.347821,0.591371,-0.307479,-1.044817,-0.100118,0.050558,-0.709418,0.165571,0.0,0,0,-0.6594605142919614,-0.3256750569015976,0.595121972740455,-0.2882711433222659,-1.0438474218341665,-0.1081309371215377,0.0374133378786915,-0.2581107473837531,-0.3327428752595189,-0.096698402321028
17870,2024 8 08,15:42:38.315,-0.663776,-0.236475,0.616142,-0.351924,-0.97139,-0.109736,-0.122715,0.243455,-0.536517,-0.183331,0,0,-0.6636534945352298,-0.2322624248817269,0.6171340966708909,-0.3456645990338017,-0.9717958962108502,-0.1245553460978287,-0.0920752729822435,0.1345597175051982,-0.2622495335830018,-0.1168605719281179,-0.659382,-0.347805,0.591354,-0.307485,-1.036694,-0.10652,0.045726,-0.444508,0.182033,0.0,0,0,-0.6594565885773632,-0.3267815540565177,0.5949335741034322,-0.2892318361561525,-1.043489750742458,-0.1080503902654608,0.037828970984757,-0.2674306100145655,-0.3070040814965429,-0.0918634822049766
17871,2024 8 08,15:42:38.323,-0.66378,-0.23649,0.616119,-0.351944,-0.970843,-0.109527,-0.118997,0.146424,-0.197051,0.021015,0,0,-0.6636598198084683,-0.2324738036376405,0.6170833418373464,-0.3459785690821115,-0.9717482514003076,-0.1238039287929372,-0.0934213593331313,0.1351529316299383,-0.2589896069038517,-0.109966793331712,-0.659354,-0.347824,0.591372,-0.307489,-1.048401,-0.117748,0.049953,0.362012,-0.268718,0.112936,0,0,-0.6594514591484951,-0.3278336763536918,0.5947554953982606,-0.2901446943483449,-1.043735313205335,-0.1085352707521878,0.0384351724355191,-0.2359584795138371,-0.3050897774217158,-0.0816235080947278
17872,2024 8 08,15:42:38.332,-0.663781,-0.236493,0.616115,-0.351949,-0.970742,-0.109391,-0.118241,0.124216,-0.239992,0.001851,0,0,-0.663665878818045,-0.2326747634557585,0.6170349247454789,-0.346277090628006,-0.971697938830292,-0.1230832823532904,-0.0946623413664747,0.1346060850484414,-0.2580397265586591,-0.1043759036651264,-0.659356,-0.347814,0.591375,-0.307491,-1.042141,-0.110561,0.046257,0.031891,-0.023672,0.121266,0,0,-0.6594466861910703,-0.3288326925360071,0.5945864706283476,-0.2910120096309276,-1.0436555975450683,-0.1086365572145784,0.0388262638137431,-0.2225660055381453,-0.2910188885506299,-0.0714790326899914
17873,2024 8 08,15:42:38.340,-0.663793,-0.327648,0.595005,-0.313042,-0.969215,-0.180583,-0.00535,0.027382,-0.338626,0.095092,0,0,-0.6636722348771427,-0.2374234252829706,0.615933428508205,-0.3446153360966056,-0.9715737918887776,-0.1259582682356259,-0.090196724298151,0.1292448807960193,-0.2620690402307261,-0.09440250848187,-0.659356,-0.347814,0.591375,-0.307491,-1.041597,-0.109937,0.045936,0.00322,-0.00239,0.121989,0,0,-0.6594421518815167,-0.3297817579092068,0.5944258970969302,-0.2918359591493812,-1.0435526676678148,-0.1087015793538495,0.039181750623056,-0.211276705261238,-0.2765874441230984,-0.0618056310554918
17874,2024 8 08,15:42:38.348,-0.663798,-0.236492,0.6161,-0.351945,-0.969952,-0.110165,-0.108409,-0.043683,0.104831,0.21259,0,0,-0.6636785231332855,-0.237376854018822,0.6159417570827946,-0.3449818192917753,-0.9714927022943386,-0.1251686048238446,-0.0911073380832434,0.1205984867562183,-0.2437240382191898,-0.0790528830577765,-0.659345,-0.347814,0.591392,-0.307482,-1.046737,-0.095505,0.002462,-0.324277,-0.216699,0.013847,0,0,-0.6594372942874408,-0.3306833700137464,0.5942742022420836,-0.2926182611919121,-1.0437118842844242,-0.108041750386157,0.0373457630919032,-0.2169267199981761,-0.2735930219169435,-0.0580229995027172
17875,2024 8 08,15:42:38.357,-0.66381,-0.236508,0.616068,-0.351965,-0.968731,-0.107862,-0.111979,0.494921,-0.465589,0.055583,0,0,-0.6636850969766211,-0.2373334113178809,0.615948069228655,-0.3453309783271865,-0.9713546171796216,-0.1243032745826523,-0.0921509211790812,0.1393146124184074,-0.2548172863082303,-0.0723210889048877,-0.659333,-0.347814,0.591401,-0.307491,-1.041762,-0.090598,0.000679,-0.094123,-0.187328,0.108467,0,0,-0.6594320795730687,-0.331539901513059,0.5941305421299794,-0.2933618981323165,-1.0436143900702028,-0.1071695628668491,0.035512424937308,-0.2107865339982673,-0.2692797708210963,-0.0496984995275813
17876,2024 8 08,15:42:38.365,-0.663826,-0.236536,0.616023,-0.351996,-0.969809,-0.107792,-0.118568,0.647114,-0.46099,0.189734,0,0,-0.66369214212779,-0.2372935407519869,0.6159518157672221,-0.3456642294108272,-0.9712773363206404,-0.1234777108535197,-0.0934717751201272,0.1647045817974871,-0.2651259219928188,-0.0592183344596433,-0.659313,-0.34781,0.591419,-0.307504,-1.040303,-0.116135,0.045665,0.039693,-0.183686,0.278119,0,0,-0.6594261255944152,-0.3323534064374061,0.5939949650234804,-0.2940690032257006,-1.0434488205666923,-0.1076178347235067,0.0360200536904426,-0.1982625572983539,-0.2650000822800414,-0.0333076245512023
17877,2024 8 08,15:42:38.373,-0.663844,-0.236567,0.615977,-0.352021,-0.96982,-0.110051,-0.118868,0.577941,-0.34245,0.236029,0,0,-0.6636997350214006,-0.2372572137143875,0.6159530749788611,-0.3459820679402858,-0.9712044695046084,-0.1228063753108437,-0.0947415863641208,0.1853664027076127,-0.2689921258931778,-0.0444559677366611,-0.659296,-0.347804,0.591438,-0.307509,-1.040521,-0.108591,0.049724,-0.149889,-0.287063,0.197271,0,0,-0.6594196193146944,-0.3331259361155357,0.5938671167723063,-0.2947410030644156,-1.043302429538358,-0.1076664929873313,0.0367052510059205,-0.1958438794334362,-0.2661032281660394,-0.0217786933236421
17878,2024 8 08,15:42:38.382,-0.663849,-0.236576,0.615965,-0.352027,-0.969766,-0.110716,-0.11869,0.553905,-0.311152,0.24284,0,0,-0.6637071982703305,-0.2372231530286681,0.6159536712299181,-0.3462843145432716,-0.971132546029378,-0.1222018565453015,-0.0959390070459147,0.2037933325722321,-0.2711001195985189,-0.0300911693498281,-0.659278,-0.347793,0.591462,-0.307513,-1.043833,-0.108432,0.045693,-0.22903,-0.302272,0.236626,0,0,-0.6594125383489597,-0.3338592893097589,0.593746860933691,-0.2953796029111948,-1.04332895806144,-0.1077047683379647,0.0371546384556244,-0.1975031854617644,-0.2679116667577374,-0.00885845865746
17879,2024 8 08,15:42:38.390,-0.663867,-0.236603,0.61593,-0.352037,-0.970108,-0.108022,-0.119712,0.37513,-0.393685,0.375147,0,0,-0.663715188356814,-0.2371921453772347,0.6159524876684221,-0.346571948816108,-0.9710813187279091,-0.1214928637180364,-0.097127656693619,0.2123601659436204,-0.2772293636185929,-0.0098292608823367,-0.659276,-0.347791,0.591466,-0.307514,-1.044357,-0.102032,0.045578,-0.241553,-0.304678,0.242854,0,0,-0.6594057114315117,-0.3345558748442709,0.5936328178870065,-0.295986322765635,-1.043380360158368,-0.1074211299210665,0.0375758065328432,-0.1997056761886761,-0.2697499834198505,0.0037271642754129
17880,2024 8 08,15:42:38.398,-0.663888,-0.236641,0.615892,-0.352039,-0.969529,-0.112661,-0.121083,0.317902,-0.291599,0.460949,0,0,-0.6637238289389732,-0.237164588108373,0.615949463285001,-0.3468453013753025,-0.9710037027915136,-0.1210512705321346,-0.0983254238589381,0.2176372576464394,-0.2779478454376633,0.0137096521617801,-0.659267,-0.347775,0.591483,-0.307518,-1.043247,-0.110403,0.046455,-0.143806,-0.205222,0.293838,0,0,-0.659398775859936,-0.3352168311020574,0.5935253269926561,-0.2965629066273532,-1.0433736921504495,-0.1075702234250132,0.0380197662062011,-0.1969106923792423,-0.266523584248858,0.0182327060616422
17881,2024 8 08,15:42:38.407,-0.663903,-0.236693,0.615846,-0.352055,-0.973411,-0.106162,-0.120466,0.563416,-0.253267,0.397761,0,0,-0.6637327874920245,-0.2371410087029543,0.6159442901207509,-0.3471057863065374,-0.9711240676519378,-0.1203068070055278,-0.0994324526659911,0.2349261947641174,-0.2767138031657801,0.0329122195536911,-0.659251,-0.347764,0.591502,-0.30753,-1.042654,-0.131057,0.003464,-0.076952,-0.187358,0.352293,0,0,-0.6593913870669392,-0.3358441895469545,0.5934241606430233,-0.2971112612959856,-1.0433377075429269,-0.1087445622537625,0.036291977895891,-0.1909127577602802,-0.2625653050364151,0.0349357207585601
17882,2024 8 08,15:42:38.415,-0.663913,-0.236748,0.615803,-0.352073,-0.97478,-0.106696,-0.11817,0.64953,-0.245988,0.414695,0,0,-0.6637417981174233,-0.2371213582678066,0.6159372256147133,-0.3473541469912106,-0.9713068642693408,-0.1196262666552514,-0.1003693300326916,0.2556563850259115,-0.2751775130074911,0.0520013585760065,-0.659245,-0.347749,0.591513,-0.307538,-1.042541,-0.110447,0.044072,-0.064257,-0.037927,0.217354,0,0,-0.6593840677135923,-0.3364394300696068,0.5933286026108721,-0.2976325982311862,-1.0432978721657804,-0.1088296841410744,0.0366809790010964,-0.1845799698722662,-0.2513333897845943,0.0440566347206321
17883,2024 8 08,15:42:38.423,-0.663924,-0.236802,0.61576,-0.352093,-0.974056,-0.104277,-0.120392,0.583594,-0.244533,0.383005,0,0,-0.6637509082115521,-0.2371053903544162,0.6159283643339777,-0.34759108964165,-0.971444321055874,-0.1188588033224889,-0.101370463531057,0.2720532657746159,-0.2736452873571166,0.0685515406472062,-0.659258,-0.347709,0.591521,-0.307541,-1.046365,-0.108602,0.040444,-0.494412,0.328486,0.238454,0,0,-0.6593777643279126,-0.3370029085661265,0.5932382224803284,-0.2981280183196269,-1.0434512285574913,-0.1088182999340206,0.0368691300510416,-0.2000715713786529,-0.2223424202953646,0.0537765029846005
17884,2024 8 08,15:42:38.432,-0.663934,-0.236847,0.615724,-0.352106,-0.974407,-0.152571,-0.011076,0.63906,-0.20316,0.32887,0,0,-0.6637600628009744,-0.2370924708366954,0.6159181461172788,-0.3478168351595675,-0.97159245500308,-0.1205444131563644,-0.0968557403545041,0.2904036024858851,-0.2701210229892607,0.0815674636148459,-0.659276,-0.347791,0.591466,-0.307514,-1.041848,-0.106783,0.040628,-0.299686,0.215372,0.242878,0,0,-0.659372676111517,-0.3375423131378202,0.5931496113563121,-0.2985973174036456,-1.0433710671296166,-0.1087165349373196,0.0370570735484895,-0.2050522928097202,-0.2004566992805963,0.0632315778353705
17885,2024 8 08,15:42:38.440,-0.663937,-0.236861,0.615713,-0.35211,-0.974585,-0.103094,-0.115657,0.663908,-0.187745,0.310657,0,0,-0.6637689096609256,-0.2370808972948606,0.6159078888114148,-0.3480314934015891,-0.971742082252926,-0.1196718924985462,-0.0977958033367789,0.3090788223615908,-0.2660022218397976,0.0930219404341036,-0.65928,-0.347682,0.591488,-0.307585,-1.040857,-0.107652,0.038299,-0.256991,0.19057,0.243849,0,0,-0.659368042305941,-0.3380492974809291,0.5930665307884965,-0.2990467015334633,-1.0432453637731358,-0.1086633081904536,0.0371191698710651,-0.2076492281692342,-0.1809053643165665,0.0722624489436019
17886,2024 8 08,15:42:38.448,-0.663949,-0.236883,0.615688,-0.352119,-0.973985,-0.156881,0.002382,0.268717,-0.264396,0.266407,0,0,-0.6637779141778792,-0.2370710024301176,0.615896894370844,-0.3482358687315096,-0.9718542281402798,-0.1215323478736189,-0.09278691316994,0.3070607312435112,-0.2659219107478077,0.1016911934123984,-0.659252,-0.347684,0.591515,-0.307592,-1.044339,-0.113784,0.050376,0.169963,-0.093229,0.290425,0,0,-0.6593622401906439,-0.3385310326068827,0.5929889542490716,-0.2994739664567901,-1.043300045584479,-0.1089193427809309,0.0377820113775118,-0.1887686167607725,-0.1765215461007382,0.0831705764964218
17887,2024 8 08,15:42:38.457,-0.66396,-0.236905,0.615658,-0.352134,-0.973743,-0.104388,-0.117523,0.50899,-0.295002,0.091239,0,0,-0.6637870184689852,-0.2370627023086117,0.6158849496523018,-0.3484307752949341,-0.9719486667332656,-0.1206751304799379,-0.094023717511443,0.3171571946813356,-0.2673759152104173,0.1011685837417785,-0.659244,-0.347669,0.591528,-0.307601,-1.045533,-0.105374,0.047701,0.088211,-0.114875,0.301496,0,0,-0.6593563281811118,-0.3389879309765385,0.5929159065366181,-0.2998803181339506,-1.0434116933052549,-0.1087420756418844,0.0382779608086362,-0.1749196359227338,-0.1734392187957013,0.0940868476716007
17888,2024 8 08,15:42:38.465,-0.663967,-0.236926,0.615627,-0.35216,-0.972117,-0.10437,-0.122142,0.511994,-0.263396,0.023561,0,0,-0.663796017545536,-0.2370558671931811,0.6158720521696867,-0.3486172365301874,-0.9719570833966024,-0.119859873955941,-0.0954296316358708,0.3268990349472688,-0.2671769194498964,0.0972882045546895,-0.659235,-0.347652,0.59154,-0.307616,-1.04293,-0.109351,0.058423,-0.067769,0.015609,0.349499,0,0,-0.6593502617720561,-0.3394211344277116,0.5928471112097871,-0.300267102227253,-1.043387608639992,-0.1087725218597902,0.0392852127682044,-0.1695621041265971,-0.1639868078559162,0.1068574552880207
17889,2024 8 08,15:42:38.473,-0.663981,-0.236912,0.615618,-0.352159,-0.970222,-0.110035,-0.129504,-0.356813,-0.133175,-0.109817,0,0,-0.6638052666682591,-0.237048673833522,0.6158593495612023,-0.348794324703678,-0.9718703292267724,-0.1193686302581439,-0.0971333500540773,0.2927134331999054,-0.2604768234774016,0.086932944326955,-0.659219,-0.347645,0.591551,-0.307637,-1.046562,-0.108528,0.048267,-0.107583,-0.130092,0.317001,0,0,-0.6593436986834533,-0.339832327706326,0.5927823056492977,-0.3006355971158904,-1.0435463282079924,-0.1087602957668006,0.0397343021297942,-0.1664631489202673,-0.1622920674631204,0.1173646325236197
17890,2024 8 08,15:42:38.482,-0.663997,-0.236902,0.615609,-0.352153,-0.973203,-0.115758,-0.129198,-0.296702,-0.272183,0.066619,0,0,-0.6638148533348461,-0.2370413401418459,0.6158468320831421,-0.348962258468494,-0.9719369627654336,-0.1191880987452367,-0.0987365825513734,0.2632426615399101,-0.2610621323035315,0.0859172471106073,-0.65921,0.390953,0.600235,0.228726,-1.043273,-0.110206,0.048321,-0.073842,-0.035793,0.264187,0,0,-0.6593370137492806,-0.3032930613210097,0.5931549403668328,-0.2741675172600958,-1.0435326617975926,-0.1088325809784606,0.0401636370233045,-0.1618320914742539,-0.1559671140899644,0.1247057508974387
17891,2024 8 08,15:42:38.490,-0.664002,-0.236899,0.615605,-0.352151,-0.974582,-0.117835,-0.128642,-0.215288,-0.339572,0.150104,0,0,-0.6638242106681037,-0.2370342231347536,0.6158347404789849,-0.3491216955450693,-0.972069214627162,-0.1191204438079749,-0.1002318534238047,0.2393161284629145,-0.2649876256883549,0.0891265847550769,-0.659208,-0.34763,0.591564,-0.307652,-1.042378,-0.126953,-0.005376,-0.064664,-0.01014,0.24982,0,0,-0.6593305630618165,-0.3055099082549592,0.5930753933484911,-0.275841741397091,-1.043474928707713,-0.1097386019295376,0.0378866551721392,-0.1569736869005412,-0.1486757583854661,0.1309614633525667
17892,2024 8 08,15:42:38.498,-0.664017,-0.236902,0.615577,-0.352171,-0.971377,-0.11692,-0.128187,-0.04285,-0.283637,0.06127,0,0,-0.6638338501346984,-0.2370276119780159,0.6158218534550357,-0.3492741607678158,-0.9720346038958038,-0.1190104216175761,-0.1016296107526145,0.2252078220397688,-0.2659200944039371,0.0877337555173231,-0.659199,-0.347631,0.591568,-0.307662,-1.045588,-0.078561,0.034943,0.110933,-0.002954,0.116026,0,0,-0.6593239849087256,-0.3076159628422112,0.5930000236810665,-0.2774327543272364,-1.0435805822723272,-0.1081797218330607,0.0377394724135323,-0.1435783525555141,-0.1413896704661928,0.1302146901849384
17893,2024 8 08,15:42:38.507,-0.664034,-0.236916,0.61554,-0.352193,-0.971083,-0.111098,-0.119722,0.177944,-0.403935,0.166307,0,0,-0.6638438576279635,-0.2370220313791151,0.6158077607822838,-0.349420102729425,-0.9719870237010136,-0.1186148005366973,-0.1025342302149837,0.2228446309377803,-0.2728208396837402,0.0916624177414569,-0.659193,-0.347634,0.591566,-0.307677,-1.042405,0.368376,-0.067992,0.118739,-0.000883,0.120263,0,0,-0.6593174356632893,-0.3096168647001007,0.5929283224970132,-0.2789449666108746,-1.0435218031587108,-0.0843519357414076,0.0324528987928557,-0.1304624849277384,-0.1343643369428832,0.1297171056756915
17894,2024 8 08,15:42:38.515,-0.66406,-0.236934,0.615495,-0.352212,-0.969422,-0.106503,-0.118864,0.375925,-0.499001,0.29345,0,0,-0.6638546647465653,-0.2370176298101593,0.6157921227431695,-0.3495596975929537,-0.9718587725159628,-0.1180092105098625,-0.1033507187042345,0.2304986493908913,-0.2841298476995532,0.1017517968543841,-0.659172,-0.347641,0.591584,-0.307679,-1.04248,-0.109443,0.047533,-0.048205,-0.338777,0.121516,0,0,-0.6593101638801248,-0.3115180714650956,0.5928611063721626,-0.2803816682803308,-1.0434697130007753,-0.0856064889543373,0.0332069038532129,-0.1263496106813515,-0.144584970095739,0.1293070503919069
17895,2024 8 08,15:42:38.523,-0.664094,-0.236948,0.615446,-0.352223,-0.970963,-0.107977,-0.118767,0.41678,-0.605902,0.307151,0,0,-0.663866631509237,-0.2370141483196513,0.615774816606011,-0.3496928627133061,-0.9718139838901646,-0.1175075999843693,-0.1041215327690228,0.2398127169213467,-0.3002184553145756,0.1120217570116648,-0.659154,-0.347639,0.591607,-0.307677,-1.041497,0.196904,0.118057,-0.098861,-0.315734,0.163753,0,0,-0.6593023556861185,-0.3133241178918408,0.5927984010535545,-0.2817464348663143,-1.0433710773507363,-0.0714809645066204,0.0374494086605522,-0.1249751801472839,-0.1531424215909521,0.1310293478723115
17896,2024 8 08,15:42:38.532,-0.664131,-0.236965,0.615392,-0.352236,-0.972374,-0.186896,0.043291,0.209012,-0.650331,0.305811,0,0,-0.663879849933775,-0.2370116909036688,0.6157556757757103,-0.3498200195776407,-0.9718419846956564,-0.1209770199851509,-0.0967509061305716,0.2382726810752793,-0.3177240825488467,0.1217112191610816,-0.659137,-0.330902,0.620945,-0.265461,-1.046493,-0.116002,0.048922,-0.197429,-0.349981,0.218294,0,0,-0.6592940879018125,-0.3142030119972487,0.5942057310008767,-0.2809321631229985,-1.0435271734831997,-0.0737070162812894,0.0380230382275246,-0.1285978711399197,-0.1629843505114044,0.1353925804786959
17897,2024 8 08,15:42:38.540,-0.664147,-0.236973,0.615369,-0.352241,-0.972911,0.430888,0.244494,0.109673,-0.664466,0.305385,0,0,-0.6638932074370862,-0.2370097563584853,0.6157363419869248,-0.3499410685987587,-0.9718954354608736,-0.0933837689858933,-0.079688660824043,0.2318426970215154,-0.3350611784214044,0.1308949082030275,-0.659132,-0.347628,0.59164,-0.307672,-1.048082,-0.133501,0.030385,-0.228787,-0.360876,0.235645,0,0,-0.6592859835067219,-0.3158742613973863,0.5940774444508329,-0.2822691549668486,-1.0437549148090397,-0.0766967154672249,0.0376411363161484,-0.1336073275829237,-0.1728789329858342,0.1404052014547611
17898,2024 8 08,15:42:38.548,-0.664176,-0.236983,0.615325,-0.352255,-0.972525,-0.153661,-0.017509,0.182553,-0.73919,0.305246,0,0,-0.6639073470652319,-0.237008418540561,0.6157157748875786,-0.3500567651688207,-0.9719269136878298,-0.0963976305365986,-0.0765796777828409,0.2293782121704396,-0.3552676195003341,0.1396124627928761,-0.65914,-0.347599,0.591638,-0.30769,-1.040814,-0.118039,0.047652,0.207017,0.243766,0.362926,0,0,-0.6592786843313857,-0.3174604983275169,0.5939554722282913,-0.2835401972185062,-1.0436078690685875,-0.0787638296938637,0.0381416795003409,-0.1165761112037775,-0.1520466863365425,0.1515312413820231
17899,2024 8 08,15:42:38.557,-0.664196,-0.236991,0.615295,-0.352265,-0.972202,-0.102116,-0.118668,0.243338,-0.79275,0.305177,0,0,-0.6639217797119702,-0.237007547613533,0.6156947361431996,-0.3501671769103797,-0.9719406680034384,-0.0966835490097687,-0.0786840938936988,0.2300762015619176,-0.3771417385253174,0.1478906896532323,-0.659142,-0.34758,0.591645,-0.307695,-1.038297,-0.116211,0.047734,0.277763,0.31727,0.401973,0,0,-0.6592718501148164,-0.318966473411141,0.5938399486168767,-0.2847479373575808,-1.0433423256151584,-0.0806361882091705,0.0386212955253239,-0.0968591556435886,-0.1285808520197153,0.1640533293129219
17900,2024 8 08,15:42:38.565,-0.664244,-0.236991,0.61524,-0.352272,-0.972198,-0.173345,-0.035645,0.362757,-0.734118,0.305176,0,0,-0.6639378907263717,-0.2370067202328563,0.6156719993360396,-0.3502724180648607,-0.9719535346032664,-0.1005166215592802,-0.0765321391990139,0.2367102414838217,-0.3949905515990515,0.1557549551705707,-0.659127,-0.347548,0.591694,-0.307668,-1.044214,-0.109797,0.043452,-0.660749,-0.933676,0.256598,0,0,-0.6592646076090755,-0.320395549740584,0.5937326511860329,-0.2858939404897018,-1.0433859093344005,-0.0820942287987119,0.0388628307490577,-0.1250536478614092,-0.1688356094187296,0.1686805628472758
17901,2024 8 08,15:42:38.573,-0.664286,-0.236989,0.615192,-0.352277,-0.973132,-0.108659,-0.119407,0.015502,-0.674067,0.188322,0,0,-0.6639552961900531,-0.2370058342212135,0.6156479993692375,-0.3503726471616176,-0.972012457873103,-0.1009237404813162,-0.0786758822390632,0.2256498294096307,-0.408944374019099,0.1573833074120422,-0.659115,-0.347521,0.591723,-0.307669,-1.038922,-0.103921,0.04091,-0.724585,0.099007,0.311,0,0,-0.6592571272286216,-0.3217518222535547,0.5936321686267312,-0.2869826934652167,-1.0431627138676802,-0.0831855673587763,0.0389651892116048,-0.1550302154683387,-0.1554434789477931,0.175796534704912
17902,2024 8 08,15:42:38.582,-0.664327,-0.23699,0.615139,-0.352292,-0.972251,-0.107035,-0.117778,0.116004,-0.786661,0.240963,0,0,-0.6639738813805505,-0.2370050425101528,0.6156225494007757,-0.3504686148035367,-0.9720243849794478,-0.1012293034572504,-0.08063098812711,0.2201675379391491,-0.4278302053181441,0.1615622920414401,-0.659094,-0.347503,0.591756,-0.30767,-1.04476,-0.112362,0.057629,-0.305702,-0.415935,0.363068,0,0,-0.6592489708671905,-0.323039381140877,0.5935383601953945,-0.2880170587919559,-1.0432425781742962,-0.0846443889908375,0.0398983797510246,-0.1625638046949218,-0.1684680550004034,0.1851601079696664
17903,2024 8 08,15:42:38.590,-0.66437,-0.236993,0.615085,-0.352303,-0.97447,0.279455,-0.084987,0.121641,-0.736257,0.187196,0,0,-0.663993687311523,-0.2370044403846452,0.6155956719307368,-0.3505603340633599,-0.9721466657304754,-0.0821950882843879,-0.0808487887207545,0.2152412110421916,-0.4432515450522368,0.1628439774393681,-0.659088,-0.347477,0.591779,-0.307671,-1.043125,-0.111844,0.04791,-0.135054,-0.199567,0.365989,0,0,-0.659240922323831,-0.3242612620838331,0.5934503921856247,-0.2889997558523581,-1.0432366992655813,-0.0860043695412956,0.0402989607634733,-0.1611883144601757,-0.1700230022503832,0.1942015525711831
17904,2024 8 08,15:42:38.598,-0.664373,-0.236994,0.615081,-0.352304,-0.974625,-0.106644,-0.117338,0.122034,-0.732744,0.183449,0,0,-0.6640126529459468,-0.2370039183654129,0.6155699383341999,-0.3506475173601919,-0.9722705824439516,-0.0834175338701685,-0.0826732492847168,0.210580850490082,-0.457726167799625,0.1638742285673997,-0.659085,-0.347473,0.591784,-0.30767,-1.043253,-0.115603,0.077268,-0.13828,-0.214725,0.351075,0,0,-0.6592331262076394,-0.3254218489796415,0.5933670725763434,-0.2899332680597402,-1.0432375143023025,-0.0874843010642309,0.0421474127252997,-0.1600428987371669,-0.1722581021378641,0.2020452249426239
17905,2024 8 08,15:42:38.607,-0.664415,-0.236989,0.615027,-0.352323,-0.97067,0.156272,-0.129583,0.122067,-0.842672,0.183139,0,0,-0.6640327702986495,-0.2370031724471422,0.6155427914174899,-0.3507312914921823,-0.972190553321754,-0.07143305717666,-0.085018736820481,0.2061551579655779,-0.4769734594096437,0.1648374671390297,-0.659073,-0.347455,0.591812,-0.307662,-1.04455,-0.109377,0.051993,-0.271121,-0.354453,0.269425,0,0,-0.6592251198972574,-0.3265235065306593,0.5932893189475262,-0.2908197046567531,-1.0433031385871872,-0.0885789360110193,0.0426396920890347,-0.1655968038003085,-0.1813678470309709,0.2054142136954927
17906,2024 8 08,15:42:38.615,-0.664457,-0.236989,0.614965,-0.352352,-0.975073,-0.10608,-0.124933,0.393761,-0.853195,0.128771,0,0,-0.664053981783717,-0.2370024638247851,0.6155139018466155,-0.3508123269175732,-0.9723346756556662,-0.073165404317827,-0.0870144499794569,0.215535450067299,-0.4957845364391615,0.1630341437820782,-0.659069,-0.347423,0.591835,-0.307663,-1.043758,-0.097624,0.010979,-0.460014,-0.082975,0.340897,0,0,-0.6592173139023946,-0.3275684812041264,0.5932166030001499,-0.2916618694239155,-1.0433258816578277,-0.0890311892104683,0.0410566574845829,-0.1803176636102931,-0.1764482046794223,0.2121883530107181
17907,2024 8 08,15:42:38.623,-0.664497,-0.236965,0.614922,-0.352367,-0.969547,-0.106832,-0.126281,-0.273486,-0.693569,-0.091465,0,0,-0.6640761326945311,-0.2370005906335459,0.6154843067542847,-0.3508900605716945,-0.9721952918728828,-0.0748487341019357,-0.0889777774804841,0.1910843775639341,-0.5056737596172034,0.1503091865929743,-0.659048,-0.347419,0.591856,-0.307671,-1.047032,-0.111215,0.045289,-0.109715,-0.317162,0.277683,0,0,-0.6592088482072748,-0.32856100714392,0.5931485728501423,-0.2924623259527197,-1.0435111875749363,-0.0901403797499449,0.0412682746103538,-0.1767875304297784,-0.1834838944454512,0.2154630853601822
17908,2024 8 08,15:42:38.632,-0.664521,-0.236956,0.614889,-0.352387,-0.971843,-0.182077,-0.001056,0.016221,-0.462924,-0.012253,0,0,-0.6640983760598046,-0.2369983611018686,0.6154545414165704,-0.3509649075431097,-0.9721776772792388,-0.0802101473968389,-0.0845816886064599,0.1823412086857374,-0.5035362716363432,0.1421810772633255,-0.659035,-0.347402,0.591876,-0.30768,-1.046033,-0.111098,0.044688,-0.096145,-0.153863,0.385769,0,0,-0.6592001557969109,-0.329503056786724,0.5930849442076352,-0.2932232096550837,-1.0436372781961896,-0.0911882607624477,0.0414392608798361,-0.1727554039082895,-0.1820028497231786,0.2239783810921731
17909,2024 8 08,15:42:38.640,-0.664539,-0.236945,0.61486,-0.352409,-0.97298,-0.101928,-0.122279,0.210956,-0.432441,-0.053933,0,0,-0.6641204072568143,-0.2369956930467751,0.6154248143457418,-0.3510371121659543,-0.9722177934152768,-0.0812960400269969,-0.0864665541761369,0.1837719482514505,-0.499981508054526,0.1323753734001592,-0.659049,-0.347363,0.591883,-0.307681,-1.049598,-0.101645,0.054405,-0.331151,0.379215,0.250659,0,0,-0.6591925980070654,-0.3303960539473878,0.5930248469972534,-0.2939460991723295,-1.04393531428638,-0.0917110977243253,0.0420875478358443,-0.180675183712875,-0.1539419572370197,0.2253124120375644
17910,2024 8 08,15:42:38.648,-0.664541,-0.236944,0.614856,-0.352413,-0.973144,-0.101211,-0.122106,0.238933,-0.428061,-0.059921,0,0,-0.6641414368939736,-0.2369931083944363,0.6153963736284547,-0.3511059065576565,-0.9722641037445128,-0.0822917880256471,-0.08824852646733,0.186530000838878,-0.4963854826517996,0.1227605547301513,-0.659057,-0.34734,0.591886,-0.307685,-1.041566,-0.099931,0.044764,-0.720912,-0.300696,0.142248,0,0,-0.6591858181067122,-0.3312432512500184,0.5929679046473907,-0.294633044213713,-1.043816848572061,-0.092122092838109,0.0422213704440521,-0.2076870245272313,-0.1612796593751687,0.2211591914356862
17911,2024 8 08,15:42:38.657,-0.664553,-0.236939,0.614834,-0.352432,-0.972357,-0.106788,-0.124517,0.192482,-0.325814,-0.060848,0,0,-0.6641620150492749,-0.2369904029747145,0.6153682549470318,-0.3511722112297737,-0.9722687485572872,-0.0835165986243647,-0.0900619501439635,0.1868276007969341,-0.4878569085192096,0.1135801269936437,-0.659056,-0.347336,0.591889,-0.307685,-1.040487,-0.126749,0.012839,-0.712606,-0.351059,0.132326,0,0,-0.6591793272013765,-0.3320478886875175,0.5929139594150212,-0.2952856420030273,-1.0436503561434578,-0.0938534381962035,0.0407522519218495,-0.2329329733008697,-0.1707686264064102,0.2167175318639018
17912,2024 8 08,15:42:38.665,-0.664563,-0.236944,0.614808,-0.352455,-0.974231,-0.106509,-0.120505,0.385296,-0.308864,-0.010873,0,0,-0.6641820642968111,-0.2369880828259788,0.6153402421996802,-0.351236350668285,-0.9723668611294228,-0.0846662186931465,-0.0915841026367653,0.1967510207570874,-0.4789072630932491,0.1073574706439615,-0.659038,-0.347334,0.59191,-0.307686,-1.041674,-0.134082,0.006479,-0.243832,-0.060049,0.167254,0,0,-0.6591722608413076,-0.3328121942531416,0.5928637614442701,-0.295905659902876,-1.0435515383362848,-0.0958648662863934,0.039038589325757,-0.2334779246358262,-0.1652326450860897,0.2142443552707068
17913,2024 8 08,15:42:38.673,-0.66457,-0.236937,0.614793,-0.352472,-0.973374,-0.099333,-0.128508,-0.075586,-0.157404,-0.200016,0,0,-0.6642014610819705,-0.2369855286846798,0.6153128800896962,-0.3512981331348707,-0.9724172180729516,-0.0853995577584891,-0.0934302975049271,0.183134169719233,-0.4628320999385866,0.0919887971117634,-0.659027,-0.34733,0.591926,-0.307685,-1.043402,-0.132484,0.008069,0.032781,-0.268147,0.123926,0,0,-0.6591649977992423,-0.3335380845404845,0.5928168733720566,-0.2964946269077321,-1.0435440614194706,-0.0976958229720737,0.0374901098594691,-0.2201649784040349,-0.1703783628317852,0.2097284375071714
17914,2024 8 08,15:42:38.682,-0.664577,-0.236916,0.614805,-0.352452,-0.980251,-0.104248,-0.123357,-0.015069,0.066353,-0.039876,0,0,-0.664220238027872,-0.2369820522504458,0.6152874860852114,-0.3513558264781272,-0.972808907169304,-0.0863419798705647,-0.0949266326296807,0.1732240112332713,-0.4363728449416573,0.0853955572561752,-0.659025,-0.347321,0.591934,-0.307682,-1.041031,-0.111047,0.047152,-0.062154,-0.086496,0.080181,0,0,-0.6591579979092802,-0.3342272303134603,0.5927727297034537,-0.2970539955623455,-1.043418408348497,-0.09836338182347,0.0379732043664957,-0.2122644294838331,-0.1661842446901959,0.2032510656318128
17915,2024 8 08,15:42:38.690,-0.664599,-0.236914,0.614765,-0.352483,-0.96925,-0.176878,-0.063845,0.527699,-0.516965,-0.056606,0,0,-0.6642391761264783,-0.2369786496379235,0.6152613617809508,-0.3514121851542208,-0.9726309618108387,-0.0908687808770364,-0.0933725509981966,0.1909477606716078,-0.4404024526945744,0.0782954793933665,-0.659016,-0.347315,0.591949,-0.307681,-1.044696,-0.111397,0.046903,-0.199522,-0.246352,0.113302,0,0,-0.6591508980138161,-0.3348816187977873,0.592731543218281,-0.2975853457842282,-1.043482287931072,-0.0990150627322965,0.0384196941481709,-0.2116273080096415,-0.1701926324556861,0.1987536123502221
17916,2024 8 08,15:42:38.698,-0.664603,-0.236914,0.614756,-0.35249,-0.966976,-0.101689,-0.120269,0.639916,-0.637564,-0.060065,0,0,-0.6642573673201543,-0.2369754171560273,0.6152360936919032,-0.3514660758965097,-0.9723482137202968,-0.0914097918331846,-0.0947173734482868,0.2133961726380274,-0.4502605300598457,0.0713774554236982,-0.659011,-0.347308,0.591958,-0.307681,-1.044135,-0.10982,0.044213,-0.186701,-0.196958,0.12015,0,0,-0.6591439031131253,-0.3355029378578979,0.5926928660573669,-0.2980901284950168,-1.0435149235345185,-0.0995553095956816,0.0387093594407623,-0.2103809926091594,-0.1715309008329018,0.194823431732711
17917,2024 8 08,15:42:38.707,-0.664602,-0.236919,0.614746,-0.352507,-0.972135,-0.166707,0.032372,0.334574,-0.239859,-0.107902,0,0,-0.6642745989541465,-0.2369725962982259,0.615211589007308,-0.3515181221016842,-0.972337553034282,-0.0951746522415254,-0.0883629047758725,0.219455064006126,-0.4397404535568534,0.0624134826525132,-0.65901,-0.347305,0.591962,-0.307678,-1.044013,-0.109123,0.044802,-0.203028,-0.186271,0.108897,0,0,-0.659137207957469,-0.336093040965003,0.5926563227544985,-0.298569522070266,-1.0435398273577925,-0.1000336941158976,0.0390139914687242,-0.2100133429787014,-0.1722679057912567,0.1905271101460754
17918,2024 8 08,15:42:38.715,-0.664606,-0.23692,0.614729,-0.352528,-0.972927,-0.177889,-0.039,0.26564,-0.243123,-0.072177,0,0,-0.6642911690064393,-0.2369699664833146,0.6151874595569425,-0.3515686159965999,-0.9723670253825678,-0.0993103696294491,-0.0858947595370788,0.2217643108058197,-0.4299095808790106,0.0556839585198876,-0.659008,-0.347296,0.591977,-0.307663,-1.043734,-0.107266,0.051382,-0.321125,-0.196439,0.03218,0,0,-0.6591307475595956,-0.3366531889167529,0.5926223566167735,-0.2990241959667526,-1.0435495359899027,-0.1003953094101027,0.039632391895288,-0.2155689258297664,-0.1734764605016939,0.1826097546387717
17919,2024 8 08,15:42:38.723,-0.664614,-0.236913,0.614715,-0.352542,-0.973481,-0.102318,-0.119872,0.29542,-0.243889,-0.201706,0,0,-0.6643073105561172,-0.2369671181591489,0.6151638365790953,-0.3516172851967699,-0.9724227241134394,-0.0994607511479767,-0.0875936215602249,0.2254470952655287,-0.4206085518350601,0.0428144605938932,-0.659004,-0.34729,0.591993,-0.307649,-1.042078,-0.1176,0.05335,-0.27803,-0.247262,0.053915,0,0,-0.6591244101816158,-0.3371850294709152,0.5925908887859348,-0.299455436168415,-1.0434759591904077,-0.1012555439395975,0.0403182723005236,-0.218691979538278,-0.1771657374766092,0.1761750169068331
17920,2024 8 08,15:42:38.732,-0.664622,-0.236914,0.61469,-0.352571,-0.972162,-0.102485,-0.121511,0.211811,-0.334948,-0.142424,0,0,-0.6643230450283113,-0.2369644622511914,0.6151401447501406,-0.3516649709369314,-0.9724096879077676,-0.0996119635905778,-0.0892894904822136,0.2247652905022522,-0.4163255242433071,0.0335525375641985,-0.659003,-0.34728,0.592004,-0.307642,-1.04192,-0.108572,0.043907,-0.101777,-0.093913,0.053072,0,0,-0.659118339672535,-0.3376897779973694,0.592561544346638,-0.2998647643599942,-1.0433981612308871,-0.1016213667426177,0.0404977086854974,-0.2128462305613641,-0.1730031006027787,0.1700198660614914
17921,2024 8 08,15:42:38.740,-0.664637,-0.236897,0.614666,-0.352595,-0.972548,-0.102527,-0.120848,0.370329,-0.402861,-0.217268,0,0,-0.6643387427768956,-0.2369610891386318,0.6151164375126335,-0.3517114723900849,-0.972416603512379,-0.0997577154110489,-0.0908674159581029,0.2320434759771396,-0.4156522980311418,0.0210115106859886,-0.658993,0.194898,0.687922,0.233318,-1.043337,-0.128947,0.005221,-0.245367,-0.225072,0.014021,0,0,-0.6591120726889083,-0.3110603890975009,0.5973295671293061,-0.2732056261419945,-1.0433951031693427,-0.1029876484054868,0.0387338732512225,-0.2144722690332959,-0.1756065455726397,0.1622199227584168
17922,2024 8 08,15:42:38.748,-0.664641,-0.236893,0.61466,-0.352601,-0.972648,-0.102538,-0.120674,0.41173,-0.420599,-0.236815,0,0,-0.6643538556380508,-0.2369576846817002,0.6150936156370017,-0.3517559487705806,-0.97242817333676,-0.0998967296404965,-0.0923577451601978,0.2410278021782826,-0.4158996331295847,0.0081201851516892,-0.658988,-0.347276,0.592035,-0.307618,-1.043092,-0.080411,-0.052396,-0.244475,-0.105753,0.003822,0,0,-0.6591058690544628,-0.3128711696426258,0.5970648387728408,-0.2749262448348947,-1.0433799480108754,-0.1018588159852124,0.0341773795886614,-0.2159724055816311,-0.1721138682940078,0.154300026620496
17923,2024 8 08,15:42:38.757,-0.664653,-0.23687,0.614646,-0.352617,-0.973378,-0.106755,-0.129407,-0.103846,-0.425379,-0.285978,0,0,-0.6643688128561482,-0.2369533004476152,0.6150712348551517,-0.3517990013320515,-0.972475664669922,-0.1002396431584717,-0.0942102079021879,0.2237841120693685,-0.4163736014731055,-0.0065847241058952,-0.658986,-0.243882,0.627174,-0.336024,-1.043121,-0.107065,0.04495,-0.232364,-0.073593,0.007009,0,0,-0.6590998756017395,-0.3094217111604945,0.5985702968341987,-0.27798113259315,-1.0433670006103315,-0.1021191251859518,0.0347160106092283,-0.2167919853025496,-0.1671878248793074,0.1469354752894712
17924,2024 8 08,15:42:38.765,-0.664668,-0.236844,0.614633,-0.35263,-0.972886,-0.112787,-0.130095,-0.203613,-0.296495,-0.169419,0,0,-0.6643837722133408,-0.2369478354252344,0.6150493231123941,-0.351840551265449,-0.9724961814364258,-0.1008670110005481,-0.0960044475070785,0.2024142564659,-0.4103796713994502,-0.0147264379006004,-0.658983,-0.347272,0.592045,-0.307615,-1.043542,-0.111445,0.009413,-0.1598,-0.064663,0.03956,0,0,-0.6590940318216525,-0.3113142256024698,0.5982440319924888,-0.2794628259634925,-1.043375750579815,-0.1025854189266542,0.0334508600787669,-0.2139423860374221,-0.162061583635342,0.1415667015249976
17925,2024 8 08,15:42:38.773,-0.664684,-0.236832,0.614602,-0.352662,-0.971028,-0.107643,-0.126515,-0.017495,-0.431372,-0.13612,0,0,-0.6643987836026737,-0.2369420436539727,0.6150269569567743,-0.3518816237021765,-0.9724227723646044,-0.1012058104505207,-0.0975299751317246,0.191418793642605,-0.4114292878294777,-0.0207961160055704,-0.658983,-0.347272,0.592045,-0.307615,-1.042985,-0.133677,0.009153,-0.211013,-0.0447,0.000131,0,0,-0.6590884802305699,-0.3131121143223462,0.5979340803928643,-0.2808704346653178,-1.043356213050824,-0.1041399979803215,0.0322359670748286,-0.2137959167355509,-0.1561935044535748,0.1344949164487477
17926,2024 8 08,15:42:38.782,-0.664695,-0.23682,0.614579,-0.35269,-0.972521,-0.10919,-0.121728,0.037129,-0.386047,-0.168802,0,0,-0.66441359442254,-0.236935941471274,0.6150045591089356,-0.3519220425170677,-0.9724276837463742,-0.1016050199279946,-0.0987398763751384,0.1837043039604747,-0.4101601734380038,-0.0281964102052919,-0.65899,-0.347256,0.592051,-0.307605,-1.044399,-0.122931,0.038926,-0.297078,0.163148,-0.067648,0,0,-0.6590835562190414,-0.3148193086062289,0.597639926373221,-0.2822071629320519,-1.043408352398283,-0.1050795480813054,0.0325704687210871,-0.2179600208987734,-0.1402264292308961,0.1243877706263103
17927,2024 8 08,15:42:38.790,-0.664709,-0.236806,0.614549,-0.352724,-0.970619,-0.203198,-0.023679,0.179564,-0.498385,-0.178644,0,0,-0.6644283647014129,-0.2369294443977103,0.6149817811534888,-0.3519621403912143,-0.9723372495590554,-0.1066846689315949,-0.0949868325563814,0.183497288762451,-0.4145714147661036,-0.0357187896950273,-0.659017,-0.347243,0.592015,-0.30763,-1.036228,-0.121009,0.042257,0.530395,0.636461,0.015214,0,0,-0.6590802284080892,-0.3164404931759175,0.5973586800545599,-0.2834783047854493,-1.0430493347783685,-0.1058760206772401,0.0330547952850328,-0.1805422698538347,-0.1013920577693513,0.1189290820949948
17928,2024 8 08,15:42:38.798,-0.664713,-0.236802,0.61454,-0.352735,-0.970031,-0.102325,-0.118962,0.223521,-0.533053,-0.181681,0,0,-0.6644425964663422,-0.2369230721778248,0.6149596920958142,-0.3520007833716536,-0.9722219370811026,-0.1064666854850151,-0.0961855909285624,0.1854984743243284,-0.4204954940277984,-0.0430169002102759,-0.659017,-0.347243,0.592015,-0.30763,-1.045491,-0.11276,0.057367,0.210907,-0.295323,0.004858,0,0,-0.6590770669876848,-0.3179806185171216,0.5970914960518319,-0.2846858895461768,-1.04317141803945,-0.1062202196433781,0.0342704055207811,-0.1609698063611429,-0.1110886048808837,0.1132255279902451
17929,2024 8 08,15:42:38.807,-0.664726,-0.236784,0.614524,-0.35275,-0.970504,-0.105431,-0.121716,0.196302,-0.461794,-0.223746,0,0,-0.664456766643025,-0.2369161185689335,0.6149379074910235,-0.3520382442030708,-0.9721360402270476,-0.1064149012107644,-0.0974621113821342,0.186038650608112,-0.4225604193264085,-0.0520533551997621,-0.659018,-0.347236,0.592029,-0.307611,-1.047351,-0.087885,0.025776,0.043274,-0.517447,0.001586,0,0,-0.6590741136383005,-0.3194433875912655,0.5968383712492403,-0.285832145068868,-1.0433803971374775,-0.1053034586612092,0.0338456852447421,-0.1507576160430858,-0.1314065246368395,0.1076435515907328
17930,2024 8 08,15:42:38.815,-0.664739,-0.236781,0.614493,-0.352782,-0.973585,-0.106109,-0.122931,0.146832,-0.43877,-0.196662,0,0,-0.6644708783108738,-0.2369093626404868,0.6149156621164723,-0.3520754319929173,-0.9722084882156952,-0.1063996061502261,-0.0987355558130275,0.1840783180777064,-0.423370898360088,-0.059283787439774,-0.659028,-0.347226,0.592024,-0.30761,-1.041462,-0.119834,0.054842,-0.405496,-0.126431,0.000529,0,0,-0.6590718079563854,-0.3208325182117022,0.5965976526867783,-0.2869210378154246,-1.0432844772806036,-0.1060299857281488,0.034895500982505,-0.1634945352409315,-0.1311577484049975,0.1022878240111962
17931,2024 8 08,15:42:38.823,-0.664757,-0.236764,0.614454,-0.352829,-0.970927,-0.103096,-0.125628,-0.034752,-0.374999,-0.287904,0,0,-0.6644851843953301,-0.2369020945084625,0.6148925790106486,-0.3521131103932714,-0.9721444138049103,-0.1062344258427148,-0.1000801780223761,0.173136802173821,-0.4209523034420836,-0.0707147980677853,-0.65903,-0.34722,0.592025,-0.307611,-1.041051,-0.098979,0.060425,-0.366538,0.12,4e-06,0,0,-0.6590697175585661,-0.3221518923011171,0.5963690200524394,-0.2879555359246533,-1.0431728034165737,-0.1056774364417413,0.0361719759333797,-0.1736467084788849,-0.1185998609847476,0.0971736328106363
17932,2024 8 08,15:42:38.832,-0.664758,-0.236737,0.614446,-0.352858,-0.97191,-0.098432,-0.117726,0.19728,-0.160261,-0.356308,0,0,-0.6644988251755636,-0.2368938397830393,0.6148702500601162,-0.3521503548736078,-0.9721326931146648,-0.1058443045505791,-0.1009624691212573,0.17434396206513,-0.4079177382699794,-0.0849944581643961,-0.659022,-0.347225,0.592033,-0.307607,-1.047246,-0.111715,0.048613,-0.068231,-0.235564,0.059598,0,0,-0.6590673316806378,-0.3234055476860612,0.5961522190498174,-0.2889381091284206,-1.0433764632457447,-0.1059793146196542,0.0367940271367107,-0.1683759230549407,-0.1244480679355103,0.0952948511701045
17933,2024 8 08,15:42:38.840,-0.664742,-0.236683,0.61448,-0.352865,-0.976654,-0.105811,-0.118709,-0.366776,0.333307,-0.619632,0,0,-0.6645109839167854,-0.2368832977938874,0.6148507375571103,-0.3521860871299274,-0.9723587584589316,-0.1058426393230501,-0.1018497956651944,0.1472879639618735,-0.3708565013564804,-0.1117263352561763,-0.65902,-0.347219,0.592042,-0.307601,-1.04692,-0.109937,0.043186,-0.061311,-0.126419,0.119677,0,0,-0.6590649650966058,-0.3245962203017581,0.5959467080973265,-0.2898712536719996,-1.0435536400834575,-0.1061771988886715,0.0371136257798752,-0.1630226769021936,-0.1245466145387347,0.0965139586115993
17934,2024 8 08,15:42:38.848,-0.664736,-0.236655,0.61447,-0.352911,-0.96792,-0.10374,-0.121122,0.168168,-0.477772,-0.568654,0,0,-0.6645222347209461,-0.236871882904193,0.6148317006792547,-0.352222332773431,-0.9721368205359848,-0.1057375073568976,-0.1028134058819347,0.1483319657637798,-0.3762022762886564,-0.1345727184933674,-0.659007,-0.347226,0.592055,-0.307594,-1.046445,-0.108945,0.047607,-0.118872,-0.180122,0.006299,0,0,-0.6590620668417755,-0.3257277092866702,0.5957521226924601,-0.2907573909883996,-1.0436982080792845,-0.1063155889442379,0.0376382944908814,-0.160815143057084,-0.127325383811798,0.0920032106810193
17935,2024 8 08,15:42:38.857,-0.664736,-0.236655,0.61447,-0.352911,-0.965988,-0.179036,-0.06703,0.296059,-0.658504,-0.550603,0,0,-0.6645329229848987,-0.2368610387589833,0.614813615645292,-0.3522567661347595,-0.9718293795091856,-0.1094024319890527,-0.101024235587838,0.1557183174755908,-0.3903173624742235,-0.1553742325686991,-0.659006,-0.347226,0.592056,-0.307594,-1.04642,-0.108894,0.047837,-0.121858,-0.182907,0.000419,0,0,-0.6590592634996867,-0.3268026238223367,0.5955673165578371,-0.2915992214389796,-1.0438342976753203,-0.106444509497026,0.0381482297663374,-0.1588672859042298,-0.1301044646212081,0.0874240001469683
17936,2024 8 08,15:42:38.865,-0.664721,-0.236631,0.614478,-0.352943,-0.970523,-0.148316,0.038483,0.158773,-0.13622,-0.452304,0,0,-0.6645423268356537,-0.2368495368210341,0.6147968348630274,-0.3522910778280215,-0.9717640605337264,-0.1113481103896001,-0.0940488738084461,0.1558710516018113,-0.3776124943505123,-0.1702207209402641,-0.659004,-0.34729,0.591993,-0.307649,-1.046419,-0.110238,0.043809,-0.009753,-0.01464,3.4e-05,0,0,-0.6590565003247023,-0.3278269926312199,0.5953886007299453,-0.2924017103670306,-1.0439635327915542,-0.1066341840221747,0.0384312682780205,-0.1514115716090183,-0.1243312413901477,0.0830545001396199
17937,2024 8 08,15:42:38.873,-0.664714,-0.236604,0.614478,-0.352974,-0.970067,-0.146211,-0.019288,0.173355,-0.108421,-0.525311,0,0,-0.6645509104938709,-0.2368372599799824,0.614780893119876,-0.3523252239366204,-0.97167920750704,-0.1130912548701201,-0.0903108301180238,0.1567452490217207,-0.3641529196329867,-0.1879752348932509,-0.659009,-0.34724,0.592057,-0.307572,-1.043319,-0.12917,0.013772,-0.056258,-0.112063,-0.221395,0,0,-0.6590541253084671,-0.3287976429996588,0.595222020693448,-0.2931602248486791,-1.0439313061519764,-0.107760974821066,0.0371983048641195,-0.1466538930285673,-0.1237178293206403,0.0678320251326389
17938,2024 8 08,15:42:38.882,-0.664697,-0.236561,0.614503,-0.35299,-0.970167,-0.107859,-0.112355,-0.242661,0.209724,-0.64116,0,0,-0.6645582149691774,-0.2368234469809833,0.6147669984638822,-0.3523584627397894,-0.971603597131688,-0.112829642126614,-0.0914130386121226,0.1367749365706347,-0.3354590736513373,-0.2106344731485883,-0.659005,0.341477,0.626056,0.23906,-1.043034,-0.120059,0.053353,-0.060529,-0.175582,-0.241732,0,0,-0.6590516690430437,-0.2952839108496759,0.5967637196587755,-0.2665492136062451,-1.0438864408443775,-0.1083758760800127,0.0380060396209135,-0.1423476483771389,-0.1263110378546083,0.052353823876007
17939,2024 8 08,15:42:38.890,-0.664677,-0.236553,0.614508,-0.353026,-0.971725,-0.10814,-0.111767,0.206867,-0.124963,-0.435118,0,0,-0.6645641542207186,-0.2368099246319341,0.614754048540688,-0.3523918396027999,-0.9716096672751032,-0.1125951600202833,-0.0924307366815165,0.1402795397421029,-0.3249342699687704,-0.2218586494911589,-0.659005,0.341477,0.626056,0.23906,-1.044296,-0.108616,0.042073,-0.00716,-0.02077,-0.028596,0,0,-0.6590493355908914,-0.2634458653071921,0.5982283336758367,-0.2412687529259329,-1.0439069188021586,-0.108387882276012,0.0382093876398678,-0.135588265958282,-0.1210339859618778,0.0483063326822066
17940,2024 8 08,15:42:38.898,-0.664656,-0.236558,0.614508,-0.353062,-0.971034,-0.105005,-0.11879,0.253636,0.046808,-0.329291,0,0,-0.6645687465096826,-0.2367973284003374,0.6147417461136536,-0.3524253476226598,-0.971580883911348,-0.1122156520192692,-0.0937486998474406,0.1459473627549977,-0.3063471564703319,-0.2272302670166009,-0.659007,-0.347226,0.592055,-0.307594,-1.044019,-0.106306,0.0471,-0.213251,-0.055787,-0.162965,0,0,-0.6590472188113469,-0.2676348720418325,0.5979196669920449,-0.2445850152796362,-1.0439125228620505,-0.1082837881622114,0.0386539182578744,-0.1394714026603679,-0.1177716366637839,0.0377427660480963
17941,2024 8 08,15:42:38.907,-0.66465,-0.23656,0.614509,-0.353071,-0.970776,-0.104149,-0.12077,0.24549,0.111377,-0.308602,0,0,-0.6645728091841984,-0.2367854619803205,0.614730108807971,-0.3524576302415269,-0.9715406397157806,-0.1118123194183057,-0.0950997648550686,0.1509244946172478,-0.2854609486468152,-0.2312988536657709,-0.659008,-0.347296,0.591977,-0.307663,-1.043983,-0.116292,0.051097,-0.239752,-0.060289,-0.180244,0,0,-0.6590452578707795,-0.2716179284397408,0.5976225336424426,-0.2477389145156544,-1.043916046718948,-0.1086841987541008,0.0392760723449807,-0.1444854325273495,-0.1148975048305947,0.0268434277456914
17942,2024 8 08,15:42:38.915,-0.664639,-0.236554,0.614512,-0.353089,-0.970382,-0.107603,-0.130341,0.199667,0.031068,-0.350382,0,0,-0.6645761187249885,-0.2367738888813045,0.6147192033675725,-0.3524891987294505,-0.9714827077299916,-0.1116018534473904,-0.0968618266123152,0.1533616198863855,-0.2696345012144745,-0.2372530109824823,-0.659002,-0.347284,0.592067,-0.307517,-1.044391,-0.108035,0.042463,-0.140134,-0.21592,-0.027666,0,0,-0.6590430949772405,-0.2754012320177538,0.5973447569603204,-0.2507278187898717,-1.0439397943830004,-0.1086517388163958,0.0394354187277316,-0.144267860900982,-0.119948629589065,0.0241179563584069
17943,2024 8 08,15:42:38.923,-0.664632,-0.23654,0.614513,-0.353109,-0.971678,-0.112559,-0.13393,-0.034637,-0.083074,-0.319512,0,0,-0.664578912788739,-0.2367621944372392,0.6147088931991939,-0.352520188792978,-0.971492472343492,-0.1116497107750209,-0.0987152352816994,0.1439616888920662,-0.2603064761537507,-0.2413659604333582,-0.659006,-0.347226,0.592056,-0.307594,-1.04119,-0.121952,0.051883,-0.125044,-0.086531,-0.10653,0,0,-0.6590412402283784,-0.2789924704168661,0.5970803191123044,-0.2535711278503781,-1.0438023046638505,-0.109316751875576,0.0400577977913451,-0.1433066678559329,-0.1182777481096117,0.0175855585404865
17944,2024 8 08,15:42:38.932,-0.664628,-0.236532,0.614495,-0.353155,-0.971758,-0.111177,-0.1294,0.11088,-0.202273,-0.351213,0,0,-0.664581367149302,-0.2367506847153772,0.6146981985392341,-0.352551929353329,-0.9715057487263172,-0.1116260752362698,-0.1002494735176144,0.1423076044474628,-0.2574048023460632,-0.2468583124116903,-0.659008,-0.347296,0.591977,-0.307663,-1.047514,-0.117844,0.05724,-0.223246,-0.166162,-0.169671,0,0,-0.6590395782169595,-0.2824076468960227,0.5968251531566892,-0.2562757214578592,-1.0439878894306576,-0.1097431142817972,0.0409169079017778,-0.1473036344631362,-0.1206719607041311,0.0082227306134622
17945,2024 8 08,15:42:38.940,-0.66462,-0.236515,0.614493,-0.353185,-0.972062,-0.113601,-0.12334,-0.131085,-0.021527,-0.320456,0,0,-0.664583298791837,-0.2367389004796083,0.6146879386122724,-0.3525835828856625,-0.9715335612900016,-0.1117248214744563,-0.1014039998417337,0.1286379742250897,-0.24561091222876,-0.2505381967911058,-0.659008,-0.347296,0.591977,-0.307663,-1.04384,-0.125973,0.015839,-0.091205,-0.229637,-0.23029,0,0,-0.6590379993061115,-0.2856520645512216,0.5965827454988546,-0.2588450853849662,-1.0439804949591247,-0.1105546085677073,0.0396630125066889,-0.1444987027399794,-0.1261202126689246,-0.0037029059172108
17946,2024 8 08,15:42:38.948,-0.664606,-0.23692,0.614729,-0.352528,-0.971492,-0.106718,-0.119162,0.117429,-0.209705,-0.477865,0,0,-0.6645844338522452,-0.2367479554556279,0.6146899916816588,-0.3525808037413794,-0.9715314832255012,-0.1114744804007335,-0.102291899849647,0.1280775255138352,-0.243815616617322,-0.2619045369515504,-0.659012,-0.34731,0.592082,-0.307436,-1.04709,-0.075619,0.066398,-0.263178,-0.045073,-0.290477,0,0,-0.659036699340806,-0.2887349613236605,0.5963577082239119,-0.2612746311157179,-1.0441359702111686,-0.108807828139322,0.0409997618813545,-0.1504326676029804,-0.1220678520354783,-0.0180416106213503
17947,2024 8 08,15:42:38.957,-0.664601,-0.2365,0.614481,-0.353252,-0.971277,-0.104179,-0.117985,0.217999,-0.28548,-0.534576,0,0,-0.6645852621596329,-0.2367355576828465,0.6146795420975759,-0.3526143635543104,-0.971518759064226,-0.1111097063806968,-0.1030765548571646,0.1325735992381434,-0.2458988357864559,-0.2755381101039729,-0.659013,-0.347312,0.592083,-0.30743,-1.04772,-0.113599,0.048156,-0.296511,-0.009299,-0.302143,0,0,-0.6590355143737656,-0.2916638132574774,0.5961439728127164,-0.263582399559932,-1.04431517170061,-0.1090473867323559,0.0413575737872867,-0.1577365842228314,-0.1164294094337044,-0.0322466800902828
17948,2024 8 08,15:42:38.965,-0.664607,-0.23646,0.614488,-0.353255,-0.971233,-0.107634,-0.119401,-0.299407,-0.052659,-0.422001,0,0,-0.6645863490516511,-0.2367217797987042,0.6146699649926971,-0.3526463953765948,-0.9715044711110148,-0.110935921061662,-0.1038927771143064,0.1109745692762362,-0.2362368439971331,-0.2828612545987742,-0.65904,-0.347315,0.59205,-0.307433,-1.040575,-0.11986,0.044091,0.462237,0.332915,-0.256674,0,0,-0.6590357386550773,-0.2944463725946035,0.5959392741720805,-0.2657749295819354,-1.0441281631155794,-0.109588017395738,0.0414942450979224,-0.1267379050116898,-0.0939621889620192,-0.0434680460857686
17949,2024 8 08,15:42:38.973,-0.664607,-0.23646,0.614488,-0.353255,-0.971224,-0.109312,-0.122901,-0.125071,-0.332476,-0.378799,0,0,-0.6645873815990685,-0.236708690808769,0.6146608667430622,-0.3526768256077651,-0.971490447555464,-0.1108547250085789,-0.1048431882585911,0.0991722908124244,-0.2410488017972764,-0.2876581418688355,-0.659047,-0.347314,0.592062,-0.307395,-1.045478,-0.109278,0.03701,0.05703,-0.350259,-0.294232,0,0,-0.6590363017223233,-0.2970897539648733,0.5957454104634764,-0.2678559331028387,-1.0441956549598004,-0.1095725165259511,0.0412700328430263,-0.1175495097611053,-0.1067770295139182,-0.0560062437814802
17950,2024 8 08,15:42:38.982,-0.664609,-0.236417,0.614467,-0.353316,-0.971868,-0.110059,-0.122198,0.172523,-0.370913,-0.40955,0,0,-0.6645884625191151,-0.2366941062683305,0.6146511734059091,-0.3527087843273768,-0.9715093251776908,-0.1108149387581499,-0.1057109288456615,0.1028398262718032,-0.2475420117074126,-0.2937527347753937,-0.659047,-0.347314,0.592062,-0.307395,-1.042836,-0.10369,0.040982,-0.360164,-0.222377,-0.395995,0,0,-0.659036836636207,-0.2996009662666297,0.5955612399403025,-0.2698328864476967,-1.0441276722118102,-0.1092783906996536,0.0412556312008749,-0.1296802342730501,-0.1125570280382223,-0.0730056815924062
17951,2024 8 08,15:42:38.990,-0.664617,-0.236398,0.614447,-0.353347,-0.97084,-0.112837,-0.123012,-0.006508,-0.447162,-0.343124,0,0,-0.6645898893931593,-0.236679300954914,0.6146409647356137,-0.352740695111008,-0.9714758589188062,-0.1109160418202424,-0.1065759824033784,0.097372434958213,-0.2575230111220419,-0.296221298036624,-0.659047,-0.347314,0.592062,-0.307395,-1.044068,-0.109836,0.039163,-0.087893,-0.008127,-0.373479,0,0,-0.6590373448043966,-0.3019866179532982,0.5953862779432874,-0.2717109921253119,-1.0441246886012197,-0.1093062711646709,0.0411509996408312,-0.1275908725593975,-0.1073355266363112,-0.0880293475127859
17952,2024 8 08,15:42:38.998,-0.664629,-0.236358,0.614436,-0.353371,-0.968818,-0.112639,-0.126245,-0.487173,-0.359582,-0.433073,0,0,-0.6645918449235014,-0.2366632359071682,0.614630716498833,-0.3527722103554576,-0.9713429659728658,-0.1110021897292303,-0.1075594332832095,0.0681451632103024,-0.2626259605659398,-0.3030638831347928,-0.65904,-0.347315,0.59205,-0.307433,-1.045824,-0.109859,0.045655,0.068968,-0.275647,-0.368049,0,0,-0.6590374775641767,-0.3042530370556333,0.5952194640461229,-0.2734970925190463,-1.0442096541711587,-0.1093339076064373,0.0413761996587896,-0.1177629289314276,-0.1157511003044956,-0.1020303301371466
17953,2024 8 08,15:42:39.007,-0.664633,-0.236343,0.614433,-0.353379,-0.968068,-0.112395,-0.127492,-0.668268,-0.319408,-0.473839,0,0,-0.6645939026773264,-0.2366472241118098,0.6146208306738914,-0.3528025498376848,-0.9711792176742226,-0.1110718302427688,-0.108556061619049,0.0313245050497872,-0.2654650625376428,-0.3116026389780532,-0.659038,-0.347334,0.59191,-0.307686,-1.046263,-0.109865,0.047278,0.108179,-0.342521,-0.366692,0,0,-0.6590375036859679,-0.3064070852028516,0.5950539908438167,-0.275206537893094,-1.044312321462601,-0.1093604622261155,0.0416712896758501,-0.1064658324848563,-0.1270895952892708,-0.1152634136302892
17954,2024 8 08,15:42:39.015,-0.664641,-0.236893,0.61466,-0.352601,-0.967875,-0.153153,-0.098074,0.171048,-0.617244,-0.407325,0,0,-0.6645962575434601,-0.2366595129062193,0.6146227891401969,-0.3527924723458005,-0.9710140067905114,-0.1131758887306303,-0.1080319585380965,0.0383106797972979,-0.2830540094107607,-0.3163887570291505,-0.659035,-0.347402,0.591876,-0.30768,-1.044238,-0.095107,-0.003377,-0.015337,-0.226157,-0.455445,0,0,-0.6590373785016694,-0.308456830942709,0.5948950913016259,-0.2768302109984393,-1.0443086053894706,-0.1086477891148097,0.0394188751920576,-0.1019093908606134,-0.1320429655248073,-0.1322724929487748
17955,2024 8 08,15:42:39.023,-0.664653,-0.23687,0.614646,-0.352617,-0.971175,-0.218548,-0.027797,0.189304,-0.439682,-0.415746,0,0,-0.664599094666287,-0.2366700372609084,0.614623949683187,-0.3527836987285104,-0.9710220564509858,-0.1184444942940988,-0.1040202106111917,0.045860345807433,-0.2908854089402226,-0.3213566191776929,-0.659025,-0.347321,0.591934,-0.307682,-1.044755,-0.108259,0.045607,0.039778,-0.327228,-0.567235,0,0,-0.6590367595765859,-0.3104000393955735,0.5947470367365446,-0.2783728004485173,-1.044330925119997,-0.1086283496590692,0.0397282814324548,-0.0948250213175828,-0.1418022172485669,-0.154020618301336
17956,2024 8 08,15:42:39.032,-0.664669,-0.236264,0.614365,-0.353482,-0.974108,-0.112246,-0.128026,-0.423626,-0.381367,-0.386288,0,0,-0.6646025899329726,-0.2366497353978629,0.6146110021990276,-0.3528186137920849,-0.9711763536284364,-0.1181345695793939,-0.1052205000806321,0.0223860285170613,-0.2954094884932115,-0.3246031882188083,-0.659021,-0.243831,0.627196,-0.33595,-1.046639,-0.109058,0.045467,-0.032159,-0.398597,-0.641554,0,0,-0.6590359715977566,-0.3070715874257948,0.5963694848997174,-0.2812516604260914,-1.0444463288639971,-0.1086498321761157,0.040015217360832,-0.0916917202517036,-0.1546419563861385,-0.1783972873862692
17957,2024 8 08,15:42:39.040,-0.664679,-0.236232,0.614342,-0.353525,-0.97398,-0.110869,-0.122539,-0.088663,-0.556901,-0.55835,0,0,-0.664606410436324,-0.2366288486279698,0.6145975520890763,-0.3528539331024807,-0.9713165359470146,-0.1177712911004242,-0.1060864250766005,0.0168335770912082,-0.3084840640685509,-0.3362905288078678,-0.659025,-0.347321,0.591934,-0.307682,-1.046139,-0.109973,0.044739,0.076673,-0.117328,-0.877952,0,0,-0.6590354230178688,-0.3090840580545051,0.5961477106547316,-0.2825731774047869,-1.0445309624207972,-0.1087159905673099,0.0402514064927904,-0.0832734842391184,-0.1527762585668316,-0.2133750230169558
17958,2024 8 08,15:42:39.048,-0.664695,-0.23682,0.614579,-0.35269,-0.972285,-0.116498,-0.12546,-0.193692,-0.378941,-0.379379,0,0,-0.6646108399145078,-0.2366384061965713,0.6145966244846224,-0.3528457364473567,-0.9713649591496638,-0.117707626545403,-0.1070551038227705,0.0063072982366478,-0.3120069108651234,-0.3384449523674744,-0.659037,-0.347641,0.592012,-0.307145,-1.043608,-0.105469,0.052024,0.19355,-0.120638,-0.946773,0,0,-0.6590355018669753,-0.3110119051517798,0.5959409251219949,-0.2838017685345475,-1.0444848142997574,-0.1085536410389444,0.0408400361681509,-0.0694323100271625,-0.15116934563849,-0.250044921866108
17959,2024 8 08,15:42:39.057,-0.664701,-0.236179,0.614317,-0.353562,-0.97155,-0.120347,-0.12346,-0.270653,-0.285884,-0.28602,0,0,-0.6646153479187824,-0.2366154358867427,0.6145826432603912,-0.3528815496249888,-0.9713742111921806,-0.1178395952181328,-0.1078753486316319,-0.0075407166751845,-0.3107007653218672,-0.3358237047491007,-0.65904,-0.347315,0.59205,-0.307433,-1.042852,-0.104123,0.054201,0.228474,-0.121627,-0.967338,0,0,-0.6590357267736265,-0.3128270598941908,0.5957463788658951,-0.2849833301078202,-1.0444031735847694,-0.1083321089869972,0.0415080843597433,-0.0545369945258044,-0.1496922283565655,-0.2859095757728025
17960,2024 8 08,15:42:39.065,-0.664713,-0.236802,0.61454,-0.352735,-0.971902,-0.154263,-0.012202,0.030187,-0.617839,-0.185327,0,0,-0.6646202305228432,-0.2366247640924056,0.6145805110973717,-0.3528742221437393,-0.9714006006325716,-0.1196607654572262,-0.1030916812000504,-0.0056543308414252,-0.3260576770557738,-0.3282988695116456,-0.659036,-0.347727,0.59198,-0.307111,-1.043954,-0.109046,0.047532,0.489266,-0.205294,-0.890273,0,0,-0.6590357404349452,-0.3145720568994813,0.5955580599226004,-0.2860897136024291,-1.0443807149055309,-0.1083678035376473,0.0418092801417562,-0.0273468447995141,-0.1524723169387373,-0.3161277469841624
17961,2024 8 08,15:42:39.073,-0.664731,-0.236154,0.614256,-0.353629,-0.972958,-0.224651,-0.154934,-0.217548,-0.349778,-0.17825,0,0,-0.6646257689967011,-0.2366012258877853,0.6145642855425031,-0.3529119610365523,-0.9714784706009428,-0.1249102771843649,-0.1056837971400478,-0.016249014299354,-0.3272436932029851,-0.3207964260360633,-0.659032,-0.347802,0.591954,-0.307086,-1.04364,-0.110344,0.053531,0.406122,-0.231541,-0.866097,0,0,-0.6590355534131979,-0.3162335540545072,0.5953778569264703,-0.2871395279223076,-1.0443436791602545,-0.1084666133607649,0.0423953661346683,-0.0056734025595384,-0.1564257510918004,-0.3436262096349543
17962,2024 8 08,15:42:39.082,-0.664744,-0.236124,0.614236,-0.35366,-0.970606,-0.108326,-0.123341,-0.146014,-0.268117,-0.252073,0,0,-0.6646316805468659,-0.236577364593396,0.6145478712653779,-0.3529493629847247,-0.9714348470708956,-0.1240810633251466,-0.1065666572830454,-0.0227372635843863,-0.3242873585428358,-0.3173602547342601,-0.659027,-0.34733,0.591926,-0.307685,-1.04158,-0.116903,0.047255,0.175409,-0.239965,-0.817532,0,0,-0.659035125742538,-0.3177883763517818,0.5952052640801467,-0.2881668015261922,-1.0442054952022417,-0.1088884326927267,0.0426383478279349,0.0033807175684384,-0.1606027135372104,-0.3673214991532065
17963,2024 8 08,15:42:39.090,-0.664752,-0.236105,0.614223,-0.35368,-0.968786,-0.106455,-0.115267,-0.06134,-0.244227,-0.304985,0,0,-0.6646376965195226,-0.2365537463637262,0.614531627702109,-0.3529858948354884,-0.9713024047173509,-0.1231997601588893,-0.1070016744188932,-0.024667400405167,-0.320284340615694,-0.3167414919975471,-0.659024,-0.347915,0.591924,-0.307031,-1.040694,-0.109812,0.046058,0.094338,-0.211233,-0.777097,0,0,-0.6590345694554111,-0.3192947075341927,0.5950412008761393,-0.2891100114498826,-1.0440299204421295,-0.1089346110580903,0.0428093304365382,0.0079285816900165,-0.1631342278603498,-0.3878102741955462
17964,2024 8 08,15:42:39.098,-0.664775,-0.236071,0.614191,-0.353715,-0.96878,-0.166771,-0.073981,0.537742,-0.842925,-0.36505,0,0,-0.6646445616935465,-0.2365296090455399,0.6145145963170036,-0.3530223500937139,-0.9711762844814832,-0.1253783221509448,-0.1053506406979485,0.0034530696150913,-0.3464163735849093,-0.3191569173976697,-0.659023,-0.347977,0.591899,-0.307013,-1.042167,-0.115031,0.043533,0.284987,-0.020196,-0.665294,0,0,-0.6590339909826405,-0.3207288221574831,0.5948840908323323,-0.2900051608773885,-1.043936774420023,-0.1092394305051858,0.0428455139147113,0.0217815026055157,-0.1559873164673323,-0.4016844604857688
17965,2024 8 08,15:42:39.107,-0.664796,-0.236043,0.614156,-0.353755,-0.973969,-0.18426,-0.086583,-0.276639,-0.323381,-0.307203,0,0,-0.6646521336088691,-0.2365052785932629,0.6144966665011533,-0.3530589825890282,-0.9713159202574092,-0.1283224060433976,-0.1044122586630511,-0.0105515338656632,-0.3452646049056638,-0.3185592215277862,-0.659025,-0.347321,0.591934,-0.307682,-1.046849,-0.095917,0.004032,0.194528,-0.126595,-0.652078,0,0,-0.6590335414335085,-0.3220584310496089,0.5947365862907157,-0.290889002833519,-1.0440823856990218,-0.1085733089799265,0.0409048382189757,0.0304188274752399,-0.1545177006439657,-0.4142041374614804
17966,2024 8 08,15:42:39.115,-0.664797,-0.236042,0.614155,-0.353756,-0.974142,-0.110348,-0.123046,-0.303797,-0.306055,-0.305274,0,0,-0.6646593769284256,-0.2364821146635997,0.6144795831760956,-0.3530938334595768,-0.9714572242445386,-0.1274236857412277,-0.1053439457298985,-0.02521380717238,-0.3433041246603806,-0.3178949604513969,-0.659029,-0.348081,0.591864,-0.306948,-1.050622,-0.11508,0.040066,0.241744,-0.180375,-0.9028,0,0,-0.659033314361833,-0.3233595594971285,0.5945929569761799,-0.291691952691843,-1.0444093664140706,-0.1088986435309302,0.0408628963080269,0.0409850861014779,-0.1558105656117674,-0.4386339305884064
17967,2024 8 08,15:42:39.123,-0.664813,-0.236025,0.614115,-0.353807,-0.975524,-0.107149,-0.123966,0.496135,-0.820304,-0.362412,0,0,-0.6646670580820042,-0.2364592589304198,0.6144613540172909,-0.3531294917865979,-0.9716605630323116,-0.1264099514541663,-0.1062750484434036,0.0008536331862389,-0.3671541184273615,-0.320120812428827,-0.65903,-0.34722,0.592025,-0.307611,-1.049873,-0.136622,0.016764,0.213038,-0.15972,-0.883781,0,0,-0.6590331486437413,-0.3245525815222721,0.5944645591273708,-0.2924879050572508,-1.044682548093367,-0.1102848113543837,0.0396579514926256,0.049587731796404,-0.156006037331179,-0.460891284058986
17968,2024 8 08,15:42:39.132,-0.66485,-0.235989,0.614065,-0.353847,-0.96478,-0.154063,-0.118334,0.094085,-0.795496,-0.253124,0,0,-0.6646762051779039,-0.2364357459838988,0.6144415363164263,-0.3531653671972681,-0.971316534880696,-0.127792603881458,-0.1068779960212334,0.0055152015269269,-0.3885712125059934,-0.3167709718073857,-0.659044,-0.348133,0.591842,-0.3069,-1.044096,-0.11229,0.047547,0.115318,0.018371,-0.710398,0,0,-0.6590336912115542,-0.3257316024461585,0.5943334311710022,-0.2932085098043883,-1.0446532206886987,-0.1103850707866645,0.0400524039179943,0.0528742452065838,-0.1472871854646201,-0.4733666198560367
17969,2024 8 08,15:42:39.140,-0.664873,-0.235972,0.614018,-0.353895,-0.966199,-0.175263,-0.06543,0.675489,-1.016005,-0.411716,0,0,-0.6646860449190086,-0.2364125586847038,0.614420359500605,-0.3532018488374047,-0.9710606581366612,-0.1301661236873851,-0.1048055962201717,0.0390138914505806,-0.4199429018806938,-0.3215182232170164,-0.659069,-0.347423,0.591835,-0.307663,-1.044793,-0.099064,0.00347,0.642774,0.171388,-0.871707,0,0,-0.6590354566509765,-0.3268161723238506,0.5942085096124521,-0.2939312343141688,-1.0446602096542636,-0.1098190172473312,0.0382232837220945,0.0823692329462546,-0.1313534261913891,-0.4932836388632349
17970,2024 8 08,15:42:39.148,-0.664891,-0.235916,0.614022,-0.353892,-0.975532,-0.118086,-0.130996,-0.424328,-0.103681,-0.370855,0,0,-0.6646962926730582,-0.2363877307504686,0.6144004415255748,-0.3532363563955344,-0.9712842252298282,-0.1295621175030158,-0.1061151164091631,0.0158467968780516,-0.404129806786659,-0.3239850620561655,-0.659088,-0.347477,0.591779,-0.307671,-1.046833,-0.098988,0.012619,0.150042,-0.109878,-1.082886,0,0,-0.6590380838184277,-0.327849213707658,0.5940870341318294,-0.2946182225984604,-1.0447688491715503,-0.1092774663849647,0.0369430695359898,0.0857528712989418,-0.1302796548818196,-0.5227637569200732
17971,2024 8 08,15:42:39.157,-0.664924,-0.235883,0.613973,-0.353939,-0.969553,-0.111241,-0.124825,0.059482,-0.93062,-0.258655,0,0,-0.6647076780394052,-0.2363624942129452,0.6143790694492961,-0.3532714885757577,-0.9711976639683368,-0.128646061627865,-0.1070506105887049,0.018028557034149,-0.430454316447326,-0.3207185589533572,-0.659099,-0.348343,0.59171,-0.306799,-1.045286,-0.109595,0.045189,0.353172,0.080887,-1.150873,0,0,-0.6590411296275063,-0.3288739030222751,0.593968182425238,-0.2952272614685374,-1.0447947067129728,-0.1092933430657164,0.0373553660591903,0.0991238277339947,-0.1197213221377286,-0.5541692190740695
