frame,date,time,quaternion_x_left,quaternion_y_left,quaternion_z_left,quaternion_w_left,accel_x_left,accel_y_left,accel_z_left,gyro_x_left,gyro_y_left,gyro_z_left,HS_left,TO_left,filtered_quaternion_x_left,filtered_quaternion_y_left,filtered_quaternion_z_left,filtered_quaternion_w_left,filtered_accel_x_left,filtered_accel_y_left,filtered_accel_z_left,filtered_gyro_x_left,filtered_gyro_y_left,filtered_gyro_z_left,quaternion_x_right,quaternion_y_right,quaternion_z_right,quaternion_w_right,accel_x_right,accel_y_right,accel_z_right,gyro_x_right,gyro_y_right,gyro_z_right,HS_right,TO_right,filtered_quaternion_x_right,filtered_quaternion_y_right,filtered_quaternion_z_right,filtered_quaternion_w_right,filtered_accel_x_right,filtered_accel_y_right,filtered_accel_z_right,filtered_gyro_x_right,filtered_gyro_y_right,filtered_gyro_z_right
3985,2024 10 17,09:00:33.198,-0.51955,0.522245,0.482415,0.473923,-1.306192,0.084964,-0.065432,-5.187988,-3.417969,-80.993652,0,0,-0.51955,0.522245,0.482415,0.473923,-1.306192,0.084964,-0.065432,-5.187988,-3.417969,-80.993652,0.814758,0.406502,-0.409415,0.057492,-0.866237,0.201178,-0.203619,-9.033203,-140.869141,253.90625,0,0,0.814758,0.406502,-0.409415,0.057492,-0.866237,0.201178,-0.203619,-9.033203,-140.869141,253.90625
3986,2024 10 17,09:00:33.207,-0.51955,0.522245,0.482415,0.473923,-1.306192,0.084964,-0.065432,-5.187988,-3.417969,-80.993652,0,0,-0.51955,0.522245,0.482415,0.473923,-1.306192,0.0849639999999999,-0.065432,-5.187988,-3.417969,-80.993652,0.808291,0.397159,-0.428977,0.07006,-0.997101,0.185553,-0.161626,-12.268066,-147.033691,252.685547,0,0,0.81443465,0.4060348499999999,-0.4103930999999999,0.0581203999999999,-0.8727802,0.2003967499999999,-0.2015193499999999,-9.19494615,-141.1773685,253.84521485
3987,2024 10 17,09:00:33.215,-0.523293,0.525923,0.477679,0.470524,-1.271523,0.034669,0.019044,-6.896973,-10.131836,-93.200684,0,0,-0.5197371499999999,0.5224289,0.4821781999999999,0.4737530499999999,-1.30445855,0.0824492499999999,-0.0612082,-5.27343725,-3.75366235,-81.6040036,0.801265,0.387292,-0.448551,0.082349,-1.075716,0.176763,-0.117679,-16.113281,-150.817871,253.479004,0,0,0.8137761675,0.4050977074999999,-0.4123009949999999,0.0593318299999999,-0.88292699,0.1992150624999999,-0.1973273324999999,-9.5408628925,-141.65939362499998,253.8269043075
3988,2024 10 17,09:00:33.223,-0.527454,0.529947,0.47228,0.466797,-1.247597,-0.035646,-0.005371,-8.056641,-10.559082,-101.806641,0,0,-0.5201229924999998,0.5228048049999999,0.4816832899999999,0.4734052474999999,-1.3016154725,0.0765444874999999,-0.05841634,-5.4125974375,-4.0939333325,-82.61413547,0.793721,0.376781,-0.468109,0.09443,-1.127964,0.147954,-0.114261,-20.751953,-153.198242,255.554199,0,0,0.8127734091250001,0.4036818721249999,-0.4150913952499999,0.0610867384999999,-0.8951788404999999,0.1966520093749999,-0.1931740158749999,-10.101417397875,-142.23633604375,253.913269042125
3989,2024 10 17,09:00:33.232,-0.532021,0.534165,0.466639,0.462459,-1.241737,-0.057619,0.107425,-3.845215,-9.643555,-110.534668,0,0,-0.5207178928749998,0.52337281475,0.4809310754999999,0.4728579351249998,-1.298621548875,0.0698363131249999,-0.050124273,-5.334228315624999,-4.371414415875,-84.01016209649998,0.785595,0.365609,-0.487746,0.10618,-1.196326,0.130375,-0.072756,-26.184082,-159.179688,257.019043,0,0,0.81141448866875,0.4017782285187499,-0.4187241254874999,0.0633414015749999,-0.9102361984749998,0.1933381589062499,-0.1871531150812499,-10.90555062798125,-143.08350364156246,254.06855774001875
3990,2024 10 17,09:00:33.240,-0.536812,0.538609,0.460927,0.457471,-1.198279,-0.115726,0.161626,1.342773,-5.79834,-116.455078,0,0,-0.5215225982312498,0.5241346240125,0.4799308717249999,0.4720885883687498,-1.29360442143125,0.0605581974687499,-0.0395367593499999,-5.000378249843749,-4.442760695081249,-85.63240789167497,0.785595,0.365609,-0.487746,0.10618,-1.196326,0.130375,-0.072756,-26.184082,-159.179688,257.019043,0,0,0.8101235142353125,0.3999697670928124,-0.4221752192131249,0.0654833314962499,-0.9245406885512498,0.1901900009609374,-0.1814332593271874,-11.669477196582188,-143.88831285948433,254.21608200301785
3991,2024 10 17,09:00:33.248,-0.541946,0.543034,0.455529,0.451555,-1.15775,-0.166509,0.230964,9.887695,0.366211,-121.765137,0,0,-0.5225437683196873,0.525079592811875,0.4787107781387498,0.4710619089503123,-1.2868117003596875,0.0492048375953124,-0.0260117213824999,-4.255974587351561,-4.2023121103271865,-87.43904434709123,0.776766,0.353828,-0.507584,0.117466,-1.294473,0.158696,-0.033204,-31.494141,-166.259766,257.93457,0,0,0.8084556385235468,0.3976626787381718,-0.4264456582524686,0.0680824649214374,-0.9430373041236874,0.1886153009128905,-0.174021796360828,-12.660710386753076,-145.0068855165101,254.4020064028669
3992,2024 10 17,09:00:33.257,-0.541946,0.543034,0.455529,0.451555,-1.15775,-0.166509,0.230964,9.887695,0.366211,-121.765137,0,0,-0.5235138799037029,0.5259773131712813,0.4775516892318123,0.4700865635027967,-1.2803586153417033,0.0384191457155468,-0.0131629353133749,-3.548791107983983,-3.9738859548108274,-89.15534897973666,0.76721,0.341525,-0.527512,0.128377,-1.393109,0.196295,0.012696,-34.606934,-172.058105,258.972168,0,0,0.8063933565973694,0.3948557948012632,-0.4314989753398451,0.0710971916753656,-0.9655408889175028,0.188999285867246,-0.1646859065427866,-13.758021567415422,-146.35944649068458,254.6305144827236
3993,2024 10 17,09:00:33.265,-0.547288,0.547424,0.45068,0.444623,-1.179235,-0.172857,0.228523,20.019531,8.605957,-124.572754,0,0,-0.5247025859085177,0.5270496475127172,0.4762081047702217,0.4688133853276568,-1.275302434574618,0.0278553384297694,-0.0010786385477062,-2.370375002584784,-3.3448938070702856,-90.9262192307498,0.756855,0.328908,-0.547387,0.13913,-1.509323,0.232429,0.082034,-34.301758,-176.147461,260.131836,0,0,0.803916438767501,0.3915584050612001,-0.4372933765728529,0.0744988320915973,-0.9927299944716276,0.1911707715738837,-0.1523499112156473,-14.785208389044652,-147.84884721615035,254.90558055858736
3994,2024 10 17,09:00:33.273,-0.552887,0.551614,0.446415,0.436752,-1.198279,-0.199713,0.252449,29.602051,15.380859,-126.708984,0,0,-0.5261118066130918,0.5282778651370813,0.4747184495317106,0.4672103160612739,-1.2714512628458872,0.016476921508281,0.011597743379679,-0.7717537024555445,-2.408606166716771,-92.71535746921232,0.74576,0.316147,-0.566929,0.149948,-1.603565,0.24366,0.093265,-30.944824,-177.734375,261.657715,0,0,0.8010086168291258,0.38778783480814,-0.4437751577442102,0.0782712904870174,-1.0232717447480462,0.1937952329951895,-0.1400691656548649,-15.59318916959242,-149.3431236053428,255.243187280658
3995,2024 10 17,09:00:33.282,-0.558697,0.55535,0.442569,0.42846,-1.233436,-0.106449,0.208502,39.0625,15.50293,-124.938965,0,0,-0.5277410662824371,0.5296314718802273,0.473110977055125,0.4652728002582103,-1.269550499703593,0.0103306254328669,0.0214429562106951,1.2199589826672326,-1.5130293583809324,-94.32653784575167,0.733812,0.303459,-0.586145,0.160831,-1.70513,0.233894,0.13477,-25.756836,-180.419922,261.657715,0,0,0.7976487859876695,0.383571393067733,-0.4508936498569997,0.0823992759626665,-1.057364657510644,0.19580017134543,-0.1263272073721217,-16.1013715111128,-150.89696352507565,255.5639136666251
3996,2024 10 17,09:00:33.290,-0.565347,0.557669,0.439074,0.42024,-1.154332,0.23487,0.246101,55.908203,2.319336,-118.164063,0,0,-0.5296213629683153,0.531033348286216,0.4714091282023688,0.4630211602452997,-1.2637895747184131,0.0215575941612236,0.0326758584001603,3.9543711835338713,-1.3214110904618857,-95.51841410346412,0.733812,0.303459,-0.586145,0.160831,-1.70513,0.233894,0.13477,-25.756836,-180.419922,261.657715,0,0,0.794456946688286,0.3795657734143464,-0.4576562173641497,0.0863208621645332,-1.0897529246351116,0.1977048627781585,-0.1132723470035156,-16.584144735557157,-152.37311144882185,255.86860373329384
3997,2024 10 17,09:00:33.298,-0.572122,0.55839,0.435704,0.413569,-1.023469,0.505875,0.264657,56.091309,-14.831543,-99.060059,0,0,-0.5317463948198995,0.5324011808719051,0.4696238717922503,0.4605485522330347,-1.2517735459824926,0.0457734644531624,0.0442749154801523,6.5612180743571775,-1.9969176859387916,-95.6954963482909,0.721067,0.291046,-0.60487,0.171721,-1.802301,0.203619,0.137211,-19.53125,-182.678223,259.521484,0,0,0.7907874493538717,0.3751397847436291,-0.4650169064959422,0.0905908690563065,-1.125380328403356,0.1980005696392505,-0.1007481796533398,-16.7314999987793,-153.8883670263807,256.05124774662914
3998,2024 10 17,09:00:33.307,-0.572122,0.55839,0.435704,0.413569,-1.023469,0.505875,0.264657,56.091309,-14.831543,-99.060059,0,0,-0.5337651750789044,0.5337006218283098,0.4679278782026378,0.4581995746213829,-1.240358318683368,0.0687785412305043,0.0552940197061447,9.037722620639318,-2.638648951641852,-95.86372448087636,0.707529,0.279128,-0.623044,0.182501,-1.907773,0.14893,0.179693,-12.207031,-185.302734,254.516602,0,0,0.7866245268861781,0.3703391955064475,-0.472918261171145,0.0951863756034912,-1.1644999619831884,0.195547041157288,-0.0867261206706728,-16.50527654884033,-155.4590853750617,255.9745154592977
3999,2024 10 17,09:00:33.315,-0.578155,0.55807,0.432825,0.408604,-0.823267,0.769066,0.256355,50.048828,-21.179199,-77.392578,0,0,-0.5359846663249592,0.5349190907368943,0.4661727342925059,0.4557197958903138,-1.2195037527491994,0.1037929141689791,0.0653470687208374,11.088277889607353,-3.5656764540597594,-94.94016715683252,0.693286,0.26794,-0.640538,0.193065,-2.001038,0.087893,0.204108,-4.089355,-187.37793,246.887207,0,0,0.7819576005418691,0.3652192357311251,-0.4812992481125878,0.1000803068233166,-1.206326863884029,0.1901643390994236,-0.0721844146371391,-15.884480471398314,-157.0550276063086,255.52015003633275
4000,2024 10 17,09:00:33.323,-0.58244,0.557928,0.430534,0.405117,-0.668966,0.66213,0.318857,28.442383,-13.427734,-56.945801,0,0,-0.5383074330087112,0.5360695362000496,0.4643907975778806,0.4531896560957981,-1.1919768651117395,0.1317097684605301,0.0780225652847956,11.955983145126986,-4.058779331356772,-93.04044884899088,0.678347,0.2577,-0.657323,0.203378,-2.049379,0.023438,0.284188,5.432129,-190.673828,237.915039,0,0,0.7767770705147756,0.3598432739445688,-0.4901004357069584,0.1052451914821508,-1.2484794706898277,0.1818280221444524,-0.0543657939052822,-14.818649997828398,-158.7359676259932,254.6398944845161
4001,2024 10 17,09:00:33.332,-0.584632,0.558013,0.429631,0.402795,-0.670919,0.818873,0.377453,18.310547,0.305176,-30.090332,0,0,-0.5406236613582757,0.5371667093900471,0.4626528076989866,0.4506699232910082,-1.1659239718561525,0.1660679300375036,0.0929940870205558,12.273711337870637,-3.840581564788933,-89.89294300654134,0.662533,0.248287,-0.673641,0.213569,-2.12067,-0.028809,0.374035,14.343262,-197.509766,233.947754,0,0,0.7710648669890369,0.3542654602473404,-0.4992774639216105,0.1106613819080433,-1.2920889971553362,0.1712961710372298,-0.0329457542100181,-13.360554397936978,-160.67465754469353,253.6052874602903
4002,2024 10 17,09:00:33.340,-0.585292,0.558283,0.429665,0.401424,-0.72512,0.744652,0.351573,8.239746,5.249023,-15.625,0,0,-0.5428570782903618,0.5382225239205447,0.4610034173140372,0.4482076271264578,-1.143883773263345,0.1949971335356284,0.105923032669528,12.072013070977103,-3.3861013365494865,-86.17954585621428,0.662533,0.248287,-0.673641,0.213569,-2.12067,-0.028809,0.374035,14.343262,-197.509766,233.947754,0,0,0.765638273639585,0.3489665372349734,-0.5079956407255299,0.1158067628126411,-1.3335180472975692,0.1612909124853682,-0.0125967164995172,-11.975363578040128,-162.51641296745885,252.62241078727575
4003,2024 10 17,09:00:33.348,-0.58534,0.558547,0.429908,0.400725,-0.597186,0.726585,0.331553,2.441406,6.225586,-7.93457,0,0,-0.5449812243758437,0.5392387477245174,0.4594486464483354,0.4458334957701348,-1.1165488846001776,0.221576526858847,0.1172045310360516,11.590482717428248,-2.9055169697220125,-82.26729706340355,0.645877,0.239083,-0.689454,0.224356,-2.237373,-0.117679,0.453139,24.902344,-197.44873,241.027832,0,0,0.7596502099576057,0.3434723603732247,-0.5170685586892534,0.121234224672009,-1.3787107949326909,0.1473424168610998,0.0106900693254586,-10.13147819913812,-164.2630288190859,252.042681847912
4004,2024 10 17,09:00:33.356,-0.58534,0.558547,0.429908,0.400725,-0.597186,0.726585,0.331553,2.441406,6.225586,-7.93457,0,0,-0.5469991631570515,0.5402041603382916,0.4579716141259186,0.4435780709816281,-1.0905807403701688,0.2468269505159046,0.127921954484249,11.133028881556836,-2.448961821235912,-78.55066071023336,0.628752,0.229556,-0.704315,0.236462,-2.364818,-0.294931,0.538102,36.865234,-188.354492,253.78418,0,0,0.7531052994597253,0.3377765423545634,-0.5264308807547907,0.1269956134384086,-1.428016155186056,0.1252287460180448,0.0370606658591857,-7.781642589181213,-165.4676019781316,252.1297567555164
4005,2024 10 17,09:00:33.365,-0.584653,0.558987,0.430867,0.400086,-0.571795,0.703146,0.348155,0.183105,17.456055,0.488281,0,0,-0.548881854999199,0.541143302321377,0.4566163834196226,0.4414034674325466,-1.0646414533516604,0.2696429029901094,0.1389336067600365,10.585532687478992,-1.4537109801741162,-74.59871362472168,0.611847,0.219557,-0.717618,0.249925,-2.415113,-0.593768,0.548357,47.546387,-168.701172,262.939453,0,0,0.746042384486739,0.3318655652368352,-0.5359902367170511,0.1331420827664881,-1.477370997426753,0.0892789087171426,0.0626254825662264,-5.015241109722151,-165.629280479225,252.67024156774056
4006,2024 10 17,09:00:33.373,-0.58317,0.559442,0.432882,0.399438,-0.617206,0.724143,0.316904,0.305176,27.46582,11.413574,0,0,-0.550596262249239,0.542058237205308,0.4554296642486414,0.4393051940609193,-1.0422696806840774,0.2923679078406039,0.1478321264220347,10.071514853105043,-0.0077344311654101,-70.2980992434856,0.595824,0.209427,-0.728975,0.264066,-2.333079,-1.05179,0.508316,54.931641,-146.179199,260.559082,0,0,0.738531465262402,0.3257436369749935,-0.5456394748811986,0.1396882786281637,-1.520156397555415,0.0322254632812854,0.0849100084379151,-2.0178970042360427,-164.65677640526374,253.0646835893535
4007,2024 10 17,09:00:33.381,-0.580968,0.559695,0.435879,0.399033,-0.696799,0.722678,0.242683,0.427246,34.362793,23.376465,0,0,-0.552114849136777,0.5429400753450425,0.4544521310362093,0.4372915843578733,-1.0249961466498736,0.3138834124485737,0.152574670100933,9.58930141044979,1.7107919403928606,-65.61437103131131,0.580833,0.200056,-0.738617,0.277589,-2.133854,-1.526414,0.545915,56.396484,-132.141113,241.455078,0,0,0.7306465419992819,0.3194592551262438,-0.5552883511371386,0.1465833146967555,-1.5508412776776443,-0.0457065098827788,0.1079602580160193,0.90282204597576,-163.03099323500055,252.48420330988583
4008,2024 10 17,09:00:33.390,-0.578351,0.559549,0.439431,0.399144,-0.688009,0.687521,0.240242,0.244141,34.301758,33.996582,0,0,-0.5534266566799381,0.5437705215777904,0.4537010744843989,0.4353842051399796,-1.00814678931738,0.332565291826145,0.1569580365958863,9.1220433899273,3.340340243373218,-60.633823379745735,0.580833,0.200056,-0.738617,0.277589,-2.133854,-1.526414,0.545915,56.396484,-132.141113,241.455078,0,0,0.7231558648993178,0.3134890923699315,-0.5644547835802816,0.1531335989619177,-1.579991913793762,-0.1197418843886398,0.1298579951152184,3.677505143676972,-161.48649922325052,251.93274704439156
4009,2024 10 17,09:00:33.398,-0.575276,0.559094,0.443691,0.399513,-0.670919,0.645527,0.214362,1.525879,39.794922,44.128418,0,0,-0.5545191238459412,0.5445366954989008,0.4532005707601789,0.4335906448829806,-0.9912853998515108,0.3482133772348377,0.159828234766092,8.742235170430936,5.163069331204557,-55.39571131075845,0.566694,0.1924,-0.747088,0.289308,-1.903378,-1.881405,0.673849,53.710938,-130.004883,209.106445,0,0,0.7153327716543519,0.307434637751435,-0.5735864444012675,0.1599423190138218,-1.596161218104074,-0.2078250401692079,0.1570575453594574,6.179176786493123,-159.91241841208796,249.79143194217195
4010,2024 10 17,09:00:33.406,-0.571616,0.558401,0.448951,0.399858,-0.719748,0.617695,0.186529,4.516602,49.316406,54.504395,0,0,-0.555373967653644,0.5452299107239558,0.4529880922221699,0.4319040126388315,-0.9777085298589352,0.3616874583730958,0.1611632730277873,8.530953511909388,7.370736164644329,-49.90070599522053,0.553243,0.18722,-0.754746,0.298713,-1.73394,-2.117252,0.934111,51.818848,-133.850098,168.701172,0,0,0.7072282830716343,0.3014239058638632,-0.582644422181204,0.1668808530631307,-1.60305015719887,-0.3032963881607475,0.1959102180914846,8.461160347168466,-158.60930239148354,245.7369189450633
4011,2024 10 17,09:00:33.415,-0.571616,0.558401,0.448951,0.399858,-0.719748,0.617695,0.186529,4.516602,49.316406,54.504395,0,0,-0.5561860692709617,0.5458884651877579,0.4527862376110614,0.4303017120068899,-0.9648105033659884,0.374487835454441,0.162431559376398,8.330235936313917,9.468019656412112,-44.6804509454595,0.540704,0.184933,-0.761497,0.305877,-1.594775,-2.263741,1.23246,52.79541,-135.803223,125.12207,0,0,0.6989020689180526,0.2955993605706701,-0.5915870510721438,0.1738306604099741,-1.6026363993389263,-0.4013186187527101,0.2477377071869104,10.677872829810042,-157.46899842190933,239.70617649781016
4012,2024 10 17,09:00:33.423,-0.567435,0.557387,0.455088,0.40029,-0.790063,0.589373,0.154302,6.530762,54.504395,64.758301,0,0,-0.5567485158074136,0.54646339192837,0.4529013257305083,0.4288011264065454,-0.9560731281976892,0.3852320936817189,0.1620250814075781,8.240262239498222,11.719838423591508,-39.20851334818652,0.529381,0.185461,-0.767084,0.311354,-1.559618,-2.376537,1.542039,57.678223,-129.821777,85.266113,0,0,0.69042601547215,0.2900924425421365,-0.6003618985185366,0.1807068273894754,-1.60048547937198,-0.5000795378150746,0.3124527718275648,13.02789033831954,-156.08663735081387,231.98417332291964
4013,2024 10 17,09:00:33.431,-0.562837,0.555965,0.461853,0.401011,-0.843776,0.551775,0.124516,7.568359,56.762695,74.768066,0,0,-0.5570529400170429,0.5469384723319515,0.4533489094439829,0.4274116200862181,-0.9504582717878046,0.393559238997633,0.1601496273371992,8.20666707752331,13.971981252411933,-33.509684380777195,0.520222,0.188083,-0.770811,0.315982,-1.689993,-2.561113,1.703177,65.368652,-105.46875,52.307129,0,0,0.6819158146985425,0.2849919704150297,-0.6088843535926097,0.1874705860200016,-1.604960855403381,-0.603131210924321,0.3819889832361866,15.644928421403565,-153.55574298327318,223.00032110677367
4014,2024 10 17,09:00:33.440,-0.557811,0.554126,0.469147,0.402111,-0.906278,0.52443,0.101566,7.507324,58.105469,84.960938,0,0,-0.5570908430161906,0.5472978487153538,0.4541388139717837,0.4261465890819071,-0.9482492581984144,0.4001027770477513,0.1572204459703392,8.171699923647143,16.178655639791337,-27.58615326173833,0.520222,0.188083,-0.770811,0.315982,-1.689993,-2.561113,1.703177,65.368652,-105.46875,52.307129,0,0,0.6738311239636152,0.2801465218942782,-0.6169806859129793,0.1938961567190016,-1.6092124626332118,-0.7010303003781049,0.4480483840743773,18.131114600333383,-151.1513933341095,214.465661501435
4015,2024 10 17,09:00:33.448,-0.552373,0.551863,0.476804,0.403719,-0.933134,0.500504,0.10889,6.225586,57.067871,94.726563,0,0,-0.5568549508653811,0.5475261062795861,0.4552720732731944,0.4250252096278118,-0.9474934952884936,0.4051228381953637,0.1548039236718222,8.074394227464786,18.22311640780177,-21.47051744865141,0.514701,0.191791,-0.771897,0.320115,-1.805719,-2.77987,1.619678,67.443848,-57.434082,22.583008,0,0,0.6658746177654344,0.2757287457995643,-0.6247265016173302,0.2002070988830515,-1.619037789501551,-0.8049722853591996,0.5066298648706584,20.596751270316712,-146.465527767404,204.87152882636323
4016,2024 10 17,09:00:33.456,-0.546393,0.549305,0.484804,0.405812,-0.962432,0.477554,0.099612,3.356934,58.59375,104.187012,0,0,-0.556331853322112,0.5476150509656068,0.4567486696095347,0.4240645491464212,-0.9482404205240688,0.4087443962855955,0.1520443274882311,7.838521216091546,20.24164808741168,-15.18764097621884,0.513916,0.195656,-0.770102,0.323345,-1.699759,-2.892178,1.311563,57.983398,0.244141,-6.835938,0,0,0.6582766868771628,0.271725108509586,-0.6319952765364637,0.2063639939388989,-1.6230738500264734,-0.9093325710912395,0.5468765216271254,22.46608360680088,-139.1300443290338,194.28615548504507
4017,2024 10 17,09:00:33.465,-0.546393,0.549305,0.484804,0.405812,-0.962432,0.477554,0.099612,3.356934,58.59375,104.187012,0,0,-0.5558349106560064,0.5476995484173265,0.4581514361290579,0.4231519216891001,-0.9489499994978654,0.4121848764713157,0.1494227111138196,7.614441855286969,22.15925318304109,-9.218908327407895,0.517185,0.199436,-0.766392,0.324636,-1.407758,-2.7828,0.981964,36.010742,39.123535,-36.560059,0,0,0.6512221025333046,0.2681106530841067,-0.6387151127096405,0.2122775942419539,-1.6123080575251498,-1.0030059425366775,0.5686308955457691,23.14331652646083,-130.21736536258211,182.7438447607928
4018,2024 10 17,09:00:33.473,-0.539787,0.546575,0.493082,0.408359,-0.980987,0.434584,0.106937,-1.220703,60.180664,112.365723,0,0,-0.5550325151232061,0.5476433209964602,0.459897964322605,0.4224122756046451,-0.950551849522972,0.4133048326477499,0.1472984255581286,7.17268461252262,24.06032372388904,-3.139676761037502,0.522541,0.203157,-0.762308,0.323365,-1.207556,-2.4073,0.757836,9.399414,49.194336,-58.837891,0,0,0.6447880474066394,0.2648629704299013,-0.6448947570741586,0.2178319645298562,-1.5920704546488922,-1.0732206454098436,0.5780911507684806,22.45612140013779,-121.246780294453,170.66475797275314
4019,2024 10 17,09:00:33.481,-0.532534,0.543823,0.501499,0.411293,-1.026399,0.390149,0.112308,-6.835938,62.5,118.591309,0,0,-0.5539075893670458,0.5474523049466371,0.4619780161064747,0.4218563118244129,-0.9543442070468234,0.4121470410153623,0.1455489042802221,6.472253481896488,25.982307537694588,2.9468725270143734,0.526893,0.213723,-0.763273,0.30679,-1.228065,0.059572,4.382458,-120.544434,-110.839844,-265.686035,1,0,0.6388932950363074,0.2623059719084062,-0.6508136692204506,0.2222798663033634,-1.5738701819164471,-1.0165810131393511,0.7683094932300566,15.306093630130896,-120.72643347973036,148.8472183241155
4020,2024 10 17,09:00:33.490,-0.524714,0.541165,0.509856,0.414563,-1.062044,0.342784,0.111332,-13.305664,62.866211,122.009277,0,0,-0.5524479098986934,0.5471379396993051,0.4643719153011509,0.4214916462331922,-0.9597291966944822,0.4086788889645942,0.143838059066211,5.483357607801663,27.82650271080985,8.899992750663655,0.526893,0.213723,-0.763273,0.30679,-1.228065,0.059572,4.382458,-120.544434,-110.839844,-265.686035,0,0,0.6332932802844919,0.2598768233129859,-0.656436635759428,0.2265053729881952,-1.5565799228206247,-0.9627733624823837,0.9490169185685536,8.513567248624351,-120.23210400574382,128.1205556579097
4021,2024 10 17,09:00:33.498,-0.51648,0.538659,0.517929,0.418144,-1.072787,0.295419,0.129398,-19.958496,62.805176,122.86377,0,0,-0.5506495144037586,0.5467139927143398,0.4670497695360934,0.4213242639215326,-0.965382086859758,0.4030158945163645,0.1431160561129004,4.211264927411579,29.57543637526936,14.598181613130471,0.551563,0.21486,-0.751349,0.2917,-0.443861,1.82281,-2.982025,-184.692383,310.058594,-219.482422,0,0,0.6292067662702673,0.2576259821473366,-0.6611822539714567,0.2297651043387854,-1.5009439766795936,-0.8234941943582643,0.752464822640126,-1.1467302638068675,-98.71756910545662,110.7404067750142
4022,2024 10 17,09:00:33.506,-0.507871,0.536448,0.525675,0.421849,-1.084994,0.241707,0.152837,-26.245117,63.964844,121.459961,0,0,-0.5485105886835707,0.5462006930786228,0.4699810310592887,0.4213505007254559,-0.97136268251677,0.3949504497905463,0.1436021033072554,2.688445831041,31.29490675650589,19.941270582473948,0.561905,0.222571,-0.747426,0.275824,-1.103061,0.768578,-1.300821,-106.750488,-47.729492,-229.797363,0,0,0.6258416779567539,0.2558732330399698,-0.6654944412728838,0.2320680491218461,-1.4810498278456137,-0.7438905846403511,0.6498005315081197,-6.426918150616524,-96.16816525018378,93.71351828626348
4023,2024 10 17,09:00:33.515,-0.507871,0.536448,0.525675,0.421849,-1.084994,0.241707,0.152837,-26.245117,63.964844,121.459961,0,0,-0.5464786092493922,0.5457130584246918,0.4727657295063242,0.4213754256891831,-0.9770442483909316,0.3872882773010189,0.1440638481418927,1.2417676894889491,32.9284036186806,25.01720510335025,0.567491,0.234987,-0.745863,0.257728,-1.797418,0.26075,1.208045,-46.081543,42.480469,-245.422363,0,0,0.6229241440589162,0.2548289213879713,-0.6695128692092396,0.2333510466657538,-1.496868236453333,-0.6936585554083334,0.6777127549327137,-8.409649393085697,-89.23573353767459,76.7567242219503
4024,2024 10 17,09:00:33.523,-0.498964,0.534598,0.533088,0.425507,-1.076693,0.175787,0.16895,-31.005859,66.101074,118.591309,0,0,-0.5441028787869225,0.5451573055034571,0.475781843031008,0.421582004404724,-0.9820266859713848,0.376713213435968,0.145308155734798,-0.3706136449854984,34.58703713774656,29.69591029818274,0.582102,0.246842,-0.733393,0.249723,-1.092807,-0.231452,-1.14359,14.343262,127.990723,-221.862793,0,0,0.6208830368559703,0.2544295753185727,-0.6727068757487775,0.2341696443324661,-1.4766651746306665,-0.6705482276379168,0.5866476171860779,-7.272003823431412,-78.37441071079085,61.82574836085277
4025,2024 10 17,09:00:33.531,-0.489715,0.533167,0.540372,0.428849,-1.078646,0.095218,0.167486,-33.935547,72.631836,115.905762,0,0,-0.5413834848475764,0.5445577902282841,0.4790113508794576,0.4219453541844877,-0.9868576516728156,0.3626384527641695,0.1464170479480581,-2.0488603127362235,36.48927708085924,34.0064028832736,0.58801,0.259542,-0.726595,0.242778,-2.031312,-0.136723,0.887234,29.846191,38.146973,-173.64502,0,0,0.6192393850131719,0.2546851965526441,-0.6754012819613386,0.2346000621158428,-1.5043975158991332,-0.643856966256021,0.601676936326774,-5.416094082259841,-72.5483415252513,50.05220994281013
4026,2024 10 17,09:00:33.540,-0.479991,0.532053,0.547802,0.431789,-1.129429,0.02295,0.151372,-34.912109,80.444336,116.027832,0,0,-0.5383138606051975,0.5439325507168699,0.4824508833354847,0.4224375364752633,-0.9939862190891748,0.3456540301259611,0.1466647955506552,-3.692022747099412,38.68703002681628,38.10747433910992,0.599797,0.265765,-0.715167,0.24114,-1.279824,-0.113773,-0.178228,24.108887,178.588867,-116.210938,0,0,0.6182672657625132,0.2552391867250119,-0.6773895678632718,0.2349270590100507,-1.4931688401041765,-0.6173527679432198,0.5626816895104353,-3.939845028146849,-59.99148109898873,41.73905254566962
4027,2024 10 17,09:00:33.548,-0.469937,0.530946,0.555414,0.434478,-1.174352,-0.047365,0.1377,-34.240723,84.16748,118.408203,0,0,-0.5348950175749376,0.5432832231810264,0.4860990391687104,0.4230395596515001,-1.003004508134716,0.326003078619663,0.1462165557731224,-5.219457759744442,40.961052525475466,42.12251077215443,0.599797,0.265765,-0.715167,0.24114,-1.279824,-0.113773,-0.178228,24.108887,178.588867,-116.210938,0,0,0.6173437524743876,0.2557654773887612,-0.6792784394701082,0.2352377060595481,-1.4825015980989675,-0.5921737795460588,0.5256362050349135,-2.537408426739506,-48.06246369403929,33.84155301838614
4028,2024 10 17,09:00:33.556,-0.4598,0.529611,0.563097,0.437056,-1.216346,-0.129887,0.106937,-32.104492,83.862305,120.361328,0,0,-0.5311402666961906,0.5425996120219752,0.4899489372102749,0.4237403816689251,-1.01367158272798,0.3032085746886798,0.1442525779844663,-6.563709471757219,43.10611514920169,46.03445163354671,0.610058,0.269987,-0.704649,0.241671,-1.040071,-0.053713,-0.045412,33.02002,126.831055,-83.740234,0,0,0.6169794648506681,0.2564765535193232,-0.6805469674966028,0.2355593707565707,-1.460380068194019,-0.5652507405687558,0.4970837947831678,-0.7595370054025306,-39.31778775933732,27.962463667466835
4029,2024 10 17,09:00:33.565,-0.4598,0.529611,0.563097,0.437056,-1.216346,-0.129887,0.106937,-32.104492,83.862305,120.361328,0,0,-0.5275732533613811,0.5419501814208764,0.4936063403497612,0.4244061625854788,-1.023805303591581,0.2815537959542458,0.142386799085243,-7.840748598169359,45.143924641741606,49.75079545186937,0.617149,0.273911,-0.696179,0.243793,-1.096713,-0.115238,0.152837,50.90332,113.15918,-54.6875,0,0,0.6169879416081346,0.257348275843357,-0.6813285691217726,0.2359710522187421,-1.4421967147843182,-0.5427501035403179,0.4798714550440093,1.823605844867596,-31.69393937137045,23.82996548409349
4030,2024 10 17,09:00:33.573,-0.449954,0.52797,0.570701,0.439419,-1.212439,-0.202643,0.077151,-27.099609,81.115723,118.835449,0,0,-0.5236922906933119,0.5412511723498326,0.4974610733322731,0.4251568044562049,-1.0332369884120018,0.2573439561565335,0.1391250091309808,-8.803691618260892,46.942514559654526,53.2050281292759,0.623336,0.276592,-0.688238,0.247543,-0.950713,-0.182134,-0.125492,48.76709,102.905273,-31.921387,0,0,0.6173053445277279,0.2583104620511892,-0.681674040665684,0.236549649607805,-1.417622529045102,-0.524719298363302,0.4496032822918088,4.170780052624217,-24.96397875280193,21.042397859888816
4031,2024 10 17,09:00:33.581,-0.440646,0.526075,0.578128,0.441411,-1.166051,-0.256844,0.080569,-20.751953,78.24707,114.746094,0,0,-0.5195399761586462,0.5404923637323409,0.5014944196656594,0.4259695142333947,-1.0398776889914016,0.2316345583487068,0.1361972086744317,-9.401104687347848,48.5077423316718,56.282081422812105,0.627902,0.278265,-0.682516,0.249959,-1.027375,0.00293,0.104984,28.869629,74.707031,-24.780273,0,0,0.6178351773013415,0.2593081889486297,-0.6817161386323998,0.2372201171274148,-1.398110152592847,-0.4983368334451369,0.4323723181772184,5.405722499993006,-19.98042826516183,18.75126431689437
4032,2024 10 17,09:00:33.590,-0.431787,0.524044,0.585574,0.442765,-1.168493,-0.302255,0.047853,-12.817383,79.223633,110.961914,0,0,-0.5151523273507138,0.5396699455457238,0.5056983986823764,0.4268092885217249,-1.0463084545418315,0.2049400804312715,0.1317799982407101,-9.571918602980457,50.04353686508821,59.0160730516715,0.632211,0.279314,-0.677119,0.252592,-0.994171,0.067873,-0.079592,30.700684,77.819824,-17.333984,0,0,0.6185539684362744,0.2603084795011982,-0.6814862817007797,0.237988711271044,-1.3779131949632046,-0.47002634177288,0.4067741022683574,6.670470574993356,-15.090415651903738,16.947001901049656
4033,2024 10 17,09:00:33.598,-0.423336,0.521775,0.593131,0.443545,-1.203162,-0.333018,0.020508,-5.004883,79.223633,109.25293,0,0,-0.5105615109831781,0.5387751982684376,0.5100700287482576,0.4276460740956386,-1.05415113181474,0.1780421764097079,0.1262163983286746,-9.343566822831432,51.5025416718338,61.52791589908792,0.632211,0.279314,-0.677119,0.252592,-0.994171,0.067873,-0.079592,30.700684,77.819824,-17.333984,0,0,0.6192368200144607,0.2612587555261383,-0.6812679176157407,0.2387188757074918,-1.3587260852150445,-0.4431313746842359,0.3824557971549395,7.871981246243688,-10.44490366930855,15.232952605997172
4034,2024 10 17,09:00:33.606,-0.415324,0.519064,0.600729,0.444076,-1.238319,-0.365734,-0.046876,1.037598,74.401855,109.680176,0,0,-0.5057996354340192,0.5377896383550157,0.5146029773108447,0.4284675703908567,-1.063359525224003,0.1508533675892225,0.1175617784122409,-8.82450858168986,52.6475073382421,63.93552890413351,0.635681,0.280507,-0.672164,0.255776,-0.989776,-0.029298,-0.008789,37.414551,66.223145,-10.986328,0,0,0.6200590290137376,0.2622211677498314,-0.6808127217349536,0.2395717319221172,-1.340278580954292,-0.4224397059500241,0.3628935572971924,9.349109733931504,-6.6115012358431215,13.921988575697316
4035,2024 10 17,09:00:33.615,-0.415324,0.519064,0.600729,0.444076,-1.238319,-0.365734,-0.046876,1.037598,74.401855,109.680176,0,0,-0.5012758536623182,0.536853356437265,0.5189092784453024,0.4292479918713138,-1.0721074989628023,0.1250239992097614,0.1093398894916289,-8.331403252605368,53.73522472132999,66.22276125892684,0.638741,0.281424,-0.667637,0.258983,-0.989288,-0.035157,0.056642,34.362793,63.903809,-5.737305,0,0,0.6209931275630507,0.2631813093623398,-0.6801539356482059,0.2405422953260113,-1.3227290519065773,-0.4030755706525229,0.3475809794323328,10.599793897234928,-3.0857357240509646,12.939023896912447
4036,2024 10 17,09:00:33.623,-0.407927,0.515826,0.608078,0.444703,-1.244667,-0.417493,-0.089846,4.638672,65.673828,109.130859,0,0,-0.4966084109792023,0.5358019886154016,0.5233677145230373,0.4300207422777481,-1.0807354740146622,0.0978981492492733,0.0993805950170474,-7.6828994899750995,54.33215488526349,68.3681661459805,0.641456,0.281979,-0.663623,0.261967,-0.93704,0.012207,0.020508,28.625488,53.527832,-2.929688,0,0,0.6220162711848981,0.2641211938942228,-0.6793273888657956,0.2416135305597107,-1.3034445993112485,-0.3823114421198967,0.3312273304607162,11.50107860237318,-0.2550573378484162,12.145588302066823
4037,2024 10 17,09:00:33.631,-0.401143,0.512262,0.614992,0.445485,-1.231971,-0.477065,-0.130375,5.615234,57.006836,106.079102,0,0,-0.4918351404302422,0.5346249891846315,0.5279489287968855,0.4307939551638607,-1.088297250313929,0.0691499917868096,0.087892815266195,-7.017992815476344,54.46588894100032,70.25371293868146,0.643248,0.282562,-0.660664,0.264412,-0.958037,-0.012207,0.100101,24.780273,38.024902,-1.342773,0,0,0.6230778576256533,0.2650432341995116,-0.6783942194225058,0.2427534540317251,-1.286174219345686,-0.3638062200139019,0.3196710139376804,12.16503832225452,1.6589406290440043,11.471170236963482
4038,2024 10 17,09:00:33.640,-0.394991,0.50865,0.621249,0.446437,-1.196814,-0.533708,-0.146489,4.638672,48.583984,99.67041,0,0,-0.48699293340873,0.5333262397253999,0.5326139323570411,0.4315761074056676,-1.0937230877982325,0.0390070921974691,0.0761737245028853,-6.435159574702527,54.1717936939503,71.72454779174738,0.644711,0.282976,-0.658343,0.266191,-0.954619,-0.012696,0.036622,17.333984,29.724121,-2.258301,0,0,0.6241595147443706,0.265939872489536,-0.6773916584513804,0.2439253313301389,-1.2695964583784016,-0.3462507090132067,0.3055185632407963,12.423485606141794,3.0621996475918043,10.784696675115308
4039,2024 10 17,09:00:33.648,-0.389543,0.505221,0.626642,0.44758,-1.141148,-0.600116,-0.14893,1.464844,39.489746,90.209961,0,0,-0.4821204367382935,0.5319209777391299,0.537315335739189,0.4323763020353842,-1.0960943334083206,0.0070509375875957,0.064918538277741,-6.0401593959674,53.437691309252784,72.64881845216,0.644711,0.282976,-0.658343,0.266191,-0.954619,-0.012696,0.036622,17.333984,29.724121,-2.258301,0,0,0.625187089007152,0.2667916788650591,-0.6764392255288113,0.2450386147636319,-1.2538475854594815,-0.3295729735625464,0.2920737350787565,12.669010525834704,4.395295715212214,10.132546791359545
4040,2024 10 17,09:00:33.656,-0.384775,0.502289,0.631058,0.448798,-1.089877,-0.662618,-0.162603,-2.685547,33.081055,77.331543,0,0,-0.4772531649013788,0.5304393788521734,0.5420024689522295,0.433197386933615,-1.0957834667379047,-0.026432509291784,0.0535424613638539,-5.87242877616903,52.41985949379014,72.882954679552,0.645712,0.283307,-0.656793,0.267237,-0.987823,-0.002441,0.047853,10.620117,18.554688,-2.990723,0,0,0.6262133345567944,0.2676174449218062,-0.6754569142523708,0.2461485340254503,-1.240546356186507,-0.313216374884419,0.2798626983248186,12.566565849542968,5.103265329451603,9.476383301791566
4041,2024 10 17,09:00:33.665,-0.384775,0.502289,0.631058,0.448798,-1.089877,-0.662618,-0.162603,-2.685547,33.081055,77.331543,0,0,-0.4726292566563098,0.5290318599095647,0.546455245504618,0.4339774175869342,-1.0954881434010095,-0.0582417838271948,0.0427351882956612,-5.713084687360578,51.45291926910063,73.1053840955744,0.646507,0.283508,-0.655662,0.267879,-0.986847,0.004395,0.050783,6.958008,14.953613,-2.868652,0,0,0.6272280178289547,0.2684119726757159,-0.6744671685397522,0.2472350573241778,-1.227861388377182,-0.297335806140198,0.2684087134085777,12.28613795706582,5.595782712979023,8.859131536701987
4042,2024 10 17,09:00:33.673,-0.380713,0.500037,0.634397,0.450068,-1.057161,-0.721213,-0.173345,-7.69043,26.245117,62.866211,0,0,-0.4680334438234943,0.5275821169140864,0.5508523332293871,0.4347819467075875,-1.093571786230959,-0.0913903446358351,0.0319311788808782,-5.8119519529925485,50.1925291556456,72.59342544079567,0.647146,0.283583,-0.65485,0.268244,-0.987823,0.023927,0.041017,2.929688,10.070801,-2.441406,0,0,0.6282239169375069,0.2691705240419301,-0.6734863101127646,0.2482855044579688,-1.2158594689583229,-0.2812726658331881,0.2570391277381488,11.818315459212528,5.819533627330071,8.294104659866887
4043,2024 10 17,09:00:33.681,-0.377407,0.498416,0.636696,0.451401,-1.013703,-0.760277,-0.170904,-11.779785,18.859863,49.316406,0,0,-0.4635021216323196,0.526123811068382,0.5551445165679177,0.4356128993722081,-1.0895783469194111,-0.1248346774040433,0.0217894199368343,-6.110343605342921,48.62589584786332,71.42957446875589,0.647637,0.283585,-0.654276,0.268456,-1.007843,0.035157,0.042482,1.464844,8.056641,-2.01416,0,0,0.6291945710906316,0.2698912478398335,-0.6725257946071264,0.2492940292350704,-1.2054586455104066,-0.2654511825415286,0.2463112713512413,11.3006418862519,5.931388995963567,7.778691426873542
4044,2024 10 17,09:00:33.690,-0.374902,0.497337,0.638057,0.452755,-0.943388,-0.810083,-0.183599,-14.038086,11.84082,36.132813,0,0,-0.4590721155507036,0.5246844705149629,0.5592901407395219,0.4364700044035977,-1.0822688295734406,-0.1590970935338412,0.0115199989399925,-6.506730725075775,46.78664205547015,69.6647363953181,0.648106,0.283563,-0.653739,0.268656,-1.014679,0.034181,0.028321,1.220703,7.629395,-1.77002,0,0,0.6301401425361,0.2705748354478418,-0.67158645487677,0.2502621277733169,-1.195919663234886,-0.2504695734144522,0.2354117577836792,10.796644941939306,6.016289296165388,7.301255855529865
4045,2024 10 17,09:00:33.698,-0.373149,0.496878,0.638644,0.453879,-0.93704,-0.890652,-0.19483,-14.343262,8.728027,22.583008,0,0,-0.4547759597731684,0.5232941469892147,0.5632578337025457,0.4373404541834178,-1.0750073880947686,-0.1956748388571491,0.0012024989929929,-6.898557288821985,44.88371130269664,67.3106499755522,0.648106,0.283563,-0.653739,0.268656,-1.014679,0.034181,0.028321,1.220703,7.629395,-1.77002,0,0,0.6310384354092949,0.2712242436754497,-0.6706940821329315,0.251181821384651,-1.1868576300731415,-0.2362370447437296,0.2250572198944953,10.31784784484234,6.096944581357118,6.847692062753372
4046,2024 10 17,09:00:33.706,-0.37224,0.4969,0.638618,0.454637,-0.964873,-0.950224,-0.212897,-11.59668,3.112793,10.437012,0,0,-0.45064916178451,0.521974439639754,0.5670258420174183,0.4382052814742469,-1.06950066869003,-0.2334022969142916,-0.0095024759566566,-7.133463424380886,42.7951653875618,64.46696807677458,0.648564,0.283541,-0.653238,0.268793,-1.024445,0.044435,0.044923,1.098633,7.385254,-2.380371,0,0,0.6319147136388302,0.2718400814916772,-0.6698212780262849,0.2520623803154185,-1.1787369985694844,-0.2222034425065431,0.2160505088997705,9.856887102600224,6.161360052289262,6.386288909615703
4047,2024 10 17,09:00:33.715,-0.37224,0.4969,0.638618,0.454637,-0.964873,-0.950224,-0.212897,-11.59668,3.112793,10.437012,0,0,-0.4467287036952845,0.5207207176577663,0.5706054499165474,0.4390268674005345,-1.0642692852555289,-0.2692433820685771,-0.0196722021588238,-7.356624253161841,40.81104676818371,61.76547027293584,0.64908,0.283563,-0.65267,0.268904,-1.010773,0.04297,0.038087,0.915527,8.178711,-3.479004,0,0,0.6327729779568887,0.2724262274170934,-0.6689637141249706,0.2529044612996475,-1.17033879864101,-0.2089447703812159,0.2071523334547819,9.409819097470212,6.262227599674798,5.893024264134918
4048,2024 10 17,09:00:33.723,-0.372485,0.497057,0.637968,0.455177,-0.973174,-0.995636,-0.192877,-6.713867,-6.286621,-0.549316,0,0,-0.4430165185105202,0.5195375317748779,0.57397357742072,0.4398343740305078,-1.0597145209927523,-0.3055630129651482,-0.0283324420508826,-7.324486390503748,38.45616337977452,58.649730959289045,0.649614,0.28363,-0.652119,0.268882,-1.01175,0.042482,0.034181,0.0,7.263184,-4.882813,0,0,0.6336150290590442,0.2729864160462387,-0.668121478418722,0.2537033382346652,-1.1624093587089597,-0.1963734318621551,0.1985037667820428,8.9393281425967,6.3122754196910575,5.354232400928171
4049,2024 10 17,09:00:33.731,-0.374054,0.497243,0.636716,0.455441,-0.96878,-1.04886,-0.18067,-0.061035,-17.700195,-12.390137,0,0,-0.4395683925849942,0.518422805186134,0.5771106985496839,0.4406147053289824,-1.0551677949431146,-0.3427278623168908,-0.0359493199483385,-6.96131382097856,35.64834546078579,55.09773756132459,0.650236,0.283742,-0.651515,0.268723,-1.026399,0.049318,0.024903,-0.671387,8.544922,-6.774902,0,0,0.634446077606092,0.2735241952439267,-0.667291154497786,0.2544543213229319,-1.1556088407735112,-0.1840888602690474,0.1898237284429407,8.458792385466865,6.423907748706504,4.747775680881762
4050,2024 10 17,09:00:33.740,-0.376987,0.497524,0.634925,0.455216,-0.955596,-1.116733,-0.161626,8.483887,-25.756836,-25.20752,0,0,-0.4364393229557445,0.5173778649268272,0.5800014136221996,0.4413447700625332,-1.050189205195959,-0.3814281192010462,-0.0422331539509216,-6.189053779929632,32.578086387746495,51.08247468325836,0.651023,0.28389,-0.650768,0.268471,-1.014191,0.047365,0.049318,-1.037598,10.314941,-8.666992,0,0,0.6352749237257873,0.2740424854817304,-0.6664649967728966,0.2551551552567853,-1.1485379487348355,-0.172516167255595,0.1827984420207936,7.983972866193521,6.6184594112711785,4.077037296837674
4051,2024 10 17,09:00:33.748,-0.381318,0.498182,0.632909,0.453693,-3.750114,-0.821802,0.158696,28.564453,-21.789551,-45.593262,0,0,-0.4336832568079573,0.5164180716804858,0.5826467929410896,0.4419621815594066,-1.185185444936161,-0.4034468132409939,-0.0321866962533755,-4.451378440933151,29.85970451835917,46.24868784909544,0.651023,0.28389,-0.650768,0.268471,-1.014191,0.047365,0.049318,-1.037598,10.314941,-8.666992,0,0,0.6360623275394979,0.2745348612076438,-0.6656801469342517,0.255820947493946,-1.141820601298094,-0.1615221088928153,0.1761244199197539,7.532894322883844,6.803283490707619,3.43983583199579
4052,2024 10 17,09:00:33.756,-0.393993,0.500402,0.628707,0.4462,-1.512253,-0.071291,-2.225166,30.700684,-168.823242,-126.220703,0,0,-0.4316987439675594,0.5156172680964615,0.584949803294035,0.4421740724814362,-1.2015388226893529,-0.3868390225789442,-0.1418356614407067,-2.693775318886493,19.925557192441207,37.62521830664066,0.651907,0.284114,-0.649914,0.268157,-1.022004,0.061037,0.035646,-0.671387,10.986328,-10.375977,0,0,0.6368545611625229,0.2750138181472616,-0.6648918395875391,0.2564377501192487,-1.1358297712331893,-0.1503941534481745,0.1691004989237662,7.122680256739652,7.012435716172238,2.7490451903960005
4053,2024 10 17,09:00:33.765,-0.393993,0.500402,0.628707,0.4462,-1.512253,-0.071291,-2.225166,30.700684,-168.823242,-126.220703,0,0,-0.4298134567691814,0.5148565046916384,0.5871376631293332,0.4423753688573644,-1.2170745315548852,-0.371061621449997,-0.2460021783686714,-1.024052352942168,10.488117232819146,29.432922241308624,0.652896,0.284463,-0.648871,0.267907,-1.007355,0.038087,0.051271,0.915527,13.85498,-11.71875,0,0,0.6376566331043968,0.2754862772398986,-0.664090797608162,0.2570112126132863,-1.1294060326715296,-0.1409700957757658,0.1632090239775779,6.812322593902668,7.354562930363626,2.0256554308762005
4054,2024 10 17,09:00:33.773,-0.418323,0.492986,0.615404,0.450831,-0.264657,0.940458,2.661702,111.572266,-236.38916,-133.056641,1,0,-0.4292389339307224,0.5137629794570564,0.5885509799728665,0.4427981504144961,-1.169453654977141,-0.3054856403774971,-0.1006169694502378,4.605763564704941,-1.8557466288218123,21.30844407924319,0.654005,0.284835,-0.647674,0.267704,-0.991241,0.031251,0.067873,1.525879,15.075684,-11.962891,0,0,0.6384740514491769,0.2759537133779036,-0.6632699577277539,0.257545851982622,-1.122497781037953,-0.1323590409869775,0.158442222778699,6.548000414207535,7.740618983845445,1.3262281093323902
4055,2024 10 17,09:00:33.781,-0.429104,0.493603,0.60837,0.449568,-1.235878,0.195318,-1.524461,8.483887,-132.385254,-107.849121,0,0,-0.4292321872341862,0.5127549804842035,0.5895419309742232,0.4431366428937713,-1.172774872228284,-0.2804454583586223,-0.1718091709777259,4.799669736469694,-8.382221997380721,14.85056582528103,0.655101,0.285222,-0.646469,0.267522,-1.004425,0.026856,0.054689,1.403809,15.075684,-11.962891,0,0,0.639305398876718,0.2764171277090084,-0.6624299098413662,0.2580446593834908,-1.1165941419860554,-0.1243982889376286,0.153254561639764,6.290790843497158,8.107372234653173,0.6617721538657705
4056,2024 10 17,09:00:33.790,-0.443305,0.492646,0.597523,0.451384,-0.72805,0.661641,0.604022,0.671387,-132.263184,-123.352051,0,0,-0.4299358278724769,0.5117495314599934,0.589940984425512,0.4435490107490827,-1.1505386286168695,-0.2333411354406911,-0.1330176124288396,4.593255599646208,-14.576270097511683,7.940434984016977,0.656229,0.285601,-0.645238,0.267327,-1.02298,0.035646,0.04883,1.77002,15.869141,-12.145996,0,0,0.640151578932882,0.2768763213235579,-0.6615703143492978,0.2585087764143163,-1.1119134348867528,-0.1163960744907472,0.1480333335577758,6.0647523013223,8.495460672920514,0.0213837461724818
4057,2024 10 17,09:00:33.798,-0.452964,0.495846,0.585971,0.453431,-1.200232,0.193365,-0.276376,-31.066895,-139.953613,-129.394531,0,0,-0.4310872364788531,0.5109543548869937,0.5897424852042364,0.4440431102116285,-1.153023297186026,-0.2120058286686566,-0.1401855318073976,2.8102480696638974,-20.8451372426361,1.0736866848161268,0.656229,0.285601,-0.645238,0.267327,-1.02298,0.035646,0.04883,1.77002,15.869141,-12.145996,0,0,0.6409554499862379,0.27731255525738,-0.6607536986318329,0.2589496875936005,-1.107466763142415,-0.1087939707662098,0.143073166879887,5.850015686256184,8.864144689274488,-0.5869852411361423
4058,2024 10 17,09:00:33.806,-0.462379,0.497912,0.573459,0.45764,-1.00882,-0.291513,-0.444349,-53.100586,-125.793457,-105.224609,0,0,-0.4326518246549105,0.510302237142644,0.5889283109440246,0.4447229547010471,-1.1458131323267249,-0.2159811872352237,-0.1553937052170277,0.014706366180702,-26.092553230504294,-4.24122809942468,0.657462,0.286012,-0.643837,0.267236,-1.018586,0.012207,0.033204,2.319336,18.554688,-12.634277,0,0,0.641780777486926,0.277747527494511,-0.6599078637002412,0.2593640032139204,-1.1030227249852942,-0.1027439222278993,0.1375797085358927,5.673481701943374,9.348671854810764,-1.1893498290793354
4059,2024 10 17,09:00:33.815,-0.470419,0.498989,0.563905,0.460138,-0.977569,-0.114261,-0.047853,-19.592285,-106.872559,-83.435059,0,0,-0.4345401834221649,0.5097365752855118,0.5876771453968234,0.4454937069659947,-1.1374009257103883,-0.2108951778734625,-0.1500166699561763,-0.965643202128333,-30.131553518979075,-8.200919644453446,0.6588,0.286338,-0.642414,0.267014,-0.991729,0.024903,0.062502,0.366211,18.371582,-13.427734,0,0,0.6426317386125796,0.2781770511197854,-0.6590331705152291,0.2597465030532244,-1.0974580387360295,-0.0963615761165043,0.133825823109098,5.408118166846205,9.799817362070224,-1.8012690376253686
4060,2024 10 17,09:00:33.823,-0.470419,0.498989,0.563905,0.460138,-0.977569,-0.114261,-0.047853,-19.592285,-106.872559,-83.435059,0,0,-0.4363341242510566,0.5091991965212361,0.5864885381269822,0.446225921617695,-1.1294093294248688,-0.2060634689797894,-0.1449084864583675,-1.8969752920219165,-33.96860379303012,-11.962626612230777,0.660102,0.286685,-0.641071,0.266657,-0.978057,0.020997,0.095218,-0.427246,16.723633,-14.282227,0,0,0.6435052516819506,0.2786024485637962,-0.6581350619894676,0.2600920279005632,-1.091487986799228,-0.0904936473106791,0.1318954319536431,5.116349958503895,10.146008143966714,-2.4253169357441005
4061,2024 10 17,09:00:33.831,-0.476929,0.499281,0.556724,0.461861,-0.853542,-0.051759,-0.291513,-9.94873,-81.848145,-62.561035,0,0,-0.4383638680385038,0.5087032866951743,0.585000311220633,0.4470076755368102,-1.1156159629536253,-0.1983482455307999,-0.1522387121354491,-2.2995630274208203,-36.36258085337861,-14.492547031619235,0.661318,0.287078,-0.639847,0.266159,-0.966826,0.014161,0.089846,-1.220703,14.099121,-15.014648,0,0,0.6443958890978531,0.2790262261356063,-0.6572206588899941,0.260395376505535,-1.0852548874592665,-0.0852609149451451,0.129792960355961,4.799497310578699,10.343663786768378,-3.0547834889568954
4062,2024 10 17,09:00:33.840,-0.482054,0.499402,0.551439,0.46275,-0.887722,0.044923,-0.046388,-4.333496,-57.495117,-50.170898,0,0,-0.4405483746365786,0.5082382223604156,0.5833222456596013,0.4477947917599696,-1.1042212648059442,-0.1861846832542599,-0.1469461765286767,-2.401259676049779,-37.41920766070968,-16.276464580038272,0.662357,0.287533,-0.638856,0.265462,-0.984893,0.021485,0.069338,-2.624512,10.131836,-15.686035,0,0,0.6452939446429604,0.279451564828826,-0.6563024259454945,0.2606487076802583,-1.080236793086303,-0.0799236191978879,0.1267702123381629,4.428296845049765,10.33307239742996,-3.6863460645090496
4063,2024 10 17,09:00:33.848,-0.485948,0.499766,0.54719,0.463326,-0.95999,0.033204,-0.004395,-6.408691,-47.851563,-42.663574,0,0,-0.4428183559047497,0.5078146112423948,0.5815156333766213,0.4485713521719712,-1.0970097015656468,-0.1752152490915469,-0.1398186177022428,-2.6016312422472896,-37.94082542767419,-17.59582005103636,0.662357,0.287533,-0.638856,0.265462,-0.984893,0.021485,0.069338,-2.624512,10.131836,-15.686035,0,0,0.6461470974108123,0.2798556365873846,-0.6554301046482198,0.2608893722962453,-1.075469603431988,-0.0748531882379935,0.1238986017212547,4.075656402797277,10.323010577558462,-4.286330511283598
4064,2024 10 17,09:00:33.856,-0.489533,0.499906,0.543378,0.463888,-1.006378,0.070803,0.083499,-2.258301,-45.349121,-37.414551,0,0,-0.4451540881095122,0.507419180680275,0.5796087517077902,0.4493371845633726,-1.0924781164873645,-0.1629143366369695,-0.1286527368171307,-2.5844647301349246,-38.31124020629048,-18.58675659848454,0.663305,0.288058,-0.637963,0.264674,-0.992706,0.026856,0.095218,-1.831055,8.972168,-16.174316,0,0,0.6470049925402718,0.2802657547580154,-0.6545567494158088,0.2610786036814331,-1.0713314232603883,-0.0697677288260938,0.122464571635192,3.780320832657413,10.255468448680537,-4.880729785719418
4065,2024 10 17,09:00:33.865,-0.493006,0.499692,0.539524,0.464937,-1.035676,0.007813,0.126469,-8.117676,-52.67334,-31.982422,0,0,-0.4475466837040365,0.5070328216462613,0.5776045141224008,0.4501171753352039,-1.089638010662996,-0.1543779698051211,-0.1158966499762741,-2.861125293628178,-39.02934519597596,-19.256539868560317,0.664186,0.288722,-0.63703,0.263988,-0.999542,0.005371,0.097171,0.366211,8.728027,-16.113281,0,0,0.6478640429132582,0.2806885670201146,-0.6536804119450184,0.2612240734973614,-1.067741952097369,-0.0660107923847891,0.1211998930534324,3.6096153410245417,10.17909637624651,-5.442357346433447
4066,2024 10 17,09:00:33.873,-0.493006,0.499692,0.539524,0.464937,-1.035676,0.007813,0.126469,-8.117676,-52.67334,-31.982422,0,0,-0.4498196495188347,0.5066657805639482,0.5757004884162807,0.4508581665684437,-1.086939910129846,-0.146268421314865,-0.1037783674774604,-3.123952828946769,-39.71154493617716,-19.892833975132294,0.665009,0.28948,-0.636087,0.263359,-1.025422,0.002441,0.060549,1.708984,8.239746,-16.357422,0,0,0.6487212907675952,0.2811281386691088,-0.6528007413477674,0.2613308198224933,-1.0656259544925004,-0.0625882027655496,0.1181673484007608,3.514583773973315,10.082128857434183,-5.988110579111774
4067,2024 10 17,09:00:33.881,-0.496359,0.498896,0.535419,0.466966,-1.009308,0.027833,0.091311,-12.207031,-62.255859,-22.460938,0,0,-0.4521466170428929,0.5062772915357507,0.5736864139954666,0.4516635582400215,-1.0830583146233537,-0.1375633502491218,-0.0940238991035874,-3.5781067374994304,-40.8387606393683,-20.02123917637568,0.665819,0.290326,-0.635086,0.262795,-1.018586,0.014649,0.080569,3.234863,9.277344,-16.540527,0,0,0.6495761762292155,0.2815880317356534,-0.6519150042803791,0.2614040288313686,-1.0632739567678753,-0.0587263426272721,0.1162874309807227,3.5005977352746487,10.041889614562477,-6.515731400156186
4068,2024 10 17,09:00:33.890,-0.499331,0.497609,0.531099,0.470092,-0.858425,0.053224,-0.155766,-18.371582,-68.359375,-13.183594,0,0,-0.4545058361907482,0.5058438769589632,0.5715570432956932,0.4525849803280204,-1.071826648892186,-0.1280239827366657,-0.097111004148408,-4.317780500624458,-42.21479135739989,-19.67935691755689,0.666667,0.291221,-0.633945,0.26241,-1.021516,0.003906,0.089358,4.455566,10.742188,-16.357422,0,0,0.6504307174177547,0.2820696801488707,-0.6510165040663601,0.2614543273898002,-1.0611860589294817,-0.0555947254959085,0.1149409594316866,3.548346148510916,10.076904533834352,-7.007815930148377
4069,2024 10 17,09:00:33.898,-0.501469,0.496293,0.526812,0.474015,-0.818873,-0.017579,-0.178716,-28.930664,-62.561035,-3.479004,0,0,-0.4568539943812108,0.505366333111015,0.5693197911309086,0.4536564813116193,-1.0591789664475766,-0.1225017335998324,-0.1011912539409876,-5.548424675593235,-43.23210353952989,-18.86933927167905,0.666667,0.291221,-0.633945,0.26241,-1.021516,0.003906,0.089358,4.455566,10.742188,-16.357422,0,0,0.651242531546867,0.2825272461414272,-0.6501629288630421,0.2615021110203101,-1.0592025559830074,-0.0526196892211131,0.1136618114601022,3.59370714108537,10.110168707142634,-7.475296233640957
4070,2024 10 17,09:00:33.906,-0.502697,0.495293,0.523666,0.477237,-0.873074,0.082522,-0.183111,-22.766113,-43.945313,0.915527,0,0,-0.4591461446621502,0.5048626664554642,0.5670371015743632,0.4548355072460384,-1.0498737181251976,-0.1122505469198408,-0.1052872412439382,-6.409309091813574,-43.26776401255339,-17.880095958095094,0.667485,0.292261,-0.632718,0.262135,-1.061068,0.006836,0.041993,7.93457,10.864258,-16.723633,0,0,0.6520546549695236,0.2830139338343558,-0.64929068241989,0.2615337554692946,-1.059295828183857,-0.0496469047600574,0.1100783708870971,3.810750284031101,10.147873171785502,-7.937713071958909
4071,2024 10 17,09:00:33.915,-0.503191,0.494715,0.520997,0.480227,-0.924345,0.039064,-0.059572,-26.733398,-35.461426,2.807617,0,0,-0.4613483874290427,0.504355283132691,0.564735096495645,0.4561050818837364,-1.0435972822189377,-0.1046848195738487,-0.1030014791817413,-7.425513537222895,-42.87744711192572,-16.845710310190338,0.668297,0.293491,-0.631418,0.261825,-1.039582,0.022462,0.104007,8.850098,11.413574,-19.104004,0,0,0.6528667722210474,0.283537787142638,-0.6483970482988954,0.2615483176958298,-1.058310136774664,-0.0460414595220545,0.1097748023427423,4.062717669829547,10.211158213196226,-8.496027618360964
4072,2024 10 17,09:00:33.923,-0.503191,0.494715,0.520997,0.480227,-0.924345,0.039064,-0.059572,-26.733398,-35.461426,2.807617,0,0,-0.4634405180575905,0.5038732689760563,0.5625481916708628,0.4573111777895496,-1.0376346681079909,-0.0974973785951563,-0.1008300052226542,-8.39090776036175,-42.50664605632943,-15.863043944680822,0.66907,0.295005,-0.63005,0.261448,-1.032746,0.018067,0.087405,10.070801,8.728027,-22.277832,0,0,0.653676933609995,0.2841111477855061,-0.6474796958839506,0.2615433018110383,-1.0570319299359308,-0.0428360365459518,0.1086563122256051,4.3631218363380695,10.137001652536416,-9.185117837442917
4073,2024 10 17,09:00:33.931,-0.503549,0.494222,0.518918,0.482604,-0.817896,0.012696,-0.244636,-16.662598,-26.916504,2.868652,0,0,-0.465445942154711,0.5033907055272535,0.5603666820873195,0.4585758189000721,-1.0266477347025913,-0.0919877096653984,-0.1080203049615215,-8.804492272343662,-41.72713895351296,-14.92645914744678,0.669721,0.296832,-0.628797,0.260728,-1.057649,0.040529,0.123539,10.925293,5.249023,-26.489258,0,0,0.6544791369294953,0.2847471903962308,-0.6465455610897531,0.2615025367204864,-1.0570627834391342,-0.0386677847186542,0.1094004466143249,4.691230394521166,9.892602719909595,-10.05032484557077
4074,2024 10 17,09:00:33.940,-0.503494,0.493983,0.517825,0.484078,-0.969756,0.053713,-0.021485,-16.296387,-10.864258,4.272461,0,0,-0.4673483450469754,0.5029203202508908,0.5582395979829535,0.4598509279550685,-1.0238031479674616,-0.0847026741821285,-0.1036935397134454,-9.179087008726478,-40.18399490583731,-13.96651314007444,0.670281,0.299114,-0.627549,0.259685,-1.124546,0.016114,0.086917,11.962891,2.01416,-32.653809,0,0,0.6552692300830205,0.2854655308764193,-0.6455957330352655,0.2614116598844621,-1.0604369442671775,-0.0359286954827215,0.1082762742836086,5.054813424795107,9.498680583914114,-11.180499053292232
4075,2024 10 17,09:00:33.948,-0.503538,0.493826,0.516785,0.485303,-0.900906,0.064455,-0.104495,-9.338379,-15.014648,0.732422,0,0,-0.4691578277946266,0.5024656042383463,0.5561668680838058,0.461123531557315,-1.0176582905690883,-0.0772447904730221,-0.1037336127277731,-9.187051608290156,-38.92552756054544,-13.231566383070716,0.670281,0.299114,-0.627549,0.259685,-1.124546,0.016114,0.086917,11.962891,2.01416,-32.653809,0,0,0.6560198185788694,0.2861479543325984,-0.6446933963835022,0.2613253268902389,-1.0636423970538185,-0.0333265607085854,0.1072083105694282,5.400217303555351,9.124454554718406,-12.25416455062762
4076,2024 10 17,09:00:33.956,-0.503656,0.493728,0.516123,0.485983,-0.91702,0.049806,-0.107913,-5.187988,-5.065918,-0.305176,0,0,-0.4708827364048952,0.502028724026429,0.5541646746796154,0.4623665049794492,-1.012626376040634,-0.070892250949371,-0.1039425820913845,-8.987098427875646,-37.23254708251817,-12.58524686391718,0.670898,0.301851,-0.626169,0.258251,-1.175329,0.009278,0.072268,14.343262,2.380371,-39.428711,0,0,0.6567637276499259,0.2869331066159684,-0.6437671765643271,0.261171610545727,-1.0692267272011275,-0.0311963326731562,0.1054612950409568,5.847369538377583,8.787250376982486,-13.612891873096238
4077,2024 10 17,09:00:33.965,-0.503835,0.493718,0.515839,0.48611,-0.941923,0.069826,-0.06299,-0.244141,-2.258301,-2.746582,0,0,-0.4725303495846504,0.5016131878251074,0.5522483909456346,0.4635536797304767,-1.0090912072386022,-0.0638563384019024,-0.1018949529868152,-8.549950556481864,-35.48383477839226,-12.093313620721322,0.671786,0.304911,-0.624551,0.256258,-1.239784,0.030274,0.12598,9.155273,2.563477,-49.133301,0,0,0.6575148412674295,0.28783200128517,-0.6428063677361108,0.2609259300184406,-1.077754590841071,-0.0281228160394983,0.1064872302889089,6.012764711458704,8.476061708133361,-15.388912329441425
4078,2024 10 17,09:00:33.973,-0.503835,0.493718,0.515839,0.48611,-0.941923,0.069826,-0.06299,-0.244141,-2.258301,-2.746582,0,0,-0.4740955821054179,0.501218428433852,0.5504279213983528,0.4646814957439528,-1.005732796876672,-0.0571722214818073,-0.0999497053374745,-8.13466007865777,-33.82255808947264,-11.625977039685257,0.673081,0.308373,-0.622734,0.253124,-1.330607,0.030763,0.100589,3.540039,1.220703,-63.720703,0,0,0.658293149204058,0.2888590512209115,-0.6418027493493053,0.2605358335175186,-1.0903972112990177,-0.0251785252375234,0.1061923187744635,5.889128425885769,8.113293772726694,-17.80550186296935
4079,2024 10 17,09:00:33.981,-0.504126,0.493804,0.515701,0.485866,-0.983917,0.066408,-0.060549,2.319336,-0.244141,-5.249023,0,0,-0.475597103000147,0.5008477070121594,0.5486915753284352,0.4657407209567551,-1.0046420070328383,-0.0509932104077169,-0.0979796700706007,-7.611960274724882,-32.14363723499901,-11.307129337700992,0.674806,0.312421,-0.62066,0.248618,-1.433149,-0.041505,-0.036622,-3.112793,0.366211,-81.176758,0,0,0.659118791743855,0.2900371486598659,-0.64074561188184,0.2599399418416427,-1.1075348007340666,-0.0259948489756472,0.0990516028357403,5.43903235459148,7.725939634090358,-20.974064669820883
4080,2024 10 17,09:00:33.990,-0.50469,0.493813,0.515464,0.485525,-0.935087,0.059572,-0.075198,4.333496,-2.13623,-7.263184,0,0,-0.4770517478501396,0.5004959716615515,0.5470301965620135,0.4667299349089174,-1.0011642566811965,-0.0454649498873311,-0.0968405865670707,-7.014687460988638,-30.643266873249058,-11.104932070815943,0.677208,0.316696,-0.618084,0.243031,-1.464888,0.021485,0.029298,-7.873535,7.873535,-93.139648,0,0,0.6600232521566622,0.2913700912268726,-0.639612531287748,0.2590944947495605,-1.1254024606973634,-0.0236208565268649,0.0955639226939533,4.773403986861905,7.73331940238584,-24.58234383632984
4081,2024 10 17,09:00:33.998,-0.505282,0.493868,0.515374,0.484947,-0.952666,0.060549,-0.082522,6.225586,0.366211,-7.93457,0,0,-0.4784632604576326,0.5001645730784738,0.5454473867339127,0.4676407881634715,-0.9987393438471366,-0.0401642523929645,-0.0961246572387171,-6.352673787939206,-29.092792979586605,-10.946413967275143,0.68047,0.321296,-0.614307,0.237395,-1.536668,0.104007,0.136235,-3.78418,21.972656,-103.210449,0,0,0.6610455895488291,0.2928663866655289,-0.6383472547233606,0.2580095200120825,-1.1459657376624952,-0.0172394637005216,0.0975974765592556,4.345524787518809,8.445286232266549,-28.513749094513344
4082,2024 10 17,09:00:34.006,-0.505946,0.493904,0.515303,0.484293,-0.955596,0.066408,-0.075198,7.080078,0.305176,-8.300781,0,0,-0.479837397434751,0.4998515444245501,0.5439401673972171,0.4684733987552979,-0.9965821766547798,-0.0348356397733163,-0.0950783243767813,-5.681036198542245,-27.622894530607272,-10.814132318911389,0.68047,0.321296,-0.614307,0.237395,-1.536668,0.104007,0.136235,-3.78418,21.972656,-103.210449,0,0,0.6620168100713876,0.2942878673322525,-0.6371452419871926,0.2569787940114783,-1.1655008507793705,-0.0111771405154956,0.0995293527312928,3.939039548142869,9.121654720653222,-32.24858408978768
4083,2024 10 17,09:00:34.015,-0.506655,0.49393,0.515247,0.483584,-0.954131,0.063967,-0.074221,7.751465,0.12207,-8.911133,0,0,-0.4811782775630134,0.4995554672033226,0.5425055090273563,0.469228928817533,-0.9944596178220408,-0.0298955077846505,-0.0940354581579422,-5.009411138615132,-26.23564630407691,-10.71898235296582,0.684184,0.326861,-0.609622,0.23112,-1.554735,0.182134,0.24073,-0.976563,24.841309,-122.619629,0,0,0.6631251695678182,0.2959165239656399,-0.6357690798878329,0.2556858543109044,-1.1849625582404015,-0.0015115834897208,0.1065893850947282,3.6932594207357257,9.90763743462056,-36.76713633529829
4084,2024 10 17,09:00:34.023,-0.506655,0.49393,0.515247,0.483584,-0.954131,0.063967,-0.074221,7.751465,0.12207,-8.911133,0,0,-0.4824521136848628,0.4992741938431564,0.5411425835759884,0.4699466823766564,-0.9924431869309388,-0.0252023823954179,-0.0930447352500451,-4.371367331684375,-24.917760488873064,-10.628589885317528,0.688345,0.333697,-0.603691,0.224463,-1.497116,0.137211,0.133305,9.155273,34.057617,-139.282227,0,0,0.6643861610894272,0.2978055477673579,-0.6341651758934412,0.2541247115953591,-1.2005702303283814,0.0054245456847652,0.1079251658399917,3.966360099698939,11.115136412889532,-41.89289086853338
4085,2024 10 17,09:00:34.031,-0.50739,0.493949,0.515173,0.482872,-0.960967,0.063478,-0.080081,7.93457,-0.061035,-9.155273,0,0,-0.4836990080006196,0.4990079341509986,0.539844104397189,0.4705929482578235,-0.9908693775843916,-0.020768363275647,-0.0923965484875428,-3.756070465100156,-23.67492421442941,-10.55492404105165,0.692493,0.341899,-0.597019,0.217085,-1.617725,0.175298,0.160649,16.845703,29.907227,-158.813477,0,0,0.6657915030349558,0.30001022037899,-0.6323078670987692,0.2522727260155912,-1.2214279688119625,0.0139182184005269,0.1105613575479921,4.610327244713992,12.054740942245054,-47.73892017510671
4086,2024 10 17,09:00:34.040,-0.508195,0.493947,0.515041,0.482169,-0.966826,0.063478,-0.069826,7.8125,-1.403809,-9.82666,0,0,-0.4849238076005886,0.4987548874434487,0.5386039491773296,0.4711717508449323,-0.989667208705172,-0.0165560451118647,-0.0912680210631657,-3.177641941845148,-22.56136845370794,-10.518510838999068,0.69677,0.351491,-0.58953,0.208374,-1.754448,0.183599,0.256844,18.249512,31.921387,-184.448242,0,0,0.667340427883208,0.3025842593600405,-0.6301689737438307,0.2500777897148116,-1.2480789703713642,0.0224022574805006,0.1178754896705925,5.292286482478293,13.048073245132802,-54.574386266351375
4087,2024 10 17,09:00:34.048,-0.509048,0.493925,0.514803,0.481546,-0.95706,0.061037,-0.080081,7.019043,-2.807617,-9.82666,0,0,-0.4861300172205591,0.4985133930712763,0.537413901718463,0.4716904633026857,-0.9880368482699132,-0.0126763928562714,-0.0907086700100074,-2.6678076947528906,-21.57368088102254,-10.483918297049112,0.702097,0.362097,-0.580194,0.198296,-1.849177,0.190435,-0.02295,17.76123,47.363281,-212.82959,0,0,0.6690782564890475,0.3055598963920385,-0.6276702250566392,0.247488700229071,-1.278133871852796,0.0308038946064755,0.1108342151870629,5.915733658354378,14.763833632876162,-62.48714645303381
4088,2024 10 17,09:00:34.056,-0.509927,0.493915,0.514483,0.480967,-0.958037,0.069826,-0.076174,6.713867,-3.356934,-10.498047,0,0,-0.4873198663595312,0.4982834734177124,0.5362673566325398,0.4721542901375514,-0.9865368558564176,-0.0085512732134579,-0.089981936509507,-2.1987239600152457,-20.66284353697141,-10.484624732196655,0.702097,0.362097,-0.580194,0.198296,-1.849177,0.190435,-0.02295,17.76123,47.363281,-212.82959,0,0,0.670729193664595,0.3083867515724365,-0.6252964138038072,0.2450290652176174,-1.3066860282601562,0.0387854498761518,0.1041450044277098,6.508008475436658,16.393806001232353,-70.00426863038211
4089,2024 10 17,09:00:34.065,-0.510771,0.493976,0.514057,0.480465,-0.951689,0.077151,-0.079104,4.577637,-3.78418,-10.742188,0,0,-0.4884924230415546,0.4980680997468268,0.5351568388009127,0.4725698256306738,-0.9847944630635967,-0.004266159552785,-0.0894380396840316,-1.8599059120144836,-19.81891036012284,-10.497502895586823,0.707851,0.374036,-0.569538,0.186202,-2.102115,0.2378,-0.063967,14.343262,47.546387,-247.314453,0,0,0.6725852839813652,0.3116692139938147,-0.6225084931136168,0.2420877119567365,-1.3464574768471484,0.0487361773823442,0.0957394042063243,6.899771151664826,17.951435051170733,-78.869777848863
4090,2024 10 17,09:00:34.073,-0.510771,0.493976,0.514057,0.480465,-0.951689,0.077151,-0.079104,4.577637,-3.78418,-10.742188,0,0,-0.4896063518894768,0.4978634947594855,0.5341018468608669,0.47296458434914,-0.9831391899104168,-0.0001953015751457,-0.0889213376998301,-1.538028766413759,-19.0171738421167,-10.50973715080748,0.714417,0.387341,-0.556852,0.171729,-2.350658,0.375988,0.00293,12.878418,61.096191,-288.269043,0,0,0.6746768697822969,0.3154528032941239,-0.6192256684579359,0.2385697763588997,-1.396667503004791,0.065098768513227,0.091098933996008,7.198703494081585,20.108672848612198,-89.33974110641984
4091,2024 10 17,09:00:34.081,-0.511486,0.494162,0.513517,0.48009,-0.942412,0.056154,-0.078127,1.464844,-3.540039,-10.620117,0,0,-0.4907003342950029,0.4976784200215112,0.5330726045178236,0.473320855131683,-0.981102830414896,0.0026221635036115,-0.0883816208148386,-1.387885128093071,-18.243317100010863,-10.515256143267107,0.722261,0.402185,-0.540875,0.15505,-2.749596,0.480483,-0.204596,9.521484,83.190918,-338.684082,0,0,0.677056076293182,0.3197894131294178,-0.6153081350350391,0.2343937875409547,-1.4643139278545514,0.0858679800875656,0.0763141872962076,7.314842519377505,23.262785106181585,-101.80695815109884
4092,2024 10 17,09:00:34.090,-0.512101,0.494426,0.512952,0.479766,-0.92581,0.056154,-0.092288,0.427246,-2.807617,-10.375977,0,0,-0.4917703675802528,0.4975157990204356,0.5320665742919324,0.4736431123750989,-0.978338188894151,0.0052987553284309,-0.0885769397740966,-1.297128571688417,-17.47153209501032,-10.508292186103752,0.731181,0.418824,-0.521129,0.135587,-3.237403,0.454604,-0.278329,11.71875,109.741211,-394.470215,0,0,0.6797623224785229,0.3247411424729469,-0.6105991782832871,0.2294534481639069,-1.5529683814618236,0.1043047810831873,0.0585820279313972,7.53503789340863,27.586706400872508,-116.4401209935439
4093,2024 10 17,09:00:34.098,-0.512569,0.494796,0.512446,0.479425,-0.938017,0.046388,-0.08594,-0.549316,-0.610352,-9.82666,0,0,-0.4928102992012401,0.4973798090694138,0.5310855455773357,0.4739322067563439,-0.9763221294494434,0.0073532175620093,-0.0884450927853918,-1.2597379431039966,-16.628473090259803,-10.474210576798566,0.741075,0.437104,-0.496939,0.113138,-3.711051,0.487808,-0.025391,8.605957,135.925293,-454.223633,0,0,0.6828279563545967,0.3303592853492995,-0.6049161693691227,0.2236376757557115,-1.6608725123887322,0.123479942029028,0.0543833765348274,7.588583848738198,33.00363573082888,-133.3292965938667
4094,2024 10 17,09:00:34.106,-0.512995,0.495193,0.512,0.479037,-0.938505,0.046876,-0.080569,0.0,-0.0,-9.82666,0,0,-0.4938195342411781,0.4972704686159431,0.5301312682984688,0.4741874464185266,-0.9744312729769712,0.0093293566839089,-0.0880512881461222,-1.1967510459487969,-15.797049435746812,-10.441833047958635,0.741075,0.437104,-0.496939,0.113138,-3.711051,0.487808,-0.025391,8.605957,135.925293,-454.223633,0,0,0.6857403085368668,0.3356965210818345,-0.5995173109006666,0.218112691967926,-1.7633814367692957,0.1416963449275766,0.050394657708086,7.639452506301287,38.14971859428744,-149.37401341417336
4095,2024 10 17,09:00:34.115,-0.513401,0.495618,0.511601,0.478589,-0.940458,0.044435,-0.072268,0.305176,0.915527,-9.82666,0,0,-0.4947986075291191,0.4971878451851459,0.5292047548835453,0.4744075240976003,-0.9727326093281226,0.0110846388497134,-0.0872621237388161,-1.1216546936513567,-14.96142061395947,-10.411074395560703,0.752146,0.456624,-0.466587,0.089821,-3.496201,0.250496,-0.026856,18.859863,196.289063,-499.328613,0,0,0.6890605931100234,0.3417428950277428,-0.5928707953556333,0.2116981073695296,-1.8500224149308304,0.1471363276811977,0.0465321248226817,8.200473030986222,46.05668581457306,-166.8717433934647
4096,2024 10 17,09:00:34.123,-0.513401,0.495618,0.511601,0.478589,-0.940458,0.044435,-0.072268,0.305176,0.915527,-9.82666,0,0,-0.4957287271526631,0.4971093529258886,0.528324567139368,0.4746165978927203,-0.9711188788617164,0.0127521569072278,-0.0865124175518753,-1.0503131589687889,-14.167573233261496,-10.381853675782668,0.7621,0.477475,-0.43232,0.065736,-3.698843,-0.15772,-0.135746,40.588379,202.575684,-527.709961,0,0,0.6927125634545221,0.3485295002763556,-0.5848432555878516,0.2044000020010531,-1.942463444184289,0.1318935112971379,0.0374182185815476,9.819868329436911,53.8826357238444,-184.91365427379145
4097,2024 10 17,09:00:34.131,-0.513804,0.496062,0.511253,0.478067,-0.938017,0.047853,-0.087893,0.732422,1.77002,-10.192871,0,0,-0.4966324907950299,0.4970569852795942,0.5274709887823996,0.4747891179980842,-0.9694637849186304,0.0145071990618664,-0.0865814466742815,-0.9611764010203494,-13.37069357159842,-10.372404541993534,0.770691,0.497488,-0.396009,0.041439,-3.532823,0.019044,0.055177,33.569336,224.54834,-529.11377,0,1,0.696611485281796,0.3559774252625379,-0.5754015428084589,0.1962519519010005,-2.0219814219750747,0.1262510357322809,0.0383061576524702,11.007341712965063,62.41592093765218,-202.12366006010188
4098,2024 10 17,09:00:34.140,-0.514199,0.496547,0.510926,0.477489,-0.946318,0.0459,-0.078616,0.793457,2.380371,-10.742188,0,0,-0.4975108162552784,0.4970314860156145,0.5266437393432797,0.47492411209818,-0.9683064956726988,0.016076839108773,-0.0861831743405674,-0.873444730969332,-12.583140343018496,-10.390893714893856,0.778709,0.515117,-0.357655,0.018714,-3.100192,0.381359,-0.428724,20.874023,242.126465,-511.779785,0,0,0.7007163610177061,0.363934403999411,-0.5645142156680358,0.1873750543059504,-2.0758919508763207,0.1390064339456669,0.0149546497698467,11.500675777316811,71.40144814076957,-217.6064663070968
4099,2024 10 17,09:00:34.148,-0.514604,0.497053,0.510589,0.476885,-0.955596,0.0459,-0.070315,1.037598,2.258301,-11.047363,0,0,-0.4983654754425144,0.4970325617148338,0.5258410023761156,0.475022156493271,-0.967670970889064,0.0175679971533344,-0.085389765623539,-0.7778925944208653,-11.841068275867572,-10.423717179149165,0.785288,0.530033,-0.319962,-0.003445,-2.854579,0.890164,-0.253914,9.521484,233.642578,-495.849609,0,0,0.7049449429668208,0.3722393337994404,-0.552286604884634,0.1778340515906529,-2.1148263033325048,0.1765643122483835,0.0015112172813544,11.401716188450967,79.51350463373109,-231.51862344174197
4100,2024 10 17,09:00:34.156,-0.515053,0.497517,0.510161,0.476375,-0.946318,0.044923,-0.080569,0.12207,0.488281,-10.925293,0,0,-0.4991998516703887,0.497056783629092,0.5250570022573098,0.4750897986686074,-0.9666033223446108,0.0189357472956677,-0.0851487273423621,-0.732894464699822,-11.224600812074192,-10.448795970191703,0.785288,0.530033,-0.319962,-0.003445,-2.854579,0.890164,-0.253914,9.521484,233.642578,-495.849609,0,0,0.7089620958184797,0.3801290171094684,-0.5406703746404022,0.1687700990111202,-2.1518139381658794,0.2122442966359643,-0.0112600435827133,11.30770457902842,87.21995830204453,-244.73517271965483
4101,2024 10 17,09:00:34.165,-0.515507,0.497962,0.509658,0.475956,-0.944365,0.036134,-0.055666,-0.610352,-0.366211,-10.620117,0,0,-0.5000152090868693,0.4971020444476374,0.5242870521444443,0.475133108735177,-0.96549140622738,0.0197956599308843,-0.083674590975244,-0.7267673414648309,-10.681681321470482,-10.457362021682115,0.790932,0.542765,-0.281469,-0.024624,-1.657765,1.527879,-1.231483,-1.525879,242.248535,-479.675293,0,0,0.7130605910275557,0.388260816253995,-0.5277103059083822,0.1591003940605642,-2.127111491257585,0.2780260318041661,-0.0722711914035776,10.666025400076997,94.9713871369423,-256.4821787336721
4102,2024 10 17,09:00:34.173,-0.515507,0.497962,0.509658,0.475956,-0.944365,0.036134,-0.055666,-0.610352,-0.366211,-10.620117,0,0,-0.5007897986325258,0.4971450422252554,0.5235555995372221,0.4751742532984181,-0.964435085916011,0.0206125769343401,-0.0822741614264818,-0.7209465743915894,-10.165907805396955,-10.46549977059801,0.792288,0.554841,-0.249148,-0.048553,-1.983459,1.542528,-0.787133,12.268066,120.727539,-469.299316,0,0,0.7170219614761779,0.3965898254412952,-0.513782190612963,0.148717724357536,-2.1199288666947056,0.3412511302139578,-0.1080142818333987,10.746127430073146,96.2591947300952,-267.1230355969885
4103,2024 10 17,09:00:34.181,-0.515962,0.498388,0.509093,0.475624,-0.944853,0.033692,-0.080569,-1.281738,-1.708984,-10.375977,0,0,-0.5015484087008996,0.4972071901139926,0.522832469560361,0.4751967406334972,-0.9634559816202104,0.0212665480876231,-0.0821889033551577,-0.7489861456720099,-9.743061615127107,-10.461023632068107,0.790999,0.565238,-0.220861,-0.077763,-0.954619,1.016633,-1.236854,-2.319336,74.21875,-491.760254,0,0,0.720720813402369,0.4050222341692304,-0.4991361310823148,0.1373936881396592,-2.0616633733599703,0.3750202237032599,-0.1644562677417288,10.092854258569488,95.15717249359042,-278.354896517139
4104,2024 10 17,09:00:34.190,-0.516422,0.498752,0.508467,0.475412,-0.933622,0.027345,-0.077639,-1.89209,-2.624512,-9.58252,0,0,-0.5022920882658546,0.497284430608293,0.5221141960823429,0.4752075036018224,-0.9619642825392,0.0215704706832419,-0.0819614081873998,-0.8061413383884094,-9.387134134370752,-10.417098450464705,0.790296,0.570346,-0.195169,-0.109755,1.48735,0.646992,-1.975646,-91.674805,5.371094,-462.036133,0,0,0.7241995727322506,0.4132884224607689,-0.4839377745281991,0.1250362537326762,-1.884212704691972,0.3886188125180969,-0.2550157543546424,5.004471295641014,90.66786856891088,-287.53895834128207
4105,2024 10 17,09:00:34.198,-0.516885,0.499071,0.507823,0.475263,-0.93997,0.016114,-0.071291,-2.01416,-3.845215,-9.033203,0,0,-0.5030217338525618,0.4973737590778783,0.5213996362782257,0.4752102784217312,-0.96086456841224,0.0212976471490798,-0.0814278877780298,-0.8665422714689889,-9.110038177652216,-10.347903677941469,0.793879,0.564378,-0.182525,-0.133862,2.128971,1.614795,-0.623066,-172.119141,-57.922363,-194.885254,0,0,0.727683544095638,0.4208429013377304,-0.4688671358017891,0.1120913410460424,-1.683553519457373,0.449927621892192,-0.2734182666369102,-3.8517093191410376,83.23835699046533,-282.90627312421793
4106,2024 10 17,09:00:34.206,-0.517433,0.499267,0.507205,0.475121,-0.926298,0.025391,-0.087405,-0.12207,-4.516602,-8.728027,0,0,-0.5037422971599337,0.4974684211239844,0.5206899044643144,0.4752058145006447,-0.959136239991628,0.0215023147916258,-0.0817267433891283,-0.8293186578955395,-8.880366368769604,-10.266909844044394,0.793879,0.564378,-0.182525,-0.133862,2.128971,1.614795,-0.623066,-172.119141,-57.922363,-194.885254,0,0,0.730993316890856,0.4280196562708439,-0.4545500290116996,0.0997936739937403,-1.492927293484504,0.5081709907975824,-0.2909006533050647,-12.265080903183986,76.18032099094205,-278.505222168007
4107,2024 10 17,09:00:34.215,-0.51802,0.499394,0.506612,0.474979,-0.924833,0.02588,-0.086428,0.488281,-4.760742,-8.483887,0,0,-0.504456182301937,0.4975647000677851,0.5199860092410986,0.4751944737756124,-0.9574210779920465,0.0217211990520445,-0.0819618062196719,-0.7634386750007626,-8.674385150331123,-10.177758701842174,0.799102,0.553191,-0.18822,-0.141384,-0.622578,1.887265,-0.030274,-124.816895,-118.347168,63.537598,0,0,0.7343987510463132,0.4342782234573016,-0.4412335275611146,0.0877347902940533,-1.4494098288102788,0.5771256912577033,-0.2778693206398115,-17.892671608024784,66.45394654139494,-261.4030811596066
4108,2024 10 17,09:00:34.223,-0.518593,0.499527,0.506091,0.47477,-0.931669,0.021973,-0.100589,0.549316,-3.78418,-8.300781,0,0,-0.5051630231868401,0.4976628150643958,0.5192912587790437,0.4751732500868317,-0.956133474092444,0.0217337890994423,-0.0828931659086883,-0.6978009412507244,-8.429874892814565,-10.083909816750063,0.806165,0.540904,-0.199833,-0.132617,-1.065462,1.903378,0.444838,-105.59082,-22.705078,220.703125,0,0,0.7379870634939976,0.4396095122844365,-0.4291635011830589,0.0767172007793506,-1.4302124373697649,0.6434383066948182,-0.2417339546078209,-22.277579027623545,61.99599531432519,-237.29777085162624
4109,2024 10 17,09:00:34.231,-0.518593,0.499527,0.506091,0.47477,-0.931669,0.021973,-0.100589,0.549316,-3.78418,-8.300781,0,0,-0.5058345220274981,0.497756024311176,0.5186312458400915,0.4751530875824901,-0.9549102503878218,0.0217457496444702,-0.0837779576132539,-0.6354450941881882,-8.197590148173836,-9.994753375912564,0.812588,0.531934,-0.210831,-0.110895,-0.908719,1.252968,-0.192389,-40.95459,43.334961,308.898926,0,0,0.7417171103192977,0.4442257366702147,-0.418246876123906,0.0673365907403831,-1.4041377655012766,0.6739147913600773,-0.2392667068774298,-23.211429576242367,61.06294359860893,-209.9879360090449
4110,2024 10 17,09:00:34.240,-0.519149,0.499681,0.505587,0.474537,-0.926786,0.030274,-0.08594,0.915527,-3.112793,-8.483887,0,0,-0.5065002459261232,0.4978522730956172,0.5179790335480868,0.4751222832033656,-0.9535040378684306,0.0221721621622467,-0.0838860597325912,-0.5578964894787787,-7.943350290765144,-9.919210057116937,0.817434,0.524646,-0.222083,-0.085012,-0.627949,0.809595,-0.162603,-11.901855,64.025879,330.13916,0,0,0.7455029548033327,0.4482467498367039,-0.4084386823177106,0.0597191612033639,-1.365328327226213,0.6806988017920734,-0.2354335215335583,-22.64595084743025,61.21109036867848,-182.98158120859267
4111,2024 10 17,09:00:34.248,-0.519672,0.499872,0.505144,0.474234,-0.946806,0.024903,-0.083499,1.342773,-2.380371,-8.605957,0,0,-0.5071588336298171,0.4979532594408363,0.5173372818706825,0.4750778690431973,-0.9531691359750092,0.0223087040541343,-0.0838667067459616,-0.4628630150048397,-7.665201326226886,-9.853547404261088,0.820845,0.51818,-0.232706,-0.05959,-0.297861,0.510269,-0.698264,-5.187988,47.119141,312.072754,0,0,0.7492700570631661,0.4517434123448687,-0.3996520482018251,0.0537537031431957,-1.311954960864902,0.6721773117024697,-0.2585750454568804,-21.77305270505873,60.50649290024456,-158.22886444816302
4112,2024 10 17,09:00:34.256,-0.520237,0.500048,0.504663,0.473941,-0.950713,0.026368,-0.073733,1.037598,-2.990723,-9.033203,0,0,-0.5078127419483262,0.4980579964687944,0.5167035677771483,0.4750210255910374,-0.9530463291762586,0.0225116688514276,-0.0833600214086635,-0.3878399642545976,-7.431477409915542,-9.812530184048033,0.820845,0.51818,-0.232706,-0.05959,-0.297861,0.510269,-0.698264,-5.187988,47.119141,312.072754,0,0,0.7528488042100077,0.4550652417276252,-0.3913047457917338,0.0480865179860359,-1.2612502628216566,0.6640818961173462,-0.2805594931840364,-20.943799469805796,59.83712530523233,-134.71378352575485
4113,2024 10 17,09:00:34.265,-0.520803,0.500248,0.50418,0.473623,-0.961943,0.016114,-0.062014,1.220703,-2.990723,-9.277344,0,0,-0.5084622548509098,0.4981674966453547,0.5160773893882908,0.4749511243114855,-0.9534911627174456,0.0221917854088562,-0.0822927203382303,-0.3074128160418677,-7.209439689419763,-9.78577087484563,0.822358,0.511801,-0.245566,-0.038525,-0.146977,0.283212,-0.663594,-8.361816,-6.652832,283.630371,0,0,0.7563242639995073,0.4579020296412439,-0.3840178085021472,0.0437559420867341,-1.2055365996805738,0.6450384013114788,-0.2997112185248345,-20.314700296315504,56.51262743997071,-113.79657579946708
4114,2024 10 17,09:00:34.273,-0.521501,0.500372,0.503624,0.473315,-0.948759,0.015137,-0.080081,2.197266,-5.004883,-9.94873,0,0,-0.5091141921083643,0.4982777218130869,0.5154547199188763,0.4748693180959112,-0.9532545545815734,0.0218390461384134,-0.0821821343213188,-0.1821788752397743,-7.099211854948776,-9.793918831103348,0.822765,0.504659,-0.260615,-0.021381,-0.107425,0.225105,-0.798853,-21.362305,-55.358887,265.441895,0,0,0.7596463007995319,0.4602398781591817,-0.3778476680770398,0.0404990949823974,-1.150631019696545,0.6240417312459049,-0.3246683075985928,-20.36708053149973,50.91905171797217,-94.83465225949374
4115,2024 10 17,09:00:34.281,-0.521501,0.500372,0.503624,0.473315,-0.948759,0.015137,-0.080081,2.197266,-5.004883,-9.94873,0,0,-0.5097335325029461,0.4983824357224325,0.5148631839229324,0.4747916021911156,-0.9530297768524948,0.0215039438314927,-0.0820770776052529,-0.0632066314777856,-6.994495412201338,-9.80165938954818,0.822052,0.496277,-0.279081,-0.007336,-0.322764,0.344249,-0.552751,-34.606934,-105.834961,263.48877,0,0,0.7627665857595552,0.4620417342512226,-0.3729093346731877,0.0381073402332775,-1.1092376687117178,0.6100520946836097,-0.3360724422186631,-21.079073204924747,43.08135108207355,-76.91848114651904
4116,2024 10 17,09:00:34.290,-0.522297,0.500454,0.503019,0.472994,-0.950224,0.024415,-0.0918,2.685547,-5.249023,-10.620117,0,0,-0.5103617058777987,0.4984860139363109,0.5142709747267857,0.4747017220815598,-0.9528894880098698,0.0216494966399181,-0.0825632237249902,0.0742310500961036,-6.907221791591271,-9.84258227007077,0.820569,0.486528,-0.299868,0.005995,-0.573748,0.477554,-0.489273,-42.175293,-128.540039,276.245117,0,0,0.7656567064715775,0.4632660475386615,-0.3692572679395283,0.0365017232216137,-1.0824631852761315,0.6034271899494291,-0.3437324701077299,-22.133884194678508,34.50028157796987,-59.26030123919308
4117,2024 10 17,09:00:34.298,-0.523108,0.500602,0.502409,0.472588,-0.950224,0.027833,-0.093265,2.502441,-4.394531,-11.71875,0,0,-0.5109990205839088,0.4985918132394953,0.5136778759904465,0.4745960359774818,-0.9527562136093762,0.0219586718079222,-0.0830983125387407,0.1956415475912984,-6.781587252011707,-9.93639065656723,0.818254,0.475659,-0.322181,0.020225,-0.815455,0.495621,-0.335459,-42.96875,-135.620117,297.180176,0,0,0.7682865711479986,0.4638856951617284,-0.3669034545425519,0.035687887060533,-1.069112776012325,0.5980368804519576,-0.3433187966023434,-23.17562748494458,25.994261649071376,-41.43827737723342
4118,2024 10 17,09:00:34.306,-0.523923,0.500888,0.501783,0.472048,-0.978545,0.038575,-0.074221,2.746582,-2.929688,-13.85498,0,0,-0.5116452195547133,0.4987066225775206,0.513083132190924,0.4744686341786077,-0.9540456529289072,0.0227894882175261,-0.0826544469118036,0.3231885702117335,-6.588992289411121,-10.132320123738868,0.818254,0.475659,-0.322181,0.020225,-0.815455,0.495621,-0.335459,-42.96875,-135.620117,297.180176,0,0,0.7707849425905986,0.464474360403642,-0.3646673318154243,0.0349147427075063,-1.0564298872117086,0.5929160864293597,-0.3429258067722263,-24.16528361069735,17.913542716617805,-24.507354708371743
4119,2024 10 17,09:00:34.315,-0.524808,0.501337,0.501082,0.471333,-0.993194,0.031251,-0.08887,2.685547,-2.258301,-17.028809,0,0,-0.5123033585769776,0.4988381414486446,0.5124830755813778,0.4743118524696773,-0.956003070282462,0.0232125638066498,-0.0829652245662135,0.4413064917011468,-6.372457724940564,-10.477144567551925,0.815429,0.46371,-0.344574,0.036286,-0.861354,0.404309,-0.353038,-43.212891,-125.244141,317.321777,0,0,0.7730171454610687,0.4644361423834599,-0.363662665224653,0.034983305572131,-1.046676092851123,0.5834857321078917,-0.3434314164336149,-25.117663980162483,10.755658530786912,-7.415898122953159
4120,2024 10 17,09:00:34.323,-0.525949,0.501896,0.500241,0.470358,-1.021516,0.032716,-0.080569,5.126953,-1.89209,-21.911621,0,0,-0.5129856406481288,0.4989910343762123,0.5118709718023089,0.4741141598461934,-0.9592787167683388,0.0236877356163173,-0.0828454133379028,0.6755888171160895,-6.148439338693536,-11.048868389174327,0.811966,0.450672,-0.367091,0.053378,-0.804224,0.274911,-0.391125,-47.424316,-126.586914,330.810547,0,0,0.7749645881880152,0.4637479352642868,-0.3638340819634204,0.0359030402935244,-1.0345534882085667,0.5680569955024971,-0.3458160956119342,-26.23299658115436,3.888529904247567,9.4954241331945
4121,2024 10 17,09:00:34.331,-0.525949,0.501896,0.500241,0.470358,-1.021516,0.032716,-0.080569,5.126953,-1.89209,-21.911621,0,0,-0.5136338086157224,0.4991362826574016,0.5112894732121934,0.4739263518538837,-0.9623905809299218,0.0241391488355014,-0.0827315926710076,0.898157026260285,-5.935621871758859,-11.59200601971561,0.807534,0.436409,-0.390536,0.070124,-0.770043,0.187506,-0.445814,-57.739258,-144.65332,337.097168,0,0,0.7765930587786144,0.4623809885010725,-0.3651691778652494,0.0376140882788482,-1.0213279637981385,0.5490294457273722,-0.3508159908313374,-27.808309652096643,-3.538562590964813,25.875511326534777
4122,2024 10 17,09:00:34.340,-0.527447,0.502688,0.499328,0.468803,-1.051302,0.032716,-0.077151,8.850098,-0.671387,-29.907227,0,0,-0.5143244681849363,0.4993138685245315,0.5106913995515837,0.4736701842611895,-0.9668361518834258,0.0245679913937263,-0.0824525630374573,1.295754074947271,-5.672410128170916,-12.507767068729828,0.801725,0.420839,-0.415727,0.085454,-0.820338,0.190435,-0.404797,-71.472168,-174.804688,339.355469,0,0,0.7778496558396837,0.4603038890760188,-0.3676970689719869,0.0400060838649058,-1.0112784656082312,0.5310997234410035,-0.3535150412897705,-29.99150256949181,-12.101868861416571,41.54950921020804
4123,2024 10 17,09:00:34.348,-0.52949,0.503625,0.498067,0.46683,-1.068392,0.048341,-0.102542,11.59668,-2.075195,-38.635254,0,0,-0.5150827447756894,0.4995294250983049,0.5100601795740045,0.47332817504813,-0.9719139442892544,0.02575664182404,-0.0834570348855844,1.810800371199907,-5.49254937176237,-13.814141415293337,0.794298,0.403993,-0.442768,0.09918,-0.989288,0.248054,-0.379406,-84.106445,-206.176758,340.698242,0,0,0.7786720730476995,0.4574883446222179,-0.3714506155233875,0.0429647796716605,-1.0101789423278196,0.5169474372689533,-0.354809589225282,-32.69724969101722,-21.805613318345745,56.50694584969764
4124,2024 10 17,09:00:34.356,-0.531934,0.504949,0.496617,0.46416,-1.129917,0.055666,-0.116703,14.343262,1.220703,-48.461914,0,0,-0.5159253075369049,0.4998004038433896,0.5093880205953043,0.4728697662957235,-0.9798140970747916,0.027252109732838,-0.0851193331413052,2.437423452639912,-5.15688675317425,-15.54653004452867,0.794298,0.403993,-0.442768,0.09918,-0.989288,0.248054,-0.379406,-84.106445,-206.176758,340.698242,0,0,0.7794533693953145,0.454813577391107,-0.3750164847472181,0.0457755406880775,-1.009134395211429,0.5035027654055056,-0.3560394097640179,-35.26770945646636,-31.02417055242845,70.71651065721275
4125,2024 10 17,09:00:34.365,-0.534884,0.506652,0.494761,0.460883,-1.151891,0.066408,-0.097171,15.686035,0.183105,-59.814453,0,0,-0.5168732421600597,0.5001429836512201,0.508656669565539,0.4722704279809373,-0.9884179422210522,0.0292099042461961,-0.0857219164842399,3.099854030007916,-4.889887165515537,-17.75992619230224,0.784929,0.386305,-0.471434,0.111378,-1.25248,0.294931,-0.205573,-90.332031,-235.351563,339.72168,0,0,0.7797271509255488,0.4513881485215516,-0.3798373605098573,0.0490556636536736,-1.021301675450857,0.4930741771352304,-0.3485160892758169,-38.02092553364304,-41.24054017480703,84.16676912435211
4126,2024 10 17,09:00:34.373,-0.538154,0.508917,0.492411,0.457084,-1.181188,0.035157,-0.064455,13.671875,2.380371,-70.495605,0,0,-0.5179372800520567,0.5005816844686591,0.507844386087262,0.4715111065818904,-0.9980564451099996,0.0295072590338863,-0.0846585706600279,3.62845507850752,-4.52637425723976,-20.39671013268713,0.773908,0.3681,-0.500492,0.122786,-1.448775,0.365734,-0.087405,-89.84375,-247.192383,338.867188,0,0,0.7794361933792714,0.447223741095474,-0.3858700924843644,0.0527421804709899,-1.042675341678314,0.4867071682784688,-0.3354605348120261,-40.612066756960886,-51.53813231606668,96.90179006813452
4127,2024 10 17,09:00:34.381,-0.538154,0.508917,0.492411,0.457084,-1.181188,0.035157,-0.064455,13.671875,2.380371,-70.495605,0,0,-0.5189481160494539,0.5009984502452262,0.5070727167828989,0.4707897512527959,-1.0072130228544995,0.029789746082192,-0.0836483921270265,4.130626074582144,-4.181036994377772,-22.901654876052767,0.761212,0.349831,-0.529297,0.134239,-1.679739,0.470717,0.113773,-79.833984,-253.662109,341.186523,0,0,0.7785249837103078,0.4423541040407003,-0.3930414378601461,0.0568170214474404,-1.0745285245943983,0.4859076598645453,-0.3129988580714247,-42.57316261911284,-61.64433115026334,109.1160267147278
4128,2024 10 17,09:00:34.390,-0.541705,0.511617,0.489486,0.452999,-1.257851,0.052736,-0.064943,10.253906,-1.159668,-78.979492,0,0,-0.5200859602469812,0.5015293777329648,0.5061933809437539,0.4699002136901561,-1.0197449217117744,0.0309370587780824,-0.0827131225206752,4.436790070853037,-4.029968544658884,-25.705546732250127,0.74712,0.331949,-0.556873,0.146676,-1.887265,0.563982,0.271981,-60.058594,-244.934082,343.933105,0,0,0.7769547345247922,0.4368338488386653,-0.4012330159671388,0.0613099703750684,-1.1151653483646786,0.489811376871318,-0.2837498651678535,-43.4474341881572,-70.80881869275017,120.8568806289914
4129,2024 10 17,09:00:34.398,-0.545716,0.514548,0.485591,0.449038,-1.300333,0.067385,-0.04883,6.225586,-9.521484,-88.134766,0,0,-0.521367462234632,0.5021803088463165,0.5051632618965661,0.4688571030056483,-1.0337743256261855,0.0327594558391783,-0.0810189663946414,4.526229867310384,-4.304544317425939,-28.82700769563762,0.731978,0.314965,-0.582413,0.160625,-1.993225,0.586444,0.346202,-34.118652,-230.041504,344.055176,0,0,0.7747058977985526,0.430740406396732,-0.4102920151687818,0.066275721856315,-1.159068330946445,0.4946430080277521,-0.2522522719094608,-42.98099507874933,-78.77045295811266,132.01679539754184
4130,2024 10 17,09:00:34.406,-0.550165,0.517945,0.48085,0.444785,-1.374554,0.067385,-0.093265,4.02832,-12.512207,-101.379395,0,0,-0.5228073391229004,0.5029685434040007,0.5039475988017378,0.4676534978553658,-1.0508133093448762,0.0344907330472193,-0.0816312680749093,4.501334373944865,-4.714927451554642,-32.45462706085574,0.731978,0.314965,-0.582413,0.160625,-1.993225,0.586444,0.346202,-34.118652,-230.041504,344.055176,0,0,0.7725695029086249,0.4249516360768954,-0.4188980644103427,0.0709931857634992,-1.2007761643991224,0.4992330576263645,-0.2223295583139877,-42.53787792481186,-86.33400551020702,142.61871442766474
4131,2024 10 17,09:00:34.415,-0.55541,0.5217,0.475074,0.440061,-1.35844,0.079104,-0.028321,3.540039,-19.836426,-116.577148,0,0,-0.5244374721667554,0.5039051162338006,0.5025039188616509,0.4662738729625976,-1.0661946438776322,0.0367213963948584,-0.0789657546711638,4.453269605247622,-5.47100237897691,-36.66075310781295,0.715805,0.299236,-0.605884,0.176025,-2.048402,0.539079,0.321299,-6.225586,-218.811035,342.468262,0,0,0.7697312777631936,0.4186658542730506,-0.4282473611898255,0.0762447764753243,-1.2431574561791665,0.5012253547450463,-0.1951481303982883,-40.72226332857127,-92.95785698469666,152.61119180628148
4132,2024 10 17,09:00:34.423,-0.561192,0.525927,0.468162,0.435073,-1.412641,0.079104,-0.024903,-0.305176,-24.841309,-130.92041,0,0,-0.5262751985584176,0.5050062104221106,0.5007868229185684,0.4647138293144677,-1.0835169616837506,0.0388405265751154,-0.0762626169376056,4.215347324985241,-6.439517710028064,-41.37373595242231,0.69843,0.284804,-0.627701,0.192545,-2.151433,0.458022,0.254891,18.005371,-214.050293,339.904785,0,0,0.7661662138750339,0.411972761559398,-0.4382200431303342,0.082059787651558,-1.2885712333702075,0.4990651870077939,-0.1726461738783739,-37.7858816121427,-99.01247878546182,161.9758714659674
4133,2024 10 17,09:00:34.431,-0.561192,0.525927,0.468162,0.435073,-1.412641,0.079104,-0.024903,-0.305176,-24.841309,-130.92041,0,0,-0.5280210386304968,0.5060522499010051,0.4991555817726399,0.4632317878487443,-1.0999731635995629,0.0408537002463597,-0.0736946360907254,3.9893211587359785,-7.35960727452666,-45.8510696548012,0.679635,0.271428,-0.648466,0.209559,-2.290597,0.31251,0.147465,34.667969,-219.116211,337.036133,0,0,0.7618396531812822,0.4049455234814281,-0.4487323409738175,0.0884347482689801,-1.3386725217016973,0.4897374276574042,-0.1566406151844552,-34.16318908153556,-105.01766539618872,170.72888454266905
4134,2024 10 17,09:00:34.440,-0.567415,0.530841,0.460094,0.429607,-1.544481,0.127445,-0.097171,-7.751465,-29.418945,-147.399902,0,0,-0.5299907366989719,0.5072916874059548,0.4972025026840079,0.461550548456307,-1.1221985554195848,0.0451832652340417,-0.0748684542861891,3.4022818507991794,-8.462574160800326,-50.92851127206113,0.65945,0.258579,-0.668554,0.22649,-2.411695,0.049318,0.072756,41.015625,-224.975586,335.9375,0,0,0.7567201705222181,0.3976271973073567,-0.4597234239251266,0.0953375108555311,-1.392323645616612,0.467716456274534,-0.1451707844252324,-30.404248377458785,-111.01556142637928,178.98931531553558
4135,2024 10 17,09:00:34.448,-0.57425,0.536477,0.450158,0.424012,-1.678762,0.207038,-0.053224,-17.76123,-42.114258,-167.96875,0,0,-0.5322036998640233,0.508750953035657,0.4948502775498075,0.4596736210334917,-1.1500267276486054,0.0532760019723396,-0.0737862315718796,2.3441062582592203,-10.14515835276031,-56.78052320845807,0.637955,0.245488,-0.68835,0.242742,-2.534745,-0.274911,0.014649,36.132813,-236.51123,338.378906,0,0,0.7507819119961072,0.3900202374419889,-0.4711547527288702,0.1027077353127546,-1.4494447133357813,0.4305850834608073,-0.1371797952039708,-27.07739530858585,-117.29034485506033,186.9587948497588
4136,2024 10 17,09:00:34.456,-0.58172,0.543078,0.438,0.418119,-1.760308,0.182623,-0.003906,-26.794434,-51.391602,-194.335938,0,0,-0.5346795148708221,0.5104673053838741,0.4920077636723171,0.4575958899818171,-1.180540791266175,0.0597433518737226,-0.0702922199932856,0.887179245346259,-12.207480535122292,-63.658293948035165,0.615345,0.231676,-0.707909,0.257956,-2.703696,-0.59035,0.155278,25.695801,-242.004395,341.125488,0,0,0.7440100663963019,0.3821030255698894,-0.4829924650924267,0.1104701485471168,-1.5121572776689922,0.379538329287767,-0.1225569054437723,-24.43873549315655,-123.52604736230728,194.6671295072709
4137,2024 10 17,09:00:34.465,-0.590421,0.550395,0.423937,0.410787,-1.912656,0.145512,0.029786,-23.071289,-58.105469,-227.111816,0,0,-0.5374665891272811,0.5124636901146803,0.4886042254887012,0.4552554454827262,-1.217146551702866,0.0640317842800365,-0.0652883089936214,-0.3107441669210539,-14.502379958366175,-71.8309700506334,0.615345,0.231676,-0.707909,0.257956,-2.703696,-0.59035,0.155278,25.695801,-242.004395,341.125488,0,0,0.7375768130764867,0.3745816742913949,-0.4942382918378054,0.117844441119761,-1.5717342137855426,0.3310439128233786,-0.1086651601715836,-21.93200866849872,-129.4499647441919,201.9900474319073
4138,2024 10 17,09:00:34.473,-0.601202,0.557698,0.407776,0.401557,-2.085025,0.247078,0.115238,-9.521484,-75.134277,-265.258789,0,0,-0.540653359670917,0.5147254056089463,0.4845628142142661,0.4525705232085899,-1.2605404741177226,0.0731840950660347,-0.0562619935439403,-0.7712811585750012,-17.533974810447866,-81.50236099810172,0.592476,0.217357,-0.726446,0.272038,-2.949797,-0.971221,0.321299,17.51709,-238.15918,335.083008,0,0,0.7303217724226623,0.3667204405768251,-0.5058486772459151,0.1255541190637729,-1.6406373530962652,0.2659306671822097,-0.0871669521630044,-19.959553735073783,-134.8854255069823,208.64469546031197
4139,2024 10 17,09:00:34.481,-0.601202,0.557698,0.407776,0.401557,-2.085025,0.247078,0.115238,-9.521484,-75.134277,-265.258789,0,0,-0.5436807916873712,0.516874035328499,0.4807234735035528,0.4500198470481604,-1.3017647004118365,0.0818787903127329,-0.0476869938667433,-1.2087913006462512,-20.413989919925477,-90.69018239819664,0.570478,0.20333,-0.743036,0.284797,-3.161718,-1.484909,0.484878,13.671875,-218.444824,316.040039,0,0,0.7223295838015292,0.3585509185479839,-0.5177080433836193,0.1335162631105843,-1.716691385441452,0.1783886838230992,-0.0585647045548542,-18.277982298320097,-139.06339543163318,214.01446263729636
4140,2024 10 17,09:00:34.490,-0.613805,0.565285,0.388525,0.390826,-2.339427,0.364757,0.145512,-12.023926,-92.834473,-305.969238,0,0,-0.5471870021030026,0.519294583562074,0.4761135498283751,0.4470601546957523,-1.3536478153912446,0.0960227007970963,-0.0380270441734061,-1.7495480356139386,-24.0350140739292,-101.4541351782868,0.551051,0.190054,-0.756691,0.29604,-3.087497,-2.145573,0.489273,9.338379,-181.884766,285.583496,0,0,0.7137656546114527,0.3501260726205846,-0.5296571912144383,0.1416424499550551,-1.7852316661693792,0.0621905996319442,-0.0311728193271115,-16.89716423340409,-141.20446396005153,217.5929143054315
4141,2024 10 17,09:00:34.498,-0.627667,0.573618,0.365465,0.378724,-2.830653,0.352062,0.112796,-21.606445,-116.760254,-353.088379,0,0,-0.5512110019978526,0.5220107543839703,0.4705811223369563,0.4436433469609647,-1.4274980746216823,0.1088246657572414,-0.0304858919647358,-2.742392883833242,-28.671276070232736,-114.03584736937243,0.534514,0.178202,-0.767836,0.304905,-2.620685,-2.720786,0.594745,-0.854492,-154.907227,243.713379,0,0,0.70480307188088,0.3415298689895554,-0.5415661316537164,0.1498055774573023,-1.82700433286091,-0.0769582303496529,0.000123071639244,-16.095030621733883,-141.88960211204895,218.89893754015992
4142,2024 10 17,09:00:34.506,-0.642949,0.582507,0.337818,0.36494,-3.18955,0.375011,0.039552,-26.794434,-142.76123,-406.555176,0,0,-0.5557979018979599,0.5250355666647718,0.4639429662201085,0.4397081796129164,-1.515600670890598,0.1221339824693794,-0.026983997366499,-3.94499493964158,-34.375773766721096,-128.6618138009038,0.519675,0.169003,-0.777901,0.310235,-1.902402,-3.048433,0.880886,-15.258789,-159.973145,190.002441,0,0,0.695546668286836,0.3329035255400776,-0.5533828750710306,0.1578270485844372,-1.8307742162178644,-0.2255319688321703,0.0441612180572818,-16.05321854064719,-142.7937792564465,217.45411271315191
4143,2024 10 17,09:00:34.515,-0.658698,0.59192,0.30558,0.349811,-3.018647,0.044923,-0.046388,-41.748047,-164.978027,-449.279785,0,0,-0.5609429068030618,0.5283797883315332,0.456024817909103,0.4352133206322706,-1.590752987346068,0.1182734333459104,-0.027954197498174,-5.8351475426595005,-40.905886428385045,-144.69271236085862,0.519675,0.169003,-0.777901,0.310235,-1.902402,-3.048433,0.880886,-15.258789,-159.973145,190.002441,0,0,0.6867530848724941,0.3247084992630737,-0.564608781317479,0.1654474461552153,-1.834355605406971,-0.3666770203905618,0.0859974571544177,-16.01349706361483,-143.65274754362417,216.0815291274943
4144,2024 10 17,09:00:34.523,-0.674358,0.600515,0.270881,0.333536,-2.990326,-0.354015,-0.567888,-41.809082,-174.926758,-463.195801,0,0,-0.5666136614629087,0.5319865489149564,0.4467676270136478,0.4301294546006571,-1.6607316379787644,0.0946590116786149,-0.0549508876232653,-7.633844265526525,-47.60693000696579,-160.61786679281568,0.504076,0.163925,-0.788685,0.311469,-1.609424,-3.082125,1.537156,-26.672363,-202.209473,132.995605,0,0,0.6776192306288693,0.31666932429992,-0.5758125922516051,0.1727485238474545,-1.8231090251366224,-0.5024494193710337,0.1585553842966968,-16.54644036043409,-146.58058381644295,211.92723292111955
4145,2024 10 17,09:00:34.531,-0.674358,0.600515,0.270881,0.333536,-2.990326,-0.354015,-0.567888,-41.809082,-174.926758,-463.195801,0,0,-0.5720008783897632,0.5354129714692085,0.4379732956629654,0.4252997818706242,-1.727211356079826,0.0722253110946841,-0.0805977432421021,-9.342606152250198,-53.9729214066175,-175.7467635031749,0.487537,0.163352,-0.799637,0.310169,-2.006409,-3.273537,2.198797,-17.700195,-228.149414,83.740234,0,0,0.6681151190974258,0.3090034580849239,-0.5870038126390248,0.1796195476550818,-1.8322740238797917,-0.641003798402482,0.260567465081862,-16.604128092412385,-150.6590253256208,205.5178829750636
4146,2024 10 17,09:00:34.540,-0.689617,0.607401,0.235661,0.316158,-2.98056,-0.169439,-0.08301,-25.085449,-173.461914,-465.820313,0,0,-0.577881684470275,0.5390123728957481,0.4278576808798172,0.4198426927770929,-1.789878788275835,0.0601420955399499,-0.080718356079997,-10.129748294637688,-59.94737103628663,-190.2504409780161,0.473119,0.165885,-0.808392,0.308452,-2.779382,-3.732536,2.509842,1.159668,-196.166992,46.142578,0,0,0.6583653131425545,0.3018475351806777,-0.5980732220070736,0.1860611702723277,-1.8796294226858017,-0.7955804084823579,0.3730311918277689,-15.715938287791763,-152.93442365933976,197.5491177263104
4147,2024 10 17,09:00:34.548,-0.703253,0.612902,0.200278,0.299459,-2.756432,-0.027345,0.028809,-29.785156,-186.035156,-449.279785,0,0,-0.5841502502467611,0.5427068542509607,0.4164786968358263,0.4138235081382382,-1.8382064488620429,0.0557677407629524,-0.0752419882759971,-11.112518679905804,-66.2517602844723,-203.2019081791153,0.466945,0.168642,-0.811657,0.30779,-2.936125,-4.013306,2.442457,14.160156,-63.293457,14.221191,0,0,0.6487942974854268,0.2951872584216438,-0.6087524109067199,0.1921476117587113,-1.932454201551512,-0.95646668805824,0.4765024822363804,-14.222133573402177,-148.45237532637276,188.38272138999488
4148,2024 10 17,09:00:34.556,-0.716345,0.616069,0.164894,0.283051,-2.118229,0.737815,0.543474,-14.709473,-192.687988,-443.115234,0,0,-0.5907599877344231,0.5463749615384126,0.403899461994035,0.4072848827313263,-1.8522075764189407,0.0898701037248048,-0.0443061888621973,-11.292366395910513,-72.57357167024867,-215.1975744701595,0.472193,0.170178,-0.808497,0.307254,-8.09302,-2.458083,-3.54503,1.342773,67.382813,-31.860352,0,0,0.6399642326111555,0.2889367955005616,-0.6187396403613838,0.1979029311707757,-2.240482491473936,-1.031547503655328,0.2754258581245614,-13.443888244732063,-137.66061591005413,177.3705677204951
4149,2024 10 17,09:00:34.565,-0.7281,0.618433,0.131106,0.264996,-1.757866,1.156774,0.803735,-6.774902,-156.555176,-441.040039,0,0,-0.5976269883477019,0.5499778634614919,0.3902597888943332,0.4001704385947599,-1.8474904975979936,0.1432152985385645,-0.0019041294190874,-11.066493176114989,-76.77265188673623,-226.48969769665152,0.472193,0.170178,-0.808497,0.307254,-8.09302,-2.458083,-3.54503,1.342773,67.382813,-31.860352,0,0,0.6315756709805977,0.2829988557255335,-0.6282275083433145,0.2033704846122369,-2.5331093669002387,-1.1028742784725614,0.0844030652183333,-12.70455518249546,-127.4084444645514,166.90902173447034
4150,2024 10 17,09:00:34.573,-0.739158,0.620006,0.099683,0.24352,-1.272988,1.353557,0.991241,6.896973,-115.234375,-452.514648,0,0,-0.6047035389303168,0.5534792702884173,0.3757309494496165,0.3923379166650219,-1.818765372718094,0.2037323836116363,0.0477531270518669,-10.168319867309238,-78.69573804239941,-237.7909452118189,0.481017,0.189008,-0.806069,0.288359,-2.490311,-3.826777,5.695487,57.678223,87.036133,-315.979004,0,0,0.6240477374315678,0.2782993129392568,-0.6371195829261488,0.207619910381625,-2.5309694485552265,-1.2390694145489332,0.3649572619574166,-9.185416273370688,-116.68621559132384,142.7646204477468
4151,2024 10 17,09:00:34.581,-0.739158,0.620006,0.099683,0.24352,-1.272988,1.353557,0.991241,6.896973,-115.234375,-452.514648,0,0,-0.6114262619838009,0.5568056067739964,0.3619285519771357,0.3848970208317708,-1.7914765040821892,0.2612236144310544,0.0949275206992736,-9.315055223943776,-80.52266989027945,-248.527130351228,0.533406,0.189715,-0.78033,0.26565,0.574236,2.780358,-3.731071,-242.370605,631.408691,-355.34668,1,0,0.6195156505599895,0.273870097292294,-0.6442801037798414,0.2105214148625438,-2.375709176127465,-1.0380980438214864,0.1601558488595457,-20.844675709702152,-79.28147026175763,117.85905542535946
4152,2024 10 17,09:00:34.590,-0.749667,0.621534,0.07091,0.216023,-1.093783,1.176305,0.85403,21.179199,-38.574219,-489.318848,0,0,-0.6183382988846109,0.5600420264352964,0.3473776243782789,0.3764533197901822,-1.7565918288780795,0.3069776837095017,0.1328826446643099,-7.790342512746587,-78.42524734576547,-260.56671623366657,0.544713,0.20765,-0.772315,0.252388,-1.651418,1.062532,0.007813,-54.992676,-103.881836,-311.706543,0,0,0.6157755180319899,0.2705590924276793,-0.6506818485908492,0.2126147441194166,-2.339494617321092,-0.933066541630412,0.1525387064165684,-22.552075724217044,-80.51148854866975,96.38077550409147
4153,2024 10 17,09:00:34.598,-0.761134,0.621319,0.044317,0.180756,-0.058596,0.175787,0.767113,56.335449,24.047852,-528.991699,0,1,-0.6254780839403804,0.5631058751135316,0.332224593159365,0.3666684538006731,-1.6716920374341755,0.3004181495240266,0.1645941624310944,-4.5840529371092575,-73.3015923784772,-273.98796537198325,0.552898,0.226498,-0.765169,0.23983,-2.93173,-1.130894,2.139225,73.303223,162.902832,-262.634277,0,0,0.6126316421303903,0.2683560378062953,-0.6564062061613067,0.2139755069134457,-2.369106386455037,-0.9429579145488914,0.25187302109574,-17.759310788006193,-68.34077252123625,78.43002287888692
4154,2024 10 17,09:00:34.606,-0.771064,0.617884,0.028316,0.151251,1.821833,0.83694,1.292032,92.773438,70.861816,-321.350098,0,0,-0.6327573797433613,0.565844781357855,0.3170291635013967,0.3558975811106394,-1.4970157855624666,0.3272442420478253,0.2209660543095397,0.283821609746206,-66.09342195955332,-276.3560720033841,0.575427,0.237416,-0.744759,0.240522,-0.91409,-0.629902,-0.949736,99.79248,250.793457,-177.612305,0,0,0.6107714100238708,0.2668090359159806,-0.6608238458532414,0.2153028315677735,-2.2963555671322853,-0.9273051188214468,0.191792570040953,-11.881721248605883,-52.384061045174434,65.62790648494256
4155,2024 10 17,09:00:34.615,-0.776447,0.614415,0.032555,0.136252,0.141606,2.315989,0.25782,71.289063,161.315918,-37.658691,0,0,-0.6399418607561932,0.5682732922899622,0.3028054553263269,0.3449153020551074,-1.4150846962843433,0.426681479945434,0.2228087515940627,3.834083679258896,-54.72295496157565,-264.4212029532149,0.575427,0.237416,-0.744759,0.240522,-0.91409,-0.629902,-0.949736,99.79248,250.793457,-177.612305,0,0,0.6090041895226772,0.2653393841201815,-0.6650206035605792,0.2165637899893848,-2.227242288775671,-0.9124349628803744,0.1347161415389053,-6.29801118617559,-37.225185142915706,53.46589591069543
4156,2024 10 17,09:00:34.623,-0.776144,0.613813,0.049738,0.135499,-1.161656,1.837947,0.15772,24.047852,140.808105,150.634766,0,0,-0.6467519677183835,0.5705502776754641,0.2901520825600105,0.334444486952352,-1.402413261470126,0.4972447559481623,0.2195543140143595,4.844772095295951,-44.94640196349687,-243.66840450555412,0.585666,0.246366,-0.734494,0.238363,-1.774468,-0.10889,0.772973,13.183594,114.440918,-132.080078,0,0,0.6078372800465434,0.2643907149141724,-0.6684942733825503,0.2176537504899155,-2.2046035743368875,-0.8722577147363556,0.1666289844619601,-5.323930926866811,-29.641879985769915,44.188597215160655
4157,2024 10 17,09:00:34.631,-0.771704,0.614844,0.068401,0.147513,-1.167028,1.346721,0.213874,-33.691406,68.969727,258.544922,0,0,-0.6529995693324643,0.5727649637916907,0.27906452843201,0.3250979126047344,-1.39064399839662,0.5397185681507541,0.2192702983136416,2.917963190531154,-39.25059551532202,-218.55773818027643,0.598283,0.250472,-0.721914,0.241168,-1.064974,0.12891,-0.600604,66.52832,195.983887,-71.960449,0,0,0.6073595660442161,0.2636947791684638,-0.6711652597134227,0.2188294629654197,-2.147622095620043,-0.8221993289995378,0.1282673352388621,-1.7313183805234695,-18.360591636481416,38.38114490440262
4158,2024 10 17,09:00:34.640,-0.771704,0.614844,0.068401,0.147513,-1.167028,1.346721,0.213874,-33.691406,68.969727,258.544922,0,0,-0.6589347908658411,0.5748689156021061,0.2685313520104095,0.3162186669744977,-1.3794631984767889,0.5800686897432163,0.2190004833979595,1.087494731004596,-33.839579389555915,-194.7026051712626,0.605981,0.255692,-0.711234,0.248102,-1.158727,-0.046388,-0.292489,111.328125,128.540039,-41.564941,0,0,0.6072906377420053,0.2632946402100406,-0.6731686967277515,0.2202930898171488,-2.0981773408390407,-0.7834087625495609,0.107229518476919,3.921653788502704,-11.015560104657345,34.383840609182485
4159,2024 10 17,09:00:34.648,-0.764382,0.616978,0.086727,0.165944,-1.116245,0.900418,0.505387,-63.659668,30.212402,304.077148,0,0,-0.6642071513225489,0.5769743698220007,0.259441134409889,0.3087049336257728,-1.3663022885529494,0.5960861552560556,0.2333198092280615,-2.1498634055456343,-30.63698032007812,-169.76361751269943,0.613023,0.260228,-0.700537,0.256384,-1.007355,-0.132328,0.193854,104.492188,154.602051,-27.587891,0,0,0.607577255854905,0.2631413081995385,-0.6745371118913639,0.2220976353262913,-2.0436362237970886,-0.7508547244220828,0.111560742553073,8.950180499077568,-2.734679549424476,31.28525402872336
4160,2024 10 17,09:00:34.656,-0.755823,0.619063,0.103675,0.186396,-0.688498,0.654317,0.571795,-61.889648,12.451172,304.077148,0,0,-0.6687879437564215,0.5790788013309006,0.2516528276893945,0.3025894869444841,-1.332412074125302,0.5989976974932527,0.2502435687666584,-5.136852635268353,-28.48257270407421,-146.07157923706447,0.621272,0.262703,-0.68944,0.263972,-0.921903,-0.141606,-0.364757,78.674316,150.817871,-21.54541,0,0,0.6082619930621597,0.2631193927895616,-0.6752822562967957,0.2241913535599767,-1.987549562607234,-0.7203922882009787,0.0877448554254193,12.436387274123687,4.942947978046748,28.643720827287183
4161,2024 10 17,09:00:34.665,-0.747204,0.620719,0.120292,0.204753,-0.0918,0.579608,0.544939,-58.349609,33.508301,283.813477,0,0,-0.6727087465686004,0.5811608112643556,0.2450847863049248,0.2976976625972599,-1.270381470419037,0.5980282126185901,0.2649783403283255,-7.797490453504935,-25.3830290188705,-124.57732642521124,0.621272,0.262703,-0.68944,0.263972,-0.921903,-0.141606,-0.364757,78.674316,150.817871,-21.54541,0,0,0.6089124934090516,0.2630985731500835,-0.675990143481956,0.2261803858819779,-1.9342672344768723,-0.6914529737909297,0.0651197626541484,15.748283710417503,12.23669412914441,26.134264285922825
4162,2024 10 17,09:00:34.673,-0.738298,0.622833,0.138673,0.218551,-0.044435,0.48439,0.467299,-53.833008,90.698242,259.277344,0,0,-0.6759882092401703,0.5832444207011378,0.2397641969896786,0.2937403294673968,-1.209084146898085,0.5923463019876605,0.2750943733119092,-10.099266330829687,-19.57896546792697,-105.38459290395068,0.626935,0.264607,-0.68138,0.26955,-1.07474,0.029298,0.037111,65.246582,105.529785,-13.244629,0,0,0.609813618738599,0.2631739944925793,-0.6762596363078581,0.228348866587879,-1.8912908727530289,-0.6554154251013832,0.063719324521441,18.22319862489663,16.90134867268719,24.165319621626683
4163,2024 10 17,09:00:34.681,-0.729138,0.625325,0.159464,0.227813,-0.291025,0.470229,0.354015,-45.715332,140.74707,240.112305,0,0,-0.6786456987781618,0.5853484496660809,0.2357491871401946,0.290443962994027,-1.1631811895531807,0.5862404368882774,0.2790404046463137,-11.880069614288203,-11.562663694530624,-88.10974800875313,0.631783,0.266133,-0.673794,0.275727,-0.947295,-0.030763,0.032716,66.711426,106.994629,-3.90625,0,0,0.610912087801669,0.2633219447679503,-0.6761363544924652,0.230717773258485,-1.8440910791153773,-0.624182803846314,0.0621691582953689,20.6476099936518,21.406012689052837,22.761741140545347
4164,2024 10 17,09:00:34.690,-0.729138,0.625325,0.159464,0.227813,-0.291025,0.470229,0.354015,-45.715332,140.74707,240.112305,0,0,-0.6811703138392537,0.5873472771827769,0.2319349277831849,0.2873124148443257,-1.1195733800755217,0.5804398650438635,0.282789134413998,-13.571832733573794,-3.947177009804091,-71.69864535831546,0.635918,0.267217,-0.66763,0.280132,-0.778832,-0.003906,0.126957,41.687012,74.829102,-10.009766,0,0,0.6121623834115855,0.2635166975295528,-0.6757110367678419,0.2331884845955608,-1.7908281251596083,-0.5931689636539983,0.0654085503806004,21.699580093969207,24.07716715460019,21.12316578351808
4165,2024 10 17,09:00:34.698,-0.719543,0.627806,0.181995,0.234512,-0.613788,0.535661,0.234382,-40.710449,168.579102,234.49707,0,0,-0.683088948147291,0.589370213323638,0.2294379313940256,0.2846723941021093,-1.0942841110717454,0.5782009217916703,0.2803687776932981,-14.928763546895103,4.679136940686115,-56.38885959039968,0.638556,0.268349,-0.663736,0.282292,-0.983917,0.08887,0.095218,27.404785,46.325684,-13.73291,0,0,0.6134820642410062,0.2637583126530751,-0.6751122849294497,0.2356436603657827,-1.750482568901628,-0.5590670154712983,0.0668990228615704,21.984840339270747,25.189592996870186,19.380361994342174
4166,2024 10 17,09:00:34.706,-0.709395,0.6297,0.205241,0.241066,-0.883328,0.550798,0.087893,-39.18457,167.785645,243.103027,0,0,-0.6844042507399264,0.5913867026574561,0.2282280848243243,0.2824920743970038,-1.083736305518158,0.5768307757020866,0.2707449888086332,-16.14155386955035,12.834462343651808,-41.4142652608797,0.640675,0.269661,-0.660311,0.284268,-0.981964,0.017579,0.040529,29.663086,41.503906,-13.000488,0,0,0.6148417110289558,0.2640534470204214,-0.6743722206829772,0.2380748773474936,-1.7120566404565465,-0.5302347146977333,0.0655805217184919,22.36875262230721,26.005308647026677,17.761319494625063
4167,2024 10 17,09:00:34.715,-0.698539,0.630525,0.228515,0.249526,-1.093295,0.513688,0.011231,-40.527344,150.32959,265.075684,0,0,-0.68511098820293,0.5933436175245832,0.2282424305831081,0.2808437706771536,-1.08421424024225,0.5736736369169824,0.2577692893682015,-17.360843376072832,19.709218726469217,-26.08976779783572,0.640675,0.269661,-0.660311,0.284268,-0.981964,0.017579,0.040529,29.663086,41.503906,-13.000488,0,0,0.6161333754775079,0.2643338246694003,-0.6736691596488283,0.2403845334801189,-1.675552008433719,-0.5028440289628465,0.0643279456325673,22.733469291191845,26.78023851467534,16.22322911989381
4168,2024 10 17,09:00:34.723,-0.687017,0.629826,0.251578,0.260836,-1.168004,0.395032,0.007813,-42.724609,123.657227,292.785645,0,0,-0.6852062887927836,0.595167736648354,0.2294092090539527,0.2798433821432959,-1.088403728230137,0.5647415550711332,0.2452714748997914,-18.629031657269188,24.906619140145757,-10.145997157943928,0.642438,0.27089,-0.657554,0.285507,-0.988311,0.049318,0.059572,19.470215,29.907227,-15.075684,0,0,0.6174486067036326,0.2646616334359303,-0.6728634016663869,0.2426406568061129,-1.641189958012033,-0.4752359275147041,0.0640901483509389,22.57030657663225,26.93658793894157,14.658283463899116
4169,2024 10 17,09:00:34.731,-0.675046,0.627351,0.2744,0.274678,-1.137242,0.284677,-0.003906,-38.146973,101.806641,316.589355,0,0,-0.6846982743531443,0.5967768998159363,0.2316587486012551,0.2795851130361311,-1.0908456418186303,0.5507383273175765,0.2328126011548018,-19.604928724405728,28.751620233138464,6.19077044995327,0.643892,0.272092,-0.655427,0.285981,-1.024934,0.044435,0.031251,13.85498,22.277832,-17.700195,0,0,0.6187707763684509,0.2650331517641338,-0.6719915815830675,0.2448076739658073,-1.6103771601114314,-0.4492523811389689,0.062448190933392,22.13454024780064,26.70365014199449,13.04035954070416
4170,2024 10 17,09:00:34.740,-0.675046,0.627351,0.2744,0.274678,-1.137242,0.284677,-0.003906,-38.146973,101.806641,316.589355,0,0,-0.684215660635487,0.5983056048251395,0.2337958111711923,0.2793397573843246,-1.093165459727699,0.5374352609516977,0.2209766710970617,-20.53203093818544,32.40437127148154,21.710699677455608,0.645231,0.273282,-0.653634,0.285931,-1.01175,0.015137,0.042482,10.192871,18.798828,-19.775391,0,0,0.6200937875500283,0.2654455941759271,-0.6710737025039141,0.2468638402675169,-1.5804458021058598,-0.4260329120820205,0.0614498813867224,21.537456785410605,26.30840903489476,11.399572013668951
4171,2024 10 17,09:00:34.748,-0.66272,0.623171,0.297526,0.28972,-1.07474,0.185553,0.076662,-27.160645,96.618652,333.251953,0,0,-0.6831408776037127,0.5995488745838825,0.2369823206126327,0.2798587695151083,-1.092244186741314,0.5198411479041128,0.2137609375422086,-20.863461641276167,35.615085307907464,37.28776234358283,0.646655,0.274283,-0.652071,0.285324,-1.031281,0.050783,0.002441,2.13623,15.991211,-22.094727,0,0,0.6214218481725269,0.2658874644671307,-0.6701235673787184,0.248786848254141,-1.5529875620005669,-0.4021921164779194,0.0584994373173863,20.567395446140072,25.792549133150025,9.724857062985503
4172,2024 10 17,09:00:34.756,-0.649949,0.617601,0.3218,0.304269,-1.113315,0.099124,0.051271,-13.977051,107.788086,342.773438,0,0,-0.681481283723527,0.6004514808546884,0.241223204582001,0.2810792810393529,-1.093297727404248,0.4988052905089072,0.2056364406650982,-20.51914110921236,39.22373534251209,52.562046126403686,0.64802,0.275239,-0.650722,0.284384,-1.063509,0.051271,0.002441,-0.976563,13.793945,-23.498535,0,0,0.6227517557639005,0.2663550412437742,-0.6691534890097823,0.250566705841434,-1.5285136339005383,-0.3795189606540234,0.0556965154515169,19.490197523833068,25.19261892649252,8.063687459836228
4173,2024 10 17,09:00:34.765,-0.637058,0.61067,0.34692,0.317625,-1.194372,0.055177,0.10596,2.807617,118.652344,343.87207,0,0,-0.6792601195373505,0.6009624068119539,0.246508044352901,0.2829065669873852,-1.0983514410340358,0.4766238759834618,0.2006526186318433,-19.35280320375174,43.19516577538649,67.1275473200835,0.64802,0.275239,-0.650722,0.284384,-1.063509,0.051271,0.002441,-0.976563,13.793945,-23.498535,0,0,0.6240151679757054,0.2667992391815855,-0.6682319145592931,0.2522575705493623,-1.5052634022055111,-0.3579794626213222,0.0530337396789411,18.466859497641416,24.622685230167896,6.485576336844416
4174,2024 10 17,09:00:34.773,-0.624003,0.602625,0.372815,0.329351,-1.357952,0.06592,0.056154,18.981934,132.263184,342.224121,0,0,-0.676497263560483,0.6010455364713563,0.2528233921352559,0.285228788638016,-1.111331468982334,0.4560886821842887,0.1934276877002511,-17.436066343564153,47.648566686617166,80.88237600407932,0.649515,0.276055,-0.649361,0.283289,-1.006378,0.056154,0.051759,-2.868652,15.014648,-23.681641,0,0,0.6252901595769201,0.2672620272225062,-0.6672883688313284,0.2538091420218942,-1.4803191320952354,-0.3372727894902561,0.052970002694994,17.400083922759343,24.142283368659506,4.977215470002195
4175,2024 10 17,09:00:34.781,-0.610881,0.593391,0.39901,0.339856,-1.482467,0.102542,0.065432,32.714844,136.84082,341.247559,0,0,-0.6732164503824589,0.6006628096477885,0.2601327225284931,0.2879601492061151,-1.129888245533217,0.4384113480750742,0.1870279033152385,-14.928520826385943,52.10817935228631,93.90063515387534,0.650873,0.276863,-0.648146,0.282168,-0.992706,0.055666,0.047853,-2.746582,11.535645,-22.705078,0,0,0.6265693015980741,0.2677420758613809,-0.6663312503897619,0.2552270849207995,-1.4559384754904736,-0.3176258500157433,0.0527141525602443,16.392750626621375,23.51195145022653,3.5931007965020845
4176,2024 10 17,09:00:34.790,-0.610881,0.593391,0.39901,0.339856,-1.482467,0.102542,0.065432,32.714844,136.84082,341.247559,0,0,-0.670099677863336,0.6002992191653991,0.2670765864020684,0.2905549417458093,-1.1475171832565565,0.4216178806713205,0.1809481081494766,-12.546352585066646,56.34481138467199,106.26798134618156,0.652025,0.277717,-0.64713,0.280997,-1.00296,0.062502,0.073244,-2.319336,8.972168,-22.216797,0,0,0.6278420865181704,0.2682408220683118,-0.6653711878702738,0.2565155806747595,-1.4332895517159498,-0.2986194575149561,0.0537406449322321,15.457146295290304,22.7849622777152,2.30260590667698
4177,2024 10 17,09:00:34.798,-0.597381,0.582986,0.425334,0.349791,-1.589404,0.159673,0.018067,39.733887,137.939453,346.191406,0,0,-0.6664637439701692,0.5994335582071292,0.274989457081965,0.2935167446585188,-1.1696115240937286,0.4085206366377544,0.1728040527420028,-9.932340605813312,60.42454346543839,118.2641525788725,0.65309,0.27868,-0.646128,0.279873,-0.999054,0.047365,0.042482,-1.342773,8.178711,-22.705078,0,0,0.6291044821922619,0.2687627809648962,-0.6644090284767601,0.2576834516410215,-1.4115777741301525,-0.2813202346392083,0.0531777126856205,14.617150330525789,22.05464971382944,1.0522217113431307
4178,2024 10 17,09:00:34.806,-0.583131,0.571422,0.45159,0.359864,-1.68804,0.196295,-0.000488,39.794922,135.375977,356.628418,0,0,-0.6622971067716606,0.5980329802967727,0.2838194842278667,0.2968341074255928,-1.1955329478890422,0.3979093548058667,0.1641394501049026,-7.445977475522646,64.17211514216646,130.18236584992889,0.654086,0.279678,-0.645268,0.278533,-1.001984,0.027345,0.018067,-3.662109,5.493164,-24.169922,0,0,0.6303535580826488,0.2693085419166514,-0.6634519770529221,0.2587259290589704,-1.3910980854236443,-0.2658869729072479,0.0514221770513395,13.7031873639995,21.226575428137966,-0.2088854742240259
4179,2024 10 17,09:00:34.815,-0.567746,0.558871,0.477712,0.370296,-1.824274,0.195807,0.028321,35.522461,134.399414,367.980957,0,0,-0.6575695514330776,0.5960748812819341,0.2935141100164734,0.3005072020543132,-1.22697000049459,0.3878042370655734,0.1573485275996575,-5.297555551746513,67.68348008505814,142.07229540743242,0.654086,0.279678,-0.645268,0.278533,-1.001984,0.027345,0.018067,-3.662109,5.493164,-24.169922,0,0,0.6315401801785163,0.2698270148208188,-0.662542778200276,0.2597162826060218,-1.3716423811524625,-0.2512253742618855,0.0497544181987725,12.834922545799524,20.43990485673107,-1.4069373005128247
